time,seconds_elapsed,rotationRateX,rotationRateY,rotationRateZ,gravityX,gravityY,gravityZ,accelerationX,accelerationY,accelerationZ,quaternionW,quaternionX,quaternionY,quaternionZ,pitch,roll,yaw
1780949338878789376,0.1192324161529541,-0.028978632763028145,0.005609465762972832,0.023165037855505943,0.3002622425556183,-0.3930113613605499,-0.8691287040710449,0.015091121196746826,-0.00043651461601257324,0.010440349578857422,0.6736182862306895,0.030248294290871267,0.2540092482448299,0.6933994436659673,0.403904177771444,0.3326379813330334,1.5310216576743958
1780949338888824576,0.12926745414733887,0.008285381831228733,0.009777046740055084,0.01833832450211048,0.3002372980117798,-0.39299577474594116,-0.8691443800926208,0.015619635581970215,0.026479661464691162,0.006687045097351074,0.6735325668132022,0.030219365616296096,0.2539972694846473,0.6934884256556553,0.40388725152639093,0.332606778567297,1.5312867658108105
1780949338898860544,0.13930344581604004,0.01936999149620533,0.010059874504804611,0.01599181443452835,0.3002764582633972,-0.3931795060634613,-0.8690477013587952,0.011781066656112671,0.037817567586898804,0.009748995304107666,0.6734624706741171,0.03025254404101329,0.25408841978580105,0.6935215907764082,0.4040870658055158,0.33268133032578584,1.5313878893276216
1780949338908895488,0.1493384838104248,0.017949992790818214,0.0026397746987640858,0.02831505984067917,0.30024826526641846,-0.39343321323394775,-0.8689426183700562,0.002730250358581543,0.020187973976135254,0.008148550987243652,0.673368384276704,0.030327721869998797,0.25418282746117543,0.6935750985423765,0.40436300556264393,0.3326896744924402,1.5315547391335822
1780949338918930432,0.15937352180480957,-0.010766605846583843,-0.008555889129638672,0.036466725170612335,0.3000929653644562,-0.39357227087020874,-0.8689333200454712,-0.0008070766925811768,-0.0023322701454162598,0.006155610084533691,0.6732562045585285,0.030395038286231708,0.2541839738511964,0.6936805789695482,0.40451425936132546,0.3325333478370328,1.5318796867543107
1780949338928965632,0.16940855979919434,-0.044561319053173065,-0.01725590229034424,0.030157700181007385,0.29984432458877563,-0.3934406042098999,-0.8690787553787231,-0.0012450814247131348,-0.012961983680725098,-0.0021065473556518555,0.6731606025386303,0.030394107506696983,0.2540409770159253,0.6938258204261641,0.4043710467606906,0.33222604276975815,1.532320686087331
1780949338939001600,0.1794445514678955,-0.07160598784685135,-0.019974589347839355,0.03226612135767937,0.29954764246940613,-0.3930155038833618,-0.8693733811378479,-0.0034661293029785156,-0.017186492681503296,-0.0018271803855895996,0.6730889262447416,0.03030313832831592,0.25376177946472156,0.6940014790167891,0.4039087051254773,0.33181655270010463,1.5328469001704235
1780949338949036544,0.18947958946228027,-0.07564946264028549,-0.02072560228407383,0.027761654928326607,0.2992541790008545,-0.3924548923969269,-0.869727611541748,-0.01260259747505188,-0.01120111346244812,0.0003428459167480469,0.6730193481933939,0.0301586712568294,0.2534297698215069,0.6941965646679885,0.4032990998210746,0.3313894339795322,1.5334270754072568
1780949338959071488,0.19951438903808594,-0.055452048778533936,-0.011029699817299843,0.02290777675807476,0.29901835322380066,-0.3919479250907898,-0.8700372576713562,-0.014167308807373047,0.005336016416549683,0.0042536258697509766,0.6729648403367776,0.030021081937425597,0.2531404790945206,0.6943608446153737,0.4027479941063284,0.3310375324955142,1.5339140874407535
1780949338969107456,0.2095503807067871,-0.013050000183284283,0.007211623247712851,0.013462609611451626,0.29892697930336,-0.3916782736778259,-0.8701900839805603,-0.009116798639297485,0.019714772701263428,0.007870197296142578,0.6729104811689328,0.02992691730542201,0.2530006455844825,0.6944685742565375,0.40245488766115695,0.3308896071518312,1.5342318559024695
1780949338979142400,0.21958541870117188,0.039863284677267075,0.011647784151136875,0.00942232832312584,0.29897037148475647,-0.3918246030807495,-0.8701093196868896,-0.01382938027381897,0.01644313335418701,0.0054700374603271484,0.6728573405963115,0.029950029253829197,0.25307773741373996,0.694490963073177,0.40261392901166065,0.3309627636864959,1.5343000328772092
1780949338989177344,0.22962045669555664,0.05747104063630104,0.0077856676653027534,0.0018003609729930758,0.2990311086177826,-0.39228516817092896,-0.8698809146881104,-0.01207435131072998,0.005932629108428955,0.0035936832427978516,0.6728176487097709,0.030095529075695952,0.25328603121225074,0.6944472373643007,0.4031145892081194,0.3311058987103083,1.534179115217515
1780949338999212544,0.2396554946899414,0.05114203691482544,0.0011216397397220135,-0.005490841343998909,0.2990773022174835,-0.3927338123321533,-0.8696625232696533,0.0004985332489013672,0.00935673713684082,-0.0030028820037841797,0.672816992866516,0.030255675647350367,0.25348238370341186,0.6943692454408847,0.4036023673340138,0.3312305663817508,1.533956801926582
1780949339009248512,0.24969148635864258,0.026545079424977303,-0.01302587054669857,-0.012354605831205845,0.2990513741970062,-0.3930585980415344,-0.8695247173309326,0.004003435373306274,0.002586185932159424,-0.005185365676879883,0.672847660511651,0.030403562326494087,0.2536006104959432,0.6942898400242995,0.4039555467525683,0.3312526787807839,1.533730760204291
1780949339019283456,0.25972652435302734,0.0016208215383812785,-0.014731758274137974,-0.017631126567721367,0.2990051805973053,-0.3931140899658203,-0.8695154786109924,-0.004037529230117798,-0.0061168372631073,-0.003561854362487793,0.672918333974343,0.030467200985931395,0.2536020451155775,0.6942180038182364,0.4040159067993109,0.33120840611637914,1.5335211259762804
1780949339029318656,0.2697615623474121,0.002994213718920946,-0.01810971274971962,-0.013351427391171455,0.298877090215683,-0.39312025904655457,-0.8695567846298218,-0.007007002830505371,-0.0021128952503204346,-0.0021625757217407227,0.6729800562700845,0.03053646365447157,0.25355304564002334,0.6941731048202586,0.40402263294057333,0.3310621032843901,1.533394534135893
1780949339039353600,0.2797966003417969,0.011061993427574635,-0.01224236935377121,-0.014147712849080563,0.29876047372817993,-0.3931162357330322,-0.8695986270904541,-0.0022669732570648193,0.0029642879962921143,-0.00025910139083862305,0.6730502982236676,0.030600901245966868,0.2535039892348436,0.6941199525825447,0.40401825385018303,0.3309273543525836,1.5332425546459978
1780949339049388800,0.28983187675476074,0.021342327818274498,0.0017149923369288445,-0.012497884221374989,0.2987539768218994,-0.3931424915790558,-0.8695890307426453,-0.0007498562335968018,0.015121281147003174,0.0031644701957702637,0.6731128539299863,0.030636313727101155,0.25350919403100625,0.6940558750070885,0.40404679021930184,0.33092405427813065,1.533053200695473
1780949339059424000,0.2998669147491455,0.028071070089936256,0.010415006428956985,-0.010839267633855343,0.29883599281311035,-0.39326220750808716,-0.8695067167282104,-0.0023729801177978516,0.019757568836212158,0.005981326103210449,0.6731501729727262,0.030668695149082076,0.25358644657606555,0.6939900589963355,0.4041770165165477,0.3310375070983886,1.5328565554318634
1780949339069458944,0.3099019527435303,0.03443522751331329,0.015543988905847073,-0.014959977008402348,0.29895609617233276,-0.393485426902771,-0.8693644404411316,0.0006044507026672363,0.013465285301208496,0.007441222667694092,0.6731697909392947,0.03072217455419322,0.25372019835327425,0.6939198363066394,0.40441980629967084,0.3312113641430859,1.5326475800953945
1780949339079494912,0.31993794441223145,0.028293445706367493,0.013079100288450718,-0.009728729724884033,0.2991642355918884,-0.39366811513900757,-0.8692100644111633,-0.004532307386398315,-0.0027704834938049316,0.00496751070022583,0.6731958075920972,0.030731660241270047,0.2538710764194038,0.6938389367067579,0.40461853369567136,0.33148008824368674,1.5324011578612615
1780949339089530112,0.3299729824066162,0.0066342223435640335,0.012599198147654533,-0.002424211474135518,0.2992999851703644,-0.3937951624393463,-0.8691058158874512,-0.00251653790473938,-0.0020178258419036865,0.008143901824951172,0.6731896754665154,0.030732505847169706,0.2539736368524983,0.6938073741645281,0.4047567482600419,0.3316566377375159,1.5323036346548986
1780949339099565056,0.340008020401001,-0.02137370966374874,0.014560483396053314,-0.011418239213526249,0.2994162440299988,-0.3937224745750427,-0.8690987229347229,0.002631455659866333,-0.0009003579616546631,0.0076027512550354,0.6731985042465408,0.03066691327657681,0.2539885600428356,0.6937962470723232,0.40467764190877764,0.33177875526122197,1.532262552449073
1780949339109600000,0.35004305839538574,-0.03555557504296303,0.010936187580227852,-0.005874336697161198,0.2995383143424988,-0.39344197511672974,-0.8691836595535278,-0.0002371370792388916,0.005685627460479736,0.009122014045715332,0.6732127311897923,0.03051951026329859,0.253922683646367,0.6938130121427643,0.4043725256934343,0.33187416306368456,1.532298596498656
1780949339119635968,0.3600790500640869,-0.0314127616584301,0.006086437962949276,-0.004738232120871544,0.2996295094490051,-0.3931100070476532,-0.8693023920059204,-0.0029529035091400146,0.00027251243591308594,0.009851157665252686,0.6732267666375784,0.03036243602523237,0.2538245726367955,0.6938421911401356,0.40401146656534637,0.3319258700683933,1.5323718654594911
1780949339129670912,0.3701138496398926,-0.004489535465836525,0.011472681537270546,0.0008293723803944886,0.2996983528137207,-0.39289066195487976,-0.869377851486206,-0.005127429962158203,-0.005455285310745239,0.012108564376831055,0.6732347112096709,0.03025523486386328,0.25376309654408274,0.6938615756423752,0.4037729426035816,0.3319699290127564,1.53242018381266
1780949339139705856,0.38014888763427734,0.028054825961589813,0.013914266601204872,0.008206062018871307,0.2998012900352478,-0.3929426074028015,-0.8693188428878784,-0.0033840537071228027,0.005186259746551514,0.005289912223815918,0.673213855689144,0.03023247052514627,0.253823894049933,0.6938605682707439,0.40382943201873983,0.33209664583527954,1.532413217513918
1780949339149741056,0.3901839256286621,0.05005253851413727,0.014544371515512466,0.00485234335064888,0.2999204099178314,-0.3932618498802185,-0.8691334128379822,0.001471191644668579,0.016888558864593506,-0.0017467141151428223,0.6731741487368234,0.030302393857589427,0.2539981557980836,0.6938323511440151,0.40417661485081113,0.3322849034280525,1.5323314969495898
1780949339159777024,0.4002199172973633,0.052078403532505035,0.012598533183336258,0.009255081415176392,0.2999996244907379,-0.3937603235244751,-0.8688803315162659,0.006564706563949585,0.018821358680725098,-0.004929482936859131,0.6731286064362447,0.03045460068302845,0.25422892389206253,0.6937853260035892,0.40471882862967823,0.3324561451608222,1.5322006171446139
1780949339169811968,0.41025495529174805,0.020369475707411766,0.0034130236599594355,0.014922288246452808,0.30000343918800354,-0.3941580057144165,-0.8686986565589905,-0.0005802512168884277,0.008080154657363892,4.6372413635253906e-05,0.6730560793321609,0.03058331443013483,0.25439206725800856,0.6937901900121374,0.405151514042957,0.33252460325717925,1.5322252608046503
1780949339179846912,0.4202899932861328,-0.008654719218611717,-0.0044707320630550385,0.010921421460807323,0.29995763301849365,-0.3942451775074005,-0.8686749339103699,-0.0037692785263061523,-0.009563416242599487,0.0020673274993896484,0.6730141598800405,0.03061809455536526,0.25441119320750116,0.6938223586916176,0.405246351499779,0.3324859076504097,1.5323255454583506
1780949339189882880,0.430325984954834,-0.03448791056871414,0.002550691831856966,0.012933972291648388,0.29990115761756897,-0.3940584659576416,-0.8687791228294373,-0.00725284218788147,-0.0064084529876708984,0.0013017058372497559,0.6729821322521773,0.030552366603707436,0.25431669934092155,0.6938908990627013,0.405043216018783,0.3323908394643289,1.5325272676925628
1780949339199918080,0.44036102294921875,-0.04186540096998215,0.004948868881911039,0.006993791088461876,0.29989635944366455,-0.3937623202800751,-0.8689150810241699,-0.00897228717803955,0.006875723600387573,0.005725383758544922,0.6729408523421583,0.030422298005951406,0.254198640280618,0.6939799458529649,0.40472101747850264,0.3323376490967754,1.5327843782930943
1780949339209953024,0.4503960609436035,-0.028165303170681,0.002627924084663391,0.009507548995316029,0.2999141812324524,-0.3934858739376068,-0.8690341711044312,-0.007738888263702393,0.009574741125106812,0.008942008018493652,0.6729075238984163,0.030295121936186182,0.25409669595731654,0.6940551554064894,0.4044202826426413,0.3323137089944658,1.532999735180563
1780949339219987968,0.4604308605194092,0.01118982583284378,0.0006792889907956123,0.007144260220229626,0.2998904287815094,-0.393423855304718,-0.8690704107284546,-0.002801835536956787,0.0005405843257904053,0.004110753536224365,0.6728838224834641,0.030270249368402637,0.2540639571489571,0.6940912355268883,0.4043528209122699,0.33227640058190605,1.5331065825053993
1780949339230023936,0.47046685218811035,0.05613652989268303,0.0012563960626721382,0.013007209636271,0.2998640239238739,-0.3936823010444641,-0.8689624667167664,-0.0029890239238739014,0.007772266864776611,0.005772829055786133,0.672855480634395,0.030370707138614877,0.25415816431236293,0.6940798309261655,0.40463395911481814,0.3322875686601487,1.5330808381826146
1780949339240058880,0.4805018901824951,0.07020360976457596,0.00821470282971859,0.0032573763746768236,0.2998883128166199,-0.39419305324554443,-0.8687225580215454,-0.004447668790817261,0.012555480003356934,0.00736391544342041,0.6728277246647137,0.03055317609175046,0.2543722303971753,0.6940203283721633,0.4051896332286902,0.3323977235100249,1.5329161875701722
1780949339250093824,0.4905369281768799,0.050090622156858444,0.005426906049251556,-0.004793892614543438,0.2999650239944458,-0.3946889340877533,-0.8684708476066589,-0.0022050142288208008,0.008580535650253296,0.0026261210441589355,0.672817019703986,0.030718011621035716,0.25459963192410684,0.6939399687869565,0.40572926344943444,0.3325660055587921,1.5326864461946719
1780949339260130048,0.500572919845581,0.022114112973213196,0.0024558836594223976,-0.003781624836847186,0.2999976575374603,-0.39506256580352783,-0.8682897090911865,-0.001993507146835327,-0.002505183219909668,0.0017583370208740234,0.6728093657831163,0.030851100766254042,0.25476138836476303,0.6938820995409053,0.40613594223278104,0.3326639575569535,1.5325226573753887
1780949339270164992,0.5106079578399658,-0.02238810807466507,0.0012710434384644032,-0.00220956071279943,0.30001333355903625,-0.39508646726608276,-0.8682733774185181,-0.006342709064483643,-0.011850178241729736,0.006182312965393066,0.6728111109158035,0.030855725031480916,0.254776812944927,0.6938745792509119,0.4061619629213736,0.3326858929377611,1.532500115209529
1780949339280199936,0.5206429958343506,-0.05342831462621689,0.0013898201286792755,-0.0018159456085413694,0.3000115752220154,-0.3947266936302185,-0.8684375882148743,-0.007805764675140381,-0.009005606174468994,0.009245753288269043,0.6728296520281555,0.030721431399696627,0.25463186262897797,0.6939157566486023,0.4057703819152097,0.332625701797289,1.532613032521222
1780949339290235136,0.5306780338287354,-0.05933254212141037,0.002330714836716652,-0.0015530914533883333,0.30002886056900024,-0.394178181886673,-0.8686807751655579,-0.006449759006500244,-0.00038358569145202637,0.011106312274932861,0.6728449649605484,0.03050505936695971,0.254419065827233,0.6939885472613426,0.40517346547936145,0.3325570931941262,1.5328139848129674
1780949339300271104,0.5407140254974365,-0.03412412479519844,0.001038949005305767,0.008147206157445908,0.30001282691955566,-0.393783837556839,-0.8688651323318481,-0.006220102310180664,-0.0008084475994110107,0.010893940925598145,0.67283729205411,0.03035255617955861,0.2542560972883288,0.6940623788551505,0.40474442385603965,0.33247514608729906,1.533023903975984
1780949339310305792,0.5507488250732422,-0.008768969215452671,-0.0008934410288929939,0.020029965788125992,0.29996365308761597,-0.39361754059791565,-0.8689574599266052,-0.002737700939178467,0.0014666616916656494,0.008941590785980225,0.6727883064579898,0.030286163259627668,0.25417320004095906,0.6941431857892101,0.40456350866328106,0.3323917822723197,1.5332622983429094
1780949339320340992,0.560783863067627,0.0252036452293396,-0.011058060452342033,0.0189852062612772,0.2998378574848175,-0.3937249779701233,-0.868952214717865,-0.002032041549682617,0.002520143985748291,-0.0029960274696350098,0.6727306803509974,0.03035085834500228,0.25417065803704936,0.6941971167656732,0.40468038693747527,0.33226428349055753,1.5334319802701937
1780949339330376960,0.5708198547363281,0.0357377789914608,-0.021496320143342018,0.014388591051101685,0.2996458113193512,-0.3940265476703644,-0.8688817620277405,0.0020509660243988037,0.003233671188354492,-0.0015406012535095215,0.6726905109464683,0.03052122139536451,0.2542195398656143,0.694210729744811,0.4050084606945414,0.3320917910446254,1.533490466679343
1780949339340411904,0.5808548927307129,0.035347361117601395,-0.02444923296570778,0.0002703748759813607,0.2993989884853363,-0.3943910002708435,-0.868801474571228,-0.0004182755947113037,0.003445565700531006,-0.0014530420303344727,0.6726816342402339,0.03074682437431526,0.2542713028759118,0.6941903052541468,0.40540503301645114,0.3318663287944355,1.5334524539913066
1780949339350446848,0.5908899307250977,-0.019039982929825783,-0.026121433824300766,0.0240489412099123,0.2991156578063965,-0.3946206569671631,-0.8687947988510132,-0.006696224212646484,-0.002046823501586914,-0.006571412086486816,0.6726786698827837,0.030934145054089212,0.2542551609851389,0.6941907738481778,0.4056549620613491,0.3315771762673204,1.5334750290827077
1780949339360482048,0.6009249687194824,-0.5652639269828796,-0.08471217751502991,0.60504150390625,0.29778289794921875,-0.39305609464645386,-0.8699610233306885,0.03641507029533386,0.005742281675338745,0.019619286060333252,0.6718030255777512,0.030461013254972764,0.25316318923164666,0.6954575368548317,0.40395284053659514,0.32979383514953126,1.5372703102210106
1780949339370518016,0.6109609603881836,-0.23515763878822327,-0.22524265944957733,-0.09471818804740906,0.2949497103691101,-0.39035603404045105,-0.8721392154693604,0.21812704205513,-0.022928237915039062,0.08287841081619263,0.6711477515074683,0.030149710256334377,0.2510406097230288,0.6968717213760267,0.40101826470394614,0.3261161547446194,1.541550652305459
1780949339380552960,0.6209959983825684,-0.21424409747123718,0.031059565022587776,0.0024600259494036436,0.2944193482398987,-0.3881416916847229,-0.8733059167861938,-0.10240274667739868,-0.0677451491355896,-0.03439366817474365,0.6716742095805869,0.029657921218289966,0.24993487330597178,0.6967830524581123,0.3986143377992628,0.32516541574739577,1.5412482092606288
1780949339390588160,0.6310310363769531,-0.002011197619140148,0.06859815120697021,0.09139229357242584,0.2944754660129547,-0.3875301480293274,-0.8735585808753967,-0.1430472433567047,0.08230859041213989,-0.0069651007652282715,0.6712521056766497,0.029248353907599695,0.24973035649647324,0.6972802674925089,0.3979508542813104,0.325135546048646,1.5427085302846537
1780949339400622848,0.6410658359527588,-0.028973041102290154,0.01444450207054615,-0.026661373674869537,0.29478371143341064,-0.3875109553337097,-0.8734631538391113,0.011093944311141968,0.03506344556808472,0.008778095245361328,0.6711432152940251,0.029094587998029366,0.24984383670869686,0.6973509707565985,0.39793004523698716,0.3254854836332933,1.5429033190368513
1780949339410658816,0.65110182762146,-0.05753091350197792,-0.023991836234927177,0.013842110522091389,0.2946491539478302,-0.3871503472328186,-0.8736684322357178,0.0685100257396698,0.0054364800453186035,0.04433798789978027,0.67115750644762,0.02900584482108615,0.24964865699020503,0.6974108577286098,0.39753890752749627,0.3252760110829407,1.5430779725614736
1780949339420693760,0.6611368656158447,-0.0817214697599411,0.007177135907113552,-0.0012790522305294871,0.29452288150787354,-0.3865947425365448,-0.8739569783210754,-0.007810235023498535,-0.0212726891040802,0.02314215898513794,0.6711542788617632,0.028831979798748856,0.2493796922855203,0.6975173880001614,0.39693639956066445,0.32504628042968103,1.543385546406986
1780949339430728960,0.6711719036102295,-0.1269315630197525,0.011143913492560387,0.007223888300359249,0.29458412528038025,-0.38569608330726624,-0.8743333220481873,-0.05276283621788025,-0.021332114934921265,0.013844430446624756,0.6711350310837219,0.028453550500593318,0.24904566518040205,0.697670743827403,0.3959621784462241,0.3249789193485187,1.5438136924941632
1780949339440764928,0.6812078952789307,-0.17396432161331177,-0.013883141800761223,-0.007699932903051376,0.2945442795753479,-0.3843843936920166,-0.8749241828918457,-0.0143623948097229,-0.01342746615409851,0.027801990509033203,0.6711503971700349,0.027962110834788792,0.24850762907667995,0.6978675978916794,0.39454090797367175,0.3247336749688994,1.5443649742444643
1780949339450799872,0.6912429332733154,-0.2091638594865799,-0.02103426307439804,-0.009176656603813171,0.2943981885910034,-0.38268569111824036,-0.8757176399230957,-0.009074091911315918,-0.016285866498947144,0.025528430938720703,0.671230049153691,0.027380467925696712,0.24777306735438157,0.6980752863705411,0.3927015313643421,0.3243097944781199,1.5449432894081292
1780949339460835072,0.7012779712677002,-0.26037031412124634,-0.0186492670327425,-0.0050604743883013725,0.29426056146621704,-0.3805898129940033,-0.8766767382621765,-0.02334079146385193,-0.023218750953674316,0.01923966407775879,0.6713072322035352,0.02664148534500821,0.24688430741636053,0.6983444431360699,0.3904340239025815,0.3238382325956691,1.545694267292775
1780949339470871040,0.7113139629364014,-0.26224517822265625,-0.023796625435352325,-0.00847544614225626,0.2940749526023865,-0.37828442454338074,-0.8777362108230591,-0.024970948696136475,-0.024913817644119263,0.014729619026184082,0.6713974570922658,0.02584366047280366,0.24589430970231083,0.6986369095187136,0.3879422900976854,0.3232839501532366,1.5465124179200413
1780949339480905984,0.7213490009307861,-0.25415661931037903,-0.03207932412624359,0.0036856126971542835,0.2938564419746399,-0.3759317100048065,-0.8788195252418518,-0.013811886310577393,-0.01852324604988098,0.018483221530914307,0.6714706558040132,0.025034291438744447,0.24487450338905015,0.6989541715411024,0.3854020173896978,0.3226889522079001,1.5474059010019632
1780949339490940928,0.7313840389251709,-0.15260523557662964,-0.026578295975923538,-0.007167567498981953,0.2935941815376282,-0.3741692006587982,-0.8796589374542236,-0.010650455951690674,-0.005622059106826782,0.008382081985473633,0.6715321727124842,0.024465614274311934,0.24407368136399818,0.6991952250870829,0.3835007357042737,0.32213369587483603,1.5480902125661908
1780949339500975872,0.7414188385009766,-0.07275460660457611,-0.005352238658815622,0.004830505698919296,0.2934870719909668,-0.37315115332603455,-0.8801270127296448,-0.01502940058708191,0.012067168951034546,0.008270323276519775,0.6715725972737526,0.024123688766274316,0.243627866374012,0.6993237998855688,0.3824031829338987,0.3218644501188459,1.5484521542767375
1780949339511011840,0.7514548301696777,-0.009677905589342117,0.013170046731829643,0.0042054615914821625,0.29348835349082947,-0.3728242814540863,-0.8802651166915894,-0.008133739233016968,0.031393617391586304,0.016999125480651855,0.6715518143506968,0.023989739282481975,0.24349934961827008,0.6993931715588594,0.38205088317488567,0.32181868101884,1.5486506193722194
1780949339521046784,0.7614898681640625,-0.019582200795412064,0.02643977850675583,0.008140549063682556,0.2936412990093231,-0.37275952100753784,-0.8802415132522583,-0.0003063380718231201,0.021227538585662842,0.005500912666320801,0.6715097089118672,0.02389667919482879,0.24353271824379166,0.699425168610049,0.3819811122710956,0.3219830909855782,1.5487381254695294
1780949339531081984,0.7715249061584473,-0.08572633564472198,0.02536759153008461,0.02091466635465622,0.29381027817726135,-0.3723578155040741,-0.8803551197052002,0.0007911324501037598,0.0023627281188964844,0.00852900743484497,0.6714279771654575,0.023654138326738117,0.24343974692478237,0.6995441827506251,0.38154823795550985,0.3221170806800338,1.5490759795671891
1780949339541117952,0.7815608978271484,-0.1873248666524887,0.020052054896950722,0.024664398282766342,0.2939334213733673,-0.3712277412414551,-0.880791187286377,0.0034298598766326904,-0.014499187469482422,0.004860401153564453,0.6713357885020143,0.023143046866649065,0.24304073792133146,0.6997884875168463,0.38033088685537036,0.3220941995860668,1.5497715545509851
1780949339551152896,0.7915959358215332,-0.2868967354297638,0.020307186990976334,0.030105767771601677,0.29398244619369507,-0.36920079588890076,-0.8816263675689697,0.005120337009429932,-0.018601328134536743,0.0042459964752197266,0.6712530079969192,0.022316112311728614,0.24225770035047933,0.7001661680473168,0.37814892443160225,0.3218597612598379,1.5508470161025698
1780949339561188096,0.801630973815918,-0.3757355213165283,0.017271049320697784,0.030453577637672424,0.29406359791755676,-0.3663598597049713,-0.8827837109565735,0.004871368408203125,-0.0072821080684661865,0.010301411151885986,0.6711466774059881,0.021158256604273444,0.24116484662432983,0.7006810210527518,0.3750938430956103,0.32154904990017724,1.5523134195084862
1780949339571223040,0.8116660118103027,-0.4514036476612091,0.023216554895043373,0.037016138434410095,0.2941335439682007,-0.36282041668891907,-0.8842210173606873,0.010355591773986816,-0.008563220500946045,0.011570870876312256,0.6710502218226418,0.019742376121310454,0.23979102946425987,0.7012859892337765,0.3712927872657959,0.3211328087139173,1.554037213378956
1780949339581259008,0.8217020034790039,-0.43922290205955505,0.012152053415775299,0.03819112479686737,0.2941417694091797,-0.3589189648628235,-0.8858091235160828,0.008378982543945312,-0.011335551738739014,0.011938273906707764,0.6709341510457869,0.01820671857814278,0.23825188560079766,0.7019628501723109,0.3671094260915565,0.320604117364461,1.5559749040718605
1780949339591293952,0.8317370414733887,-0.36112117767333984,0.027949659153819084,0.04981156066060066,0.29414770007133484,-0.35549798607826233,-0.8871855735778809,0.005412846803665161,0.0015856921672821045,-0.0032104849815368652,0.6707918943336496,0.016850660794186633,0.2369034742069736,0.7025887405870344,0.3634468182314036,0.3201460231998669,1.557775167236086
1780949339601328896,0.8417718410491943,-0.17404687404632568,0.03465123847126961,0.039603397250175476,0.29424330592155457,-0.35320645570755005,-0.8880687355995178,0.006125986576080322,0.03896695375442505,-0.013054311275482178,0.6706084940957082,0.01588250680828534,0.23603680774309602,0.7030779699784291,0.36099625180627654,0.3199459430225556,1.5591897582739307
1780949339611364864,0.8518078327178955,-0.043422285467386246,0.05674002692103386,0.02838030643761158,0.2945441007614136,-0.3523806631565094,-0.8882970213890076,0.0017358064651489258,0.0633944571018219,-0.036568641662597656,0.6704467808715147,0.015408417740674835,0.23582632677065352,0.7033133679708701,0.36011372345763437,0.3201743374664717,1.5598694654138325
1780949339621399808,0.8618428707122803,0.025133604183793068,0.052986834198236465,0.019252588972449303,0.29493895173072815,-0.3523963987827301,-0.8881598114967346,0.003507673740386963,0.08057636022567749,-0.02263730764389038,0.6702959158617227,0.015225056236205532,0.23598369756182394,0.7034083674854156,0.3601305386038895,0.3206209667123408,1.5601430046192883
1780949339631435008,0.871877908706665,-0.008684013970196247,0.04201593995094299,0.031067170202732086,0.2952602505683899,-0.35260388255119324,-0.8879706859588623,0.00805392861366272,0.05485913157463074,-0.025542497634887695,0.6701561314707691,0.015144102573303534,0.2361891700667992,0.7034743826756719,0.36035225698436313,0.32101052650344547,1.5603353722511104
1780949339641469952,0.8819129467010498,-0.11942490935325623,0.017998358234763145,0.04408283531665802,0.2953995168209076,-0.3521701395511627,-0.8880965113639832,0.004588276147842407,0.00607028603553772,-0.023890793323516846,0.6699998903200233,0.014877835854706327,0.23607288598312096,0.7036679417840849,0.3598887796917201,0.3211092791540185,1.5609021624450008
1780949339651505920,0.891948938369751,-0.2563188374042511,0.007415754720568657,0.05096044763922691,0.2953319251537323,-0.3506300449371338,-0.8887280821800232,-0.0054149627685546875,-0.03492903709411621,-0.013188421726226807,0.6698285969399761,0.01425934181301184,0.2354413269479274,0.7040552606533245,0.35824376860277996,0.3208279559652454,1.5620342305935455
1780949339661540864,0.9019839763641357,-0.3458271622657776,0.005859403405338526,0.05351495370268822,0.2951829731464386,-0.34806346893310547,-0.8897858262062073,-0.012559682130813599,-0.02899646759033203,-0.006912171840667725,0.6696613834372709,0.013282872250408907,0.23437287458608996,0.7045896926396166,0.3555046204462627,0.32032135898442593,1.56359192400704
1780949339671576064,0.9120190143585205,-0.3304135799407959,0.009659734554588795,0.05647532269358635,0.2950620949268341,-0.34512245655059814,-0.890970766544342,-0.015734732151031494,-0.008087962865829468,-0.003377377986907959,0.6694821338376772,0.012153222514700208,0.23316717246543117,0.7051801647925429,0.35236925971636796,0.31980159474405845,1.5653129190217763
1780949339681612032,0.9220550060272217,-0.3023606538772583,0.03082374297082424,0.06061547249555588,0.29501646757125854,-0.34247127175331116,-0.8920082449913025,-0.015322864055633545,0.0077544450759887695,-0.0037894845008850098,0.6692824880808954,0.01110242158986839,0.23210472518538802,0.7057373450923392,0.34954595832176444,0.3194083296906948,1.5669400507945854
1780949339691646976,0.9320900440216064,-0.2838625907897949,0.046532660722732544,0.07766662538051605,0.2951233983039856,-0.34005698561668396,-0.8928961157798767,-0.014575302600860596,0.02726706862449646,0.02209228277206421,0.6690064257715334,0.010064330074430845,0.23119398982841158,0.7063133108504897,0.34697749607414463,0.3192198246770943,1.56862658692507
1780949339701681920,0.9421248435974121,-0.31287747621536255,0.0698651522397995,0.08596557378768921,0.2953740358352661,-0.3376504182815552,-0.893726110458374,-0.014078259468078613,0.010257840156555176,0.022784948348999023,0.668664392988348,0.008958979344010569,0.23034035028964245,0.7069306982462216,0.3444196108111117,0.31919591264735064,1.5704378233212783
1780949339711716864,0.9521598815917969,-0.37161028385162354,0.07773852348327637,0.09807789325714111,0.29573461413383484,-0.33484911918640137,-0.8946602940559387,-0.011448115110397339,-0.011006593704223633,0.022284865379333496,0.6682654240475175,0.007650476505648495,0.22937155165495815,0.7076379579700095,0.3414451132557415,0.31924815131119205,1.5725155967407336
1780949339721752832,0.962195873260498,-0.4366505444049835,0.09062475711107254,0.11122831702232361,0.29614362120628357,-0.3315316438674927,-0.8957598209381104,-0.006440281867980957,-0.02729398012161255,0.016182243824005127,0.667810862509929,0.006116810824345601,0.22821626146784452,0.7084550206330005,0.33792658801108677,0.31929399637975997,1.5749215045190157
1780949339731788032,0.9722309112548828,-0.5017693638801575,0.0998145267367363,0.1263420283794403,0.29660147428512573,-0.32768481969833374,-0.8970229625701904,-0.00413629412651062,-0.03358227014541626,0.01427149772644043,0.6672932932825872,0.004352302336113611,0.22686907193933345,0.7093877709625158,0.3338520469647626,0.31933445497821866,1.5776761376121258
1780949339741822976,0.9822659492492676,-0.492053359746933,0.09615854173898697,0.1362399309873581,0.2970469892024994,-0.3235120475292206,-0.8983891606330872,0.0023457109928131104,-0.03004935383796692,0.015134155750274658,0.6667079549779921,0.002454837489277488,0.22538722973921135,0.710418971073518,0.32943878797518245,0.3193282175115435,1.5807331231143436
1780949339751858944,0.9923019409179688,-0.4126195013523102,0.11865932494401932,0.11880500614643097,0.29760292172431946,-0.3198193907737732,-0.8995265960693359,0.000187605619430542,-0.020543158054351807,0.0040798187255859375,0.6661419898055527,0.0007082903840508091,0.22413435394990555,0.7113495383476579,0.32553885135384336,0.3195084370129728,1.5835012672018003
1780949339761893888,1.0023369789123535,-0.36461976170539856,0.14090684056282043,0.16770809888839722,0.298328161239624,-0.31673476099967957,-0.9003773331642151,-0.004718571901321411,0.020378589630126953,0.023988842964172363,0.6654916976523406,-0.0008955319036725882,0.2231827008216697,0.7122566029640909,0.3222850275309649,0.3199526120699896,1.5862110890851502
1780949339771929088,1.0123720169067383,-0.36490577459335327,0.17960816621780396,0.17505016922950745,0.2992599308490753,-0.31401684880256653,-0.9010199308395386,-0.005192548036575317,0.02158215641975403,0.019229769706726074,0.6646875278770151,-0.002482237524671,0.22244971135354347,0.7132323561172778,0.319420934942086,0.3206713346998891,1.589138194118224
1780949339781964032,1.022407054901123,-0.47471216320991516,0.17952346801757812,0.17182375490665436,0.30034956336021423,-0.31077611446380615,-0.9017806649208069,-0.012233108282089233,-0.04696619510650635,0.027543604373931885,0.6638605079112117,-0.004321338772890142,0.22156489123958115,0.7142684927208139,0.31600946566189153,0.32150702115509483,1.5922568595275093
1780949339792000000,1.0324430465698242,-0.5835949778556824,0.18104426562786102,0.19495144486427307,0.3014117181301117,-0.30651479959487915,-0.9028840661048889,-0.009373754262924194,-0.07434457540512085,0.059301912784576416,0.6629912727795261,-0.006533095052775714,0.220261845298925,0.715461113158331,0.31152942308907017,0.3221994030909105,1.5958598042889593
1780949339802034944,1.0424778461456299,-0.6220529079437256,0.1925623118877411,0.19701460003852844,0.3024778366088867,-0.3016166388988495,-0.9041761755943298,-0.0011320114135742188,-0.05649188160896301,0.058549344539642334,0.662056280788583,-0.008991828686292941,0.2187031300279265,0.7167772182629956,0.30638781532790743,0.32283092881983483,1.5998543450679732
1780949339812069888,1.0525128841400146,-0.6520547270774841,0.22337454557418823,0.21225160360336304,0.3037552833557129,-0.2964448034763336,-0.9054574966430664,-0.004332035779953003,-0.026599019765853882,0.052094459533691406,0.6573470372013905,-0.012755607802678096,0.21704505722625414,0.7215426153707997,0.3009679588623062,0.3236737701436491,1.6143396352334447
1780949339822105856,1.0625488758087158,-0.6877586841583252,0.24448809027671814,0.22650936245918274,0.30524399876594543,-0.2910400331020355,-0.9067093133926392,-0.006461620330810547,-0.008291631937026978,0.05424654483795166,0.652871127144758,-0.016574878221098564,0.21533836347400623,0.7260260936903851,0.2953137399401613,0.3247328696633133,1.6280834434003388
1780949339832140800,1.0725839138031006,-0.6510224938392639,0.23699341714382172,0.2199966013431549,0.3067914545536041,-0.2855464518070221,-0.9079329371452332,-0.008756786584854126,-0.030615657567977905,0.041721999645233154,0.6487474976856527,-0.02031036480923368,0.21359076095512194,0.7301323549848684,0.2895765737835895,0.3258558058939434,1.6407761998188861
1780949339842176000,1.0826189517974854,-0.5390639901161194,0.24365238845348358,0.1963954120874405,0.30838313698768616,-0.2807719111442566,-0.9088822603225708,-0.01022636890411377,-0.03505450487136841,0.005302548408508301,0.6448828758119521,-0.02370421499291708,0.212124910921327,0.733871334644958,0.28459826434158303,0.32711029673375325,1.6524249092571526
1780949339852211968,1.0926549434661865,-0.4164946675300598,0.2525593340396881,0.199944868683815,0.310110479593277,-0.27699846029281616,-0.9094521999359131,-0.0034088194370269775,0.03247636556625366,0.005857229232788086,0.641417621567653,-0.026661728543498468,0.2110996102825011,0.7370952812405834,0.28066891199856275,0.32862208612292365,1.6625509180060893
1780949339862246912,1.1026899814605713,-0.32806867361068726,0.25177156925201416,0.16524867713451385,0.3119061291217804,-0.2742520570755005,-0.9096704721450806,0.007338225841522217,0.07532322406768799,-0.006802916526794434,0.638091818347039,-0.02923444498646592,0.2104996711290412,0.7400500091142908,0.2778118412296724,0.3303161620753045,1.6718955682475793
1780949339872282112,1.112725019454956,-0.3916178047657013,0.23759342730045319,0.1545044183731079,0.3137151598930359,-0.27152782678604126,-0.9098656177520752,0.0005548596382141113,0.05936962366104126,-0.018936872482299805,0.6352100272263673,-0.03166965521887647,0.20991480281316577,0.7425908023366605,0.27498015604369147,0.3320284276990891,1.679995757262418
1780949339882317056,1.1227600574493408,-0.5427058935165405,0.2115040421485901,0.15496940910816193,0.31533190608024597,-0.26780271530151367,-0.9104106426239014,-0.0027403533458709717,0.017146587371826172,-0.006535768508911133,0.6324972224926746,-0.03431973801764328,0.208846464483884,0.7450856009968899,0.27111171382122934,0.3334304248784685,1.687996327011157
1780949339892353024,1.132796049118042,-0.7424919605255127,0.2075236737728119,0.1696053445339203,0.31680771708488464,-0.2624719440937042,-0.9114501476287842,-0.012715309858322144,-0.028528422117233276,0.01006770133972168,0.6298869643756391,-0.037422311559741225,0.207061587351304,0.7476413358190725,0.2655830813896475,0.3345230525029125,1.6962479642436687
1780949339902387968,1.1428308486938477,-0.9451430439949036,0.20703059434890747,0.17214706540107727,0.31827065348625183,-0.2552652060985565,-0.9129860401153564,-0.02138039469718933,-0.05111601948738098,0.026221513748168945,0.6270586404513235,-0.04119444225888608,0.20447496782870697,0.7505267314653864,0.2581219766198431,0.3354306996537209,1.705632718028158
1780949339912422912,1.1528658866882324,-1.0871094465255737,0.21162614226341248,0.1729811578989029,0.31975415349006653,-0.24647709727287292,-0.9148804545402527,-0.02736523747444153,-0.058408766984939575,0.03006911277770996,0.6243737943001204,-0.04543675583888787,0.20123434051874128,0.7533906504774146,0.2490435212820704,0.33623264965488614,1.7150552932542609
1780949339922458880,1.1629018783569336,-1.1372288465499878,0.22574728727340698,0.1792134940624237,0.3213428854942322,-0.2366768717765808,-0.916909396648407,-0.030861318111419678,-0.050218865275382996,0.021691501140594482,0.6218948446890192,-0.04996702529141388,0.19760719413453234,0.7561094900593958,0.2389441209678281,0.3370872905993253,1.7241324817571517
1780949339932493824,1.1729369163513184,-0.9439595341682434,0.23499272763729095,0.1640009880065918,0.3230517506599426,-0.22761240601539612,-0.9186022877693176,-0.03250914812088013,-0.031085103750228882,-0.002433478832244873,0.6195618099904717,-0.05422738190381084,0.1943148129756076,0.7585804625216901,0.229625029803298,0.3381684524912721,1.7324957550322846
1780949339942529024,1.1829719543457031,-0.729095458984375,0.27693310379981995,0.18888342380523682,0.3250106871128082,-0.22047170996665955,-0.9196522235870361,-0.029798895120620728,0.030743956565856934,0.010274231433868408,0.6172032929878123,-0.05793085841124207,0.19187988261061095,0.7608456552048524,0.2222980611291724,0.33970593851671815,1.7402397009775252
1780949339952564992,1.1930079460144043,-0.5392698645591736,0.3435819149017334,0.22040912508964539,0.3274192810058594,-0.21533265709877014,-0.9200154542922974,-0.017192840576171875,0.09347596764564514,0.025499463081359863,0.6149074790140541,-0.061120746992113346,0.19041146350613986,0.7628213604529445,0.21703246272409232,0.34190753275408214,1.7470866590568221
1780949339962599936,1.203042984008789,-0.4807751178741455,0.3865160644054413,0.22076067328453064,0.330346018075943,-0.21145276725292206,-0.9198691248893738,-0.013771921396255493,0.05828504264354706,0.02121800184249878,0.6126442597131259,-0.06408496342694615,0.18962740096264324,0.7645923914338755,0.21306109700932005,0.34477885340634556,1.7533296067597086
1780949339972635136,1.2130780220031738,-0.5520977973937988,0.3964989483356476,0.22131380438804626,0.33348995447158813,-0.20749050378799438,-0.9196369647979736,-0.010064661502838135,-0.0029892325401306152,0.015950441360473633,0.6103038159066989,-0.06717407994920539,0.18886280907322053,0.7663861767628735,0.20900892711847546,0.3478838123509645,1.7597257721284338
1780949339982670080,1.2231130599975586,-0.7016283869743347,0.4055410325527191,0.23796361684799194,0.3367129862308502,-0.20249037444591522,-0.9195771217346191,0.0029934346675872803,-0.021996930241584778,0.00852060317993164,0.6079301258921342,-0.07063017690222025,0.18767746776091457,0.7682509931054536,0.20390031393223318,0.3509987060829099,1.7664665792488239
1780949339992706048,1.2331490516662598,-0.8525542616844177,0.410223126411438,0.2524847686290741,0.3400116264820099,-0.1961199790239334,-0.9197440147399902,0.010528534650802612,-0.03259401023387909,0.016561031341552734,0.6054875889752356,-0.07456176885945268,0.1859261454479908,0.770231717765307,0.1973994782650767,0.35409904975895173,1.7737331402418381
1780949340002740736,1.2431838512420654,-0.9483071565628052,0.4141745865345001,0.2456710785627365,0.3433181345462799,-0.18863257765769958,-0.9200817346572876,0.007893413305282593,-0.050533682107925415,0.021949410438537598,0.6029924667686826,-0.07885037131642268,0.18368928065775827,0.7722958283259929,0.18976953311824293,0.35713787495932453,1.781419925288741
1780949340012775936,1.2532188892364502,-0.9953631162643433,0.4505067467689514,0.2579876780509949,0.3468332290649414,-0.18051081895828247,-0.920392632484436,-0.0018625259399414062,-0.05267399549484253,0.030240654945373535,0.6004077453538246,-0.08342571825097385,0.18122870239742017,0.7744074329445424,0.18150577140015445,0.36037568337167786,1.7894303795771325
1780949340022811904,1.2632548809051514,-1.0059152841567993,0.48546475172042847,0.2550022602081299,0.35070621967315674,-0.17213362455368042,-0.920529842376709,0.0002764463424682617,-0.03814774751663208,0.046658992767333984,0.5977439954812289,-0.08822298711971419,0.17875062402206304,0.7765095916523731,0.1729952175055569,0.36400569159163465,1.7975927641190335
1780949340032846848,1.2732899188995361,-0.809567391872406,0.5109440088272095,0.2019060254096985,0.3549038767814636,-0.16447974741458893,-0.9203203916549683,0.006805717945098877,-0.03995750844478607,0.04876887798309326,0.5951779962738772,-0.09288360300829888,0.17667039788367453,0.7784108386955572,0.16523055644097112,0.3680580730343885,1.8052019607290157
1780949340042882048,1.283324956893921,-0.6582276821136475,0.5737119317054749,0.17726272344589233,0.359603613615036,-0.15841038525104523,-0.919560432434082,0.00819423794746399,-0.012518569827079773,0.05121326446533203,0.5930373396207812,-0.09714483527957848,0.17544988329061065,0.7797993590906442,0.15908049983389205,0.37277610386412074,1.8111581986855745
1780949340052918784,1.2933616638183594,-0.4954315721988678,0.6438859701156616,0.19764842092990875,0.36491158604621887,-0.15375974774360657,-0.9182578325271606,-0.00045540928840637207,0.07392576336860657,0.10778725147247314,0.590903156699651,-0.10120597498504523,0.1750098028161552,0.7810008245300133,0.15437214447947467,0.3782591572211538,1.8165662661192572
1780949340062953728,1.3033967018127441,-0.40366730093955994,0.7325697541236877,0.19132500886917114,0.3709516227245331,-0.15046730637550354,-0.9163811802864075,-0.012629479169845581,0.07182350754737854,0.10221797227859497,0.5887958966814653,-0.10513895805718107,0.17537161330018178,0.7819910877710505,0.15104094044039523,0.38463793625804593,1.8213614055520142
1780949340072988672,1.313431739807129,-0.5314582586288452,0.8210849761962891,0.2130686640739441,0.3777930438518524,-0.14704398810863495,-0.9141392111778259,-0.030640333890914917,0.0028026551008224487,0.09335368871688843,0.5867335011023486,-0.10943290947276843,0.17593988201662922,0.7828239330036603,0.14757911173176733,0.3918997325537354,1.8258739347907964
1780949340083023872,1.3234667778015137,-0.8379383087158203,0.8866708874702454,0.23272785544395447,0.3852977454662323,-0.14174149930477142,-0.9118415117263794,-0.023298263549804688,-0.07037091255187988,0.09993666410446167,0.5843582842150263,-0.11465074473047346,0.17588190254580446,0.7838661045931098,0.14222045478816045,0.3997928295824756,1.8315247481229102
1780949340093059840,1.3335027694702148,-1.242643117904663,0.9359428286552429,0.2613818645477295,0.39327317476272583,-0.13322588801383972,-0.9097181558609009,-0.00219041109085083,-0.12109234929084778,0.08540785312652588,0.5816334935893944,-0.12112525477681554,0.17455545980642617,0.7852143508343209,0.13362318284219138,0.40803941257176624,1.8388203627811344
1780949340103094784,1.3435378074645996,-1.6699877977371216,0.986738383769989,0.2991308271884918,0.40168413519859314,-0.12108420580625534,-0.9077381491661072,0.01843610405921936,-0.15242959558963776,0.05388683080673218,0.5784405044981411,-0.1289807894334252,0.17174077533395166,0.7869407561432639,0.12138205169703371,0.41660866091606086,1.848178049584553
1780949340113129728,1.3535726070404053,-2.0919971466064453,1.0404562950134277,0.3011753559112549,0.4105444550514221,-0.10519149154424667,-0.9057527184486389,0.024331003427505493,-0.16586562991142273,0.02509176731109619,0.5749138605849995,-0.13821265426129417,0.1673944277423642,0.7888919407372329,0.10538645604390458,0.425564351993895,1.8592652678246786
1780949340123165696,1.3636085987091064,-2.449411630630493,1.0883718729019165,0.31165194511413574,0.41999945044517517,-0.08566214144229889,-0.9034724235534668,0.01788201928138733,-0.1472022384405136,0.019759654998779297,0.5709044077597341,-0.14885817480782518,0.1615704982181085,0.7910779626982253,0.08576725717699898,0.43515281023293323,1.87236450115562
1780949340133200640,1.3736436367034912,-2.1551084518432617,1.0415689945220947,0.31891360878944397,0.4293767213821411,-0.06594385206699371,-0.9007146954536438,0.011617541313171387,-0.09729467332363129,0.012424349784851074,0.566755942127185,-0.15951990079611675,0.15555076110097343,0.7931865811548899,0.06599173703699518,0.4448399128887518,1.8858395884389667
1780949340143235584,1.383678674697876,-1.8817775249481201,1.1314587593078613,0.3709975779056549,0.43895629048347473,-0.0492999367415905,-0.8971548676490784,0.0028009116649627686,0.024443369358778,-0.01121610403060913,0.5627659661153616,-0.1692975458945853,0.1508671709414922,0.7949036486786838,0.049319927663067024,0.4550316115198962,1.8980649938556449
1780949340153271552,1.3937146663665771,-1.6801152229309082,1.2256104946136475,0.44935789704322815,0.4493943452835083,-0.03518231585621834,-0.8926404118537903,-0.0173875093460083,0.21474774181842804,0.019990265369415283,0.5585289818861041,-0.17873394227795625,0.14742443501965624,0.7964707121940021,0.03518957802211749,0.4663988976043579,1.910098237003718
1780949340163306752,1.403749704360962,-1.6712455749511719,1.2615326642990112,0.49686336517333984,0.46038737893104553,-0.02259197272360325,-0.8874306082725525,-0.03431621193885803,0.1815580278635025,-0.03507000207901001,0.5541076639557346,-0.18799894145834142,0.14471036284208488,0.7979224042988199,0.022593894991483038,0.47856391983756,1.9221139957391278
1780949340173341696,1.4137847423553467,-2.0418694019317627,1.2895445823669434,0.5641201734542847,0.4716401994228363,-0.008783960714936256,-0.881747305393219,-0.055700868368148804,0.012278230860829353,-0.0814637541770935,0.5491985780742481,-0.19783115577514626,0.1413830842346469,0.7995339063795929,0.008784073329919342,0.49117058816446263,1.9356333898790132
1780949340183376896,1.4238197803497314,-2.648672342300415,1.2447115182876587,0.546755313873291,0.4828347861766815,0.009159044362604618,-0.8756635785102844,-0.05496308207511902,-0.09497447311878204,-0.10359972715377808,0.5436359695230388,-0.20895963125617684,0.1360297257120715,0.8014310768278394,-0.009159172402843205,0.5039120846047737,1.9518808082957166
1780949340193412864,1.4338557720184326,-3.223707675933838,1.2284518480300903,0.6290826797485352,0.4937385320663452,0.03215368837118149,-0.8690157532691956,-0.033975958824157715,-0.12483558058738708,-0.09501928091049194,0.5372810531311492,-0.22154095267000798,0.12810828665005658,0.8036397520838725,-0.03215923225771865,0.5166773892757184,1.9714672470372592
1780949340203447808,1.4438908100128174,-3.4969866275787354,1.2530598640441895,0.7311224937438965,0.5048191547393799,0.05808980390429497,-0.8612684011459351,0.0005824565887451172,-0.06332357227802277,-0.08152639865875244,0.5298285361348795,-0.2351888129913761,0.11854126549706723,0.806173632389921,-0.05812252347690137,0.5301619053728422,1.9945156405989592
1780949340213482496,1.453925609588623,-3.4171206951141357,1.2798500061035156,0.7610846757888794,0.5162723660469055,0.08418779075145721,-0.8522765040397644,-0.04144936800003052,0.005411818623542786,-0.059237778186798096,0.5218317368950491,-0.24909260738212355,0.10869504065023951,0.8085974524559888,-0.08428755651775478,0.5446417276236605,2.01893882117626
1780949340223518720,1.4639616012573242,-2.730882167816162,1.3151507377624512,0.7405399680137634,0.5280004739761353,0.10667049139738083,-0.842518150806427,-0.07551640272140503,0.02164066582918167,-0.06089365482330322,0.5141811965958101,-0.2620226391412818,0.10042436309985597,0.8104792989703444,-0.10687382971088315,0.559816040393569,2.0416570670012084
1780949340233553664,1.473996639251709,-2.0902514457702637,1.3776237964630127,0.7591147422790527,0.5402054786682129,0.12270820885896683,-0.8325387239456177,-0.08616495132446289,0.056262142956256866,-0.046672701835632324,0.5073201859670967,-0.27325480844578903,0.09519687931764298,0.8117238365890462,-0.12301825617313156,0.5755771172714764,2.0608628922810097
1780949340243588608,1.4840316772460938,-1.6838010549545288,1.3977166414260864,0.8487282395362854,0.55278080701828,0.1338988095521927,-0.8224989175796509,-0.08961552381515503,0.16657724976539612,0.04692518711090088,0.5007639322248165,-0.28329119584692164,0.09217718500960267,0.8127022700354143,-0.13430218389651513,0.5917373658003251,2.078134975236208
1780949340253624576,1.494067668914795,-1.5170701742172241,1.417833924293518,0.9019357562065125,0.565579354763031,0.14189943671226501,-0.8123943209648132,-0.0742921233177185,0.14093747735023499,0.028580844402313232,0.49424022306354226,-0.2925855651807075,0.09053468309692078,0.8135869127534285,-0.14238001221136393,0.6081631258859306,2.0945344917435293
1780949340263659776,1.5041027069091797,-1.6941179037094116,1.3613799810409546,0.9770907163619995,0.5782383680343628,0.14935190975666046,-0.802081286907196,-0.04868209362030029,0.04341237246990204,-0.023968517780303955,0.48740026013774396,-0.3017592314136844,0.08888603846467215,0.8145438225581563,-0.14991279759937437,0.6246302960592329,2.111634937662864
1780949340273694720,1.5141377449035645,-2.202780246734619,1.30255925655365,1.047742486000061,0.5904591679573059,0.15883025527000427,-0.7912843823432922,0.0018259882926940918,-0.0025039613246917725,-0.037969768047332764,0.4796820202913412,-0.31144745824394576,0.08578043466205161,0.8158109238418699,-0.15950576071782616,0.641066882170623,2.1315742915400535
1780949340283730688,1.5241737365722656,-2.686533212661743,1.2105581760406494,1.080383539199829,0.60213702917099,0.17184947431087494,-0.7796785831451416,0.04225689172744751,-0.01590465009212494,-0.0231168270111084,0.47095109542675145,-0.3220150439715594,0.0804177150486738,0.817339807293533,-0.17270676861902884,0.657614001630489,2.155177528971681
1780949340293765888,1.5342087745666504,-2.907567024230957,1.12099289894104,1.1211631298065186,0.6131603717803955,0.1869640350341797,-0.7675147652626038,0.05239748954772949,-0.04600335657596588,-0.03305286169052124,0.46141345827609404,-0.3329427293631701,0.07342859223834998,0.8190575043225906,-0.18807077066746666,0.6740641404185472,2.1815988238309623
1780949340303800576,1.544243574142456,-2.8037617206573486,1.0364181995391846,1.1222646236419678,0.6235958337783813,0.20196019113063812,-0.7552087306976318,0.05024749040603638,-0.03580726683139801,-0.02961176633834839,0.45160349714839104,-0.34356763106290705,0.0660068483650829,0.820767090607896,-0.2033589409278706,0.6902321488332026,2.2088948918409215
1780949340313835520,1.5542786121368408,-2.6481597423553467,0.9384317398071289,1.1484839916229248,0.6334012746810913,0.21526803076267242,-0.7432782649993896,0.06407797336578369,0.049563512206077576,0.0073163509368896484,0.44207042953470743,-0.3533705348447364,0.05907742814147851,0.8223217219665281,-0.21696627958084203,0.7057539775145042,2.23524360048861
1780949340323871488,1.564314603805542,-2.4562902450561523,0.8107715249061584,1.161088466644287,0.6424249410629272,0.22681787610054016,-0.7320135235786438,0.08958488702774048,0.14136144518852234,0.051807284355163574,0.4325856547471268,-0.36225901451572096,0.05255132392880926,0.8239395602123466,-0.2288091551123486,0.7203083026412014,2.2611541910504114
1780949340333906688,1.5743496417999268,-2.343919515609741,0.7366189956665039,1.1764410734176636,0.6507492065429688,0.23665575683116913,-0.721470296382904,0.07306665182113647,0.13155408203601837,0.032551348209381104,0.4233917556218145,-0.3702655906788671,0.04656431098009641,0.8255146527149637,-0.2389223795564327,0.7339059895265805,2.2859988782425673
1780949340343941632,1.5843846797943115,-2.4090540409088135,0.6766539812088013,1.2362282276153564,0.6587574481964111,0.2457434982061386,-0.7110899090766907,0.04088860750198364,0.0734245777130127,0.042434513568878174,0.4138896863601849,-0.3779035842328689,0.04054535810541778,0.8271882512763835,-0.24828664312351573,0.7472135785180031,2.311484011483943
1780949340353977600,1.5944206714630127,-2.637394666671753,0.5820686221122742,1.2645893096923828,0.6663632392883301,0.255231112241745,-0.7005833387374878,0.037112653255462646,0.010363340377807617,0.06799972057342529,0.40382208042920664,-0.3854409455291304,0.03381718358699177,0.8289869361729694,-0.2580867348162184,0.7603694336927106,2.338621675049863
1780949340364012800,1.6044557094573975,-2.803550958633423,0.4687093496322632,1.273794174194336,0.6733564138412476,0.26576176285743713,-0.6898998618125916,0.05097830295562744,-0.029494673013687134,0.07092708349227905,0.3932531302264365,-0.39290247881929874,0.026032858840412666,0.8308441224160702,-0.2689940160414872,0.773263529660267,2.367510752764308
1780949340374047744,1.6144907474517822,-2.7572615146636963,0.3271135985851288,1.292540192604065,0.6795881390571594,0.27625298500061035,-0.6795912384986877,0.0637742280960083,-0.04965999722480774,0.049265921115875244,0.3823594317999852,-0.39986259552953896,0.01772851204356881,0.8328245928155766,-0.27989318099465954,0.7853959010596593,2.397347980911246
1780949340384083712,1.6245267391204834,-2.4877684116363525,0.17105542123317719,1.2776576280593872,0.6849099397659302,0.28528937697410583,-0.6704538464546204,0.07029330730438232,-0.026607125997543335,0.016614794731140137,0.37169956111636926,-0.4058038742184889,0.009812413035442344,0.8349050420062822,-0.28930833985152576,0.7960635861497014,2.4262325909540134
1780949340394118912,1.6345617771148682,-2.0818049907684326,0.034209419041872025,1.3210312128067017,0.6892854571342468,0.29166704416275024,-0.6631861925125122,0.06623822450637817,0.015644967555999756,-0.018561244010925293,0.36167709284179095,-0.4103624649873024,0.0030881593497263113,0.8371277327086997,-0.29596919264507754,0.8046931871003413,2.4526578681160958
1780949340404153600,1.6445965766906738,-1.6952340602874756,-0.04665707051753998,1.2909526824951172,0.6931297183036804,0.294969767332077,-0.6576960682868958,0.02052384614944458,0.06309294700622559,-0.013431251049041748,0.3524212156162023,-0.41370027775193285,-0.0020110412934274628,0.8394328323340099,-0.2994238889585673,0.8116232541824797,2.476060958754274
1780949340414189824,1.654632806777954,-1.6173847913742065,-0.1548306792974472,1.2756352424621582,0.6962289214134216,0.2969156503677368,-0.6535337567329407,-0.04252713918685913,0.10669457912445068,0.032867252826690674,0.3437953371521124,-0.41616370531541613,-0.006394512912851367,0.8417669450139104,-0.3014610257401392,0.817019205672515,2.4974020142445275
1780949340424224512,1.6646676063537598,-1.5222598314285278,-0.24585072696208954,1.3040200471878052,0.6987390518188477,0.29813966155052185,-0.6502895951271057,-0.044899940490722656,0.12097349762916565,0.05284690856933594,0.3352117728137511,-0.4180227178791521,-0.01059350786779031,0.8442617699846915,-0.3027430843015035,0.8212970884911879,2.518312523816997
1780949340434259712,1.6747026443481445,-1.5912128686904907,-0.3015691339969635,1.3103612661361694,0.7008302211761475,0.2989678382873535,-0.6476536989212036,-0.03946852684020996,0.056027889251708984,0.011499524116516113,0.32657678793339295,-0.4194704568548521,-0.014754004037632223,0.846861590705471,-0.30361082707614867,0.8248120240974098,2.5391333220390115
1780949340444295680,1.6847386360168457,-1.7638072967529297,-0.4407215416431427,1.3017734289169312,0.702390730381012,0.30068808794021606,-0.6451618671417236,-0.02779972553253174,0.016908317804336548,0.05246478319168091,0.3175214249745422,-0.42074990323932776,-0.01971236284141496,0.8495651941000162,-0.30541405273457994,0.8278414029594265,2.5612671489802095
1780949340454330624,1.6947736740112305,-1.5792962312698364,-0.59735506772995,1.254873514175415,0.7029362320899963,0.3025238513946533,-0.6437079906463623,0.010030686855316162,-0.01112675666809082,0.006561994552612305,0.3084616480599558,-0.4213334662327913,-0.024982357097652792,0.8524702097762015,-0.307339484070829,0.8293519604954982,2.583373466042265
1780949340464365824,1.7048087120056152,-1.4799842834472656,-0.7423310875892639,1.1651002168655396,0.7022848725318909,0.30383917689323425,-0.6437994241714478,0.03251737356185913,-0.020132511854171753,-0.07105958461761475,0.3000297351092367,-0.42095533926807716,-0.029947919344515895,0.8555009452787596,-0.30871977389103117,0.8288193956821759,2.603661190034161
1780949340474400768,1.71484375,-1.219620943069458,-0.8922041654586792,1.2159188985824585,0.7005993127822876,0.30440211296081543,-0.6453680992126465,0.020088553428649902,0.05332493782043457,0.039823055267333984,0.29195231797175725,-0.41966842370089846,-0.03455949101836443,0.8587479225161083,-0.30931069988952037,0.8264097399772448,2.6226571960382783
1780949340484436736,1.7248797416687012,-0.7963064312934875,-1.0331627130508423,1.1933244466781616,0.698016881942749,0.3023569881916046,-0.6491168737411499,0.05860543251037598,0.11524555087089539,0.0569080114364624,0.28450399193629344,-0.4171589050125642,-0.03768284621723882,0.8623317216111204,-0.30716439815586255,0.8216815016891524,2.6389030851033923
1780949340494471680,1.734914779663086,-0.5365965962409973,-1.1536153554916382,1.059192180633545,0.6942799687385559,0.2988307476043701,-0.6547331809997559,0.06328839063644409,0.1766636073589325,0.05326223373413086,0.27811599135666637,-0.41358988838677746,-0.03970899689386445,0.8660358983024279,-0.30346719039273673,0.8147051008831487,2.651890553228054
1780949340504506624,1.7449495792388916,-0.28322529792785645,-1.2633378505706787,1.0873769521713257,0.6894087791442871,0.2941156327724457,-0.6619754433631897,0.027357518672943115,0.26426446437835693,0.0881686806678772,0.27253009991049565,-0.40907208984131105,-0.04089391767981649,0.8698936844656817,-0.2985300975571773,0.8056955844851845,2.662379592053193
1780949340514542848,1.7549858093261719,-0.20198743045330048,-1.2079113721847534,1.0431396961212158,0.6842443346977234,0.28809022903442383,-0.6699356436729431,-0.01615351438522339,0.26859617233276367,0.037397801876068115,0.26735387553305295,-0.40414750853287096,-0.04119429816360407,0.8737790129042238,-0.29223191685736405,0.7959640684809243,2.6713187363069513
1780949340524577536,1.7650206089019775,-0.7735670208930969,-1.2524006366729736,1.1117550134658813,0.6791018843650818,0.28416213393211365,-0.6768105626106262,-0.04583162069320679,0.13354721665382385,0.08254176378250122,0.2615604903107626,-0.3997062864634123,-0.042773846190188015,0.8774915771312158,-0.28813241340181645,0.7870880479711707,2.6825313793350616
1780949340534612736,1.7750556468963623,-0.8296329975128174,-1.2721405029296875,0.9660878777503967,0.6733906269073486,0.2825475037097931,-0.6831632256507874,-0.010167360305786133,-0.15327507257461548,0.08501869440078735,0.25509775596562045,-0.3953665870666497,-0.04586564112929793,0.8811962266424738,-0.2864488047399046,0.7781943244679009,2.6961344428249303
1780949340544648704,1.7850916385650635,-1.080366849899292,-1.1650699377059937,0.9744573831558228,0.667745053768158,0.282684862613678,-0.6886260509490967,0.007807314395904541,-0.3293004631996155,-0.15454411506652832,0.24890172412265704,-0.39143600153473435,-0.04964697042950165,0.8845117749660556,-0.28659197445258433,0.770004626828986,2.709782193179721
1780949340554683648,1.7951266765594482,-1.3341925144195557,-1.065139889717102,1.0349475145339966,0.6628376245498657,0.284373015165329,-0.6926603317260742,0.004536032676696777,-0.23952743411064148,-0.15798664093017578,0.24180178510215902,-0.3882096715393841,-0.054434263916695154,0.887615971089755,-0.2883523917694199,0.7634004106420308,2.7260834633705975
1780949340564718848,1.805161714553833,-1.1523760557174683,-0.8324413895606995,1.0388128757476807,0.6591672897338867,0.28630751371383667,-0.6953607201576233,-0.03641033172607422,-0.14688798785209656,-0.08436340093612671,0.23460121812605927,-0.38577504527923845,-0.059137572875683726,0.8903048605062684,-0.29037080622274736,0.7586842006041853,2.7427378703924417
1780949340574754816,1.8151977062225342,-0.8616045117378235,-0.5466770529747009,1.0285780429840088,0.6573132872581482,0.2866221070289612,-0.6969842314720154,-0.03777593374252319,0.04180806875228882,-0.14427858591079712,0.22795556635440037,-0.3841985942204139,-0.06244462348684507,0.8924843427168607,-0.2906991525116906,0.7561138905376242,2.757595641695174
1780949340584789760,1.825232744216919,-0.26267820596694946,-0.3259797692298889,1.0148550271987915,0.6572253108024597,0.283823698759079,-0.6982112526893616,0.003419160842895508,0.23021435737609863,-0.20298802852630615,0.2223036764476725,-0.38323862141226184,-0.06342338666486969,0.8942520246955236,-0.2877794494224753,0.7551691882188558,2.769092602201258
1780949340594824704,1.8352677822113037,0.1789521872997284,-0.15000902116298676,1.01069974899292,0.6584059000015259,0.2774006426334381,-0.6996788382530212,0.022898972034454346,0.3549540638923645,-0.12962102890014648,0.21775925438277738,-0.3825386726226658,-0.06184447378660142,0.8957791281073346,-0.2810875178286979,0.7550169620032136,2.776735201455127
1780949340604859648,1.8453025817871094,0.5051526427268982,-0.04830889031291008,1.0579020977020264,0.6605769991874695,0.268036425113678,-0.7012806534767151,-0.013055086135864258,0.33026066422462463,0.04568678140640259,0.2138479271321178,-0.38204583640119383,-0.05831520340335135,0.8971674612878998,-0.2713542997368603,0.7555187537682954,2.781844953587049
1780949340614895872,1.8553388118743896,0.5272603631019592,0.03906329721212387,1.1011630296707153,0.663364589214325,0.2571035325527191,-0.7027411460876465,-0.07825112342834473,0.090171217918396,0.11054760217666626,0.21013970033948848,-0.38175352547331715,-0.05379288541187699,0.8984496519575731,-0.2600237889737181,0.7565822092632815,2.7859050422250227
1780949340624930560,1.8653736114501953,0.35511869192123413,0.08892512321472168,1.1154996156692505,0.6666814088821411,0.2465362250804901,-0.7033888101577759,-0.1487218141555786,-0.1772308051586151,0.06924879550933838,0.20607401324366525,-0.38190454576388844,-0.049543066930210676,0.8995710034560869,-0.24910451920354396,0.7586122433910834,2.790932264653138
1780949340634965760,1.87540864944458,0.11620572209358215,-0.00926455482840538,1.1004791259765625,0.6697315573692322,0.2374407798051834,-0.7036202549934387,-0.11833995580673218,-0.3331133723258972,0.034140944480895996,0.2015604243409054,-0.3821610302954647,-0.04629047396776915,0.9006572982975318,-0.23973044141806332,0.7607272716746828,2.797502684983524
1780949340645001728,1.8854446411132812,0.02652217634022236,-0.13660679757595062,1.0956015586853027,0.6718068718910217,0.22966861724853516,-0.7042214870452881,0.0055612921714782715,-0.25339603424072266,0.043241262435913086,0.1966843848900114,-0.38203703427930996,-0.04401100948597606,0.9019013332737543,-0.23173718202938381,0.7618458775584881,2.8053180345025486
1780949340655036672,1.895479679107666,0.12802855670452118,-0.23279058933258057,1.0672130584716797,0.672971248626709,0.22178806364536285,-0.7056342959403992,0.056429386138916016,-0.06450046598911285,0.07199782133102417,0.19185115436288305,-0.3813638952998574,-0.04176636082887679,0.9033329040530601,-0.2236478216970858,0.7617097850166752,2.812912901066567
1780949340665071616,1.9055147171020508,0.11029670387506485,-0.29907694458961487,0.9832873344421387,0.6733488440513611,0.21395829319953918,-0.707688570022583,0.08859878778457642,0.04486130177974701,0.012894868850708008,0.18746728331329462,-0.38026261363284314,-0.03944687719034726,0.9048205324591314,-0.21562529713600317,0.7605381134155547,2.819471517523031
1780949340675107840,1.915550708770752,0.17081809043884277,-0.3593429625034332,0.9480281472206116,0.6730403304100037,0.20657077431678772,-0.7101726531982422,0.12590980529785156,0.09349329769611359,0.03355222940444946,0.18330942669987055,-0.37883986760233346,-0.03733678026168077,0.9063574929143109,-0.2080688408784343,0.7585596460456042,2.825663531991742
1780949340685142784,1.9255857467651367,0.2945821285247803,-0.3281143009662628,0.9676881432533264,0.6724460124969482,0.19844873249530792,-0.7130458950996399,0.11435818672180176,0.04271642863750458,0.06584435701370239,0.17941627195108775,-0.37718623230031023,-0.03475058857154557,0.9079276638683103,-0.19977492436851663,0.756102947840132,2.83096288727348
1780949340695177728,1.9356207847595215,0.260534405708313,-0.3293564021587372,0.9586440920829773,0.6719355583190918,0.18954059481620789,-0.715944766998291,0.0559086799621582,-0.06823322176933289,-0.037290096282958984,0.17571158072973186,-0.375534081805933,-0.03165060104279575,0.9094492023632758,-0.19069424608994512,0.7536991373446458,2.83554607512266
1780949340705213696,1.9456567764282227,-0.31683677434921265,-0.26347115635871887,0.9363459348678589,0.6715826988220215,0.1835484653711319,-0.7178347110748291,-0.044980525970458984,-0.1449284702539444,-0.012923955917358398,0.17123991448047224,-0.37437956775441045,-0.030374265376895828,0.9108206471505458,-0.1845950377962454,0.7521216934667092,2.842981796800413
1780949340715248640,1.9556915760040283,0.10252666473388672,-0.34884488582611084,0.8728498220443726,0.6711031198501587,0.17846249043941498,-0.7195636630058289,-0.05896627902984619,-0.12408016622066498,0.029942691326141357,0.16688954392218258,-0.37329109988084136,-0.029528349395996658,0.9121018967585149,-0.179423634138574,0.7505652558921031,2.8504964944050486
1780949340725283584,1.965726613998413,-0.031075606122612953,-0.1838948130607605,0.9229230880737305,0.6707373857498169,0.172224760055542,-0.7214222550392151,-0.12804323434829712,0.1636212021112442,-0.06580919027328491,0.16267401919283017,-0.3721626827449163,-0.027996454815335362,0.9133720120282873,-0.17308772790323645,0.7490068406366956,2.857260148565746
1780949340735319552,1.9757626056671143,0.33960017561912537,-0.15782007575035095,0.8742900490760803,0.671149730682373,0.16505885124206543,-0.7227126955986023,-0.20073652267456055,0.22042393684387207,-0.007206737995147705,0.15886502913623748,-0.3714595124837691,-0.025719188848350227,0.9143950550330524,-0.16581768020310209,0.7484221449895369,2.8627968155674055
1780949340745354752,1.985797643661499,0.5582265257835388,-0.12352481484413147,0.9227427840232849,0.6715680956840515,0.15570694208145142,-0.7243974804878235,-0.09533518552780151,0.15818160772323608,-0.044401347637176514,0.1556595743560544,-0.3705612858925158,-0.02203617533917575,0.9154064085485502,-0.15634307811891576,0.7475718621874027,2.866153945714233
1780949340755389696,1.9958326816558838,0.6825801730155945,-0.09801439195871353,0.9328169822692871,0.6722574830055237,0.1450420469045639,-0.7259701490402222,-0.02232462167739868,0.09249153733253479,0.07155120372772217,0.15251756911006745,-0.36973652692675085,-0.01760184709793016,0.9163642687493798,-0.14555546176163395,0.747002233451601,2.8688689108086267
1780949340765425664,2.005868673324585,0.6464315056800842,-0.06285254657268524,0.9210188984870911,0.6729750633239746,0.13375252485275269,-0.7274715304374695,0.02235269546508789,0.031973183155059814,0.03386801481246948,0.1495167033075032,-0.3689187827504369,-0.012773521717978102,0.9172679922220284,-0.1341545703173168,0.7465041546798603,2.871033332174574
1780949340775460608,2.0159037113189697,0.5934212803840637,-0.0764826089143753,0.8478932976722717,0.673633337020874,0.12329612672328949,-0.7287085652351379,0.03243660926818848,-0.01015220582485199,-0.04019707441329956,0.146625412864096,-0.3682066062739723,-0.008343160783750104,0.9180715212654627,-0.12361067447056844,0.7461445959339404,2.873280916330058
1780949340785495808,2.0259387493133545,0.7496580481529236,-0.14192432165145874,0.819405734539032,0.6737632751464844,0.11284010857343674,-0.7302809357643127,0.06526565551757812,-0.05270522087812424,-0.011204719543457031,0.14410677986503756,-0.36721249877631706,-0.0038113505659718135,0.9188981331951053,-0.11308095329966189,0.7451664266088609,2.8747117307369616
1780949340795531776,2.0359747409820557,0.8965350985527039,-0.19883795082569122,0.7893993854522705,0.6733201742172241,0.10127895325422287,-0.7323814034461975,0.09720289707183838,-0.01480739563703537,-0.003885626792907715,0.14193755946178643,-0.365796869608861,0.001392509271870867,0.919806734877087,-0.10145289872234989,0.7434073459309032,2.874960789019316
1780949340805566720,2.0460097789764404,0.713252604007721,-0.23380312323570251,0.7377671003341675,0.672381579875946,0.08977818489074707,-0.7347400188446045,0.06824952363967896,-0.07233738899230957,-0.03334164619445801,0.14006349901819803,-0.36412352083926663,0.006637440935349743,0.9207345818332565,-0.0898992294117317,0.741110820617512,2.874610507319511
1780949340815601664,2.056044578552246,0.6540361642837524,-0.27139872312545776,0.7210834622383118,0.6711786985397339,0.0804448276758194,-0.7369177937507629,0.020212292671203613,-0.1312108188867569,0.09336310625076294,0.1378249548755563,-0.3625318596968506,0.010571673786181011,0.9216632562494285,-0.08053184619428441,0.7387455272561934,2.8759053488262176
1780949340825637888,2.0660808086395264,0.6640536189079285,-0.23390990495681763,0.7058520317077637,0.6697377562522888,0.07009913772344589,-0.7392817139625549,0.06651407480239868,-0.005050919950008392,-0.01817983388900757,0.1358894973764411,-0.36073514133262885,0.01514272402094265,0.9225913749112271,-0.07015667816101874,0.7360818896148621,2.8761760687458295
1780949340835672576,2.076115608215332,0.5448033809661865,-0.21939142048358917,0.6976300477981567,0.6686108112335205,0.06134641543030739,-0.7410777807235718,-0.027863740921020508,0.07775270193815231,0.05025136470794678,0.13362573269770187,-0.3593166672591476,0.01877906229042906,0.9234084410419827,-0.061384960250419694,0.7340370273158384,2.8777743767254917
1780949340845707776,2.086150646209717,0.8152985572814941,-0.14549577236175537,0.6287194490432739,0.6675431132316589,0.05173095315694809,-0.7427719831466675,-0.08140724897384644,-0.002246711403131485,-0.0047408342361450195,0.13186243755242044,-0.3578846808798547,0.023077154822221016,0.9241203947059932,-0.051754054545674756,0.7321067488883144,2.8779694833476848
1780949340855743744,2.096186637878418,1.0281422138214111,0.014661417342722416,0.6567366719245911,0.6674009561538696,0.04061631113290787,-0.7435901165008545,-0.14754927158355713,0.19243118166923523,-0.05644345283508301,0.1305104760151544,-0.3569275623893923,0.028419341152295798,0.9245334427144386,-0.04062748515868186,0.731453659212205,2.8766789964123594
1780949340865778688,2.1062216758728027,0.8925142288208008,-0.043271392583847046,0.6655144691467285,0.6676613092422485,0.028782712295651436,-0.7439085841178894,-0.09026873111724854,0.05996240675449371,0.03512251377105713,0.12918919275209712,-0.3561969887974656,0.03419687741411041,0.9248050532237866,-0.028786688442110818,0.7314346652180247,2.87502648230796
1780949340875813632,2.1162567138671875,0.937774121761322,-0.0687360018491745,0.6301292777061462,0.6674887537956238,0.018273087218403816,-0.7443956732749939,0.04460841417312622,-0.15871497988700867,0.07218492031097412,0.12762679928107246,-0.3553447027695656,0.03914481037774127,0.925153631642048,-0.018274104217645533,0.7309808286995254,2.8744125260859588
1780949340885849600,2.1262927055358887,0.6919441223144531,-0.04837653785943985,0.6313517093658447,0.6670495867729187,0.0074879867024719715,-0.7449756860733032,0.1327703595161438,-0.09795734286308289,-0.024006247520446777,0.12626005992990844,-0.3543306705386829,0.044293803863864584,0.9254978047177183,-0.007488056894168342,0.7302666356750632,2.873281310230114
1780949340895884800,2.1363277435302734,0.45468416810035706,-0.1261376440525055,0.6306805610656738,0.6664153933525085,-0.0011593452654778957,-0.745579719543457,0.04888606071472168,-0.14599640667438507,0.1134081482887268,0.12436659809948074,-0.35340774580122136,0.048094786439067394,0.9259172364735906,0.0011593455819989829,0.7293912379693783,2.8741138752373305
1780949340905919744,2.146362781524658,0.6142277717590332,-0.15004830062389374,0.6155943274497986,0.6653901934623718,-0.008663884364068508,-0.7464455366134644,0.033416569232940674,-0.20942999422550201,0.039643168449401855,0.12238672169245081,-0.3523538873864278,0.05122476289696053,0.9264148206500993,0.008663993151477265,0.7280498078495189,2.875597023090533
1780949340915954688,2.156397581100464,0.6903560757637024,-0.1688254475593567,0.6101449131965637,0.6640377044677734,-0.01798414997756481,-0.7474827766418457,0.05283546447753906,0.06411147117614746,-0.0683283805847168,0.12083496232183848,-0.3509747161450496,0.055456025860336766,0.9268982192541335,0.017985119606791895,0.7263497695058235,2.875490002628673
1780949340925990912,2.166433811187744,0.5627768039703369,-0.17503568530082703,0.5625055432319641,0.6624882817268372,-0.026776591315865517,-0.7485935688018799,-0.05424243211746216,0.04002121463418007,0.026791810989379883,0.11927322188038976,-0.34953681712539014,0.059390422280255414,0.9274000049071879,0.02677979191180768,0.7244529512332807,2.8756276603369946
1780949340936025600,2.17646861076355,0.9870774745941162,-0.17558668553829193,0.5209580659866333,0.6610482931137085,-0.03602282330393791,-0.7494781613349915,-0.0662606954574585,0.05462328717112541,-0.07809752225875854,0.11820030461228632,-0.3481304699317392,0.06376599385520872,0.9277757010803162,0.036030619478986316,0.722787310229339,2.874533698061805
1780949340946060544,2.1865036487579346,0.7215235829353333,-0.06814651936292648,0.5071660876274109,0.6599684953689575,-0.04592357575893402,-0.7498884201049805,-0.06774437427520752,0.23121105134487152,-0.09068775177001953,0.11737306635869457,-0.3469105717184445,0.06862106434326624,0.9279912304334181,0.04593973404115625,0.7217049505659624,2.8726279747484775
1780949340956096768,2.1965396404266357,0.479940801858902,-0.005525477230548859,0.5244311094284058,0.6595507860183716,-0.05324510484933853,-0.7497717142105103,-0.15346258878707886,-0.11971326172351837,0.06985539197921753,0.1158642441299437,-0.346326607923487,0.0719166809308093,0.9281493794150271,0.05327029508039698,0.7214681554019468,2.873110468923701
1780949340966131712,2.2065746784210205,0.6226921081542969,-0.06541571021080017,0.5224925875663757,0.6588031053543091,-0.061540018767118454,-0.7497942447662354,0.05033385753631592,-0.06976186484098434,-0.04904913902282715,0.11449352148916474,-0.34549078246666726,0.07575624851483635,0.9283256178532773,0.06157892990669758,0.7208908082387944,2.8729492619117463
1780949340976166656,2.2166097164154053,0.5648375749588013,0.047142792493104935,0.4633197784423828,0.6585814356803894,-0.06896547973155975,-0.7493426203727722,-0.018017470836639404,0.14988282322883606,0.005613923072814941,0.11310444030630318,-0.3450494378167123,0.07918074259863135,0.9283742445005897,0.06902026379433887,0.7210226933622205,2.873097683468182
1780949340986202624,2.2266457080841064,0.5852594971656799,0.16060064733028412,0.3994121849536896,0.6592646837234497,-0.07528321444988251,-0.7481327056884766,-0.10463821887969971,0.01873413473367691,-0.011739730834960938,0.11190705375460573,-0.34522575065283834,0.08217553717244196,0.928193568283418,0.07535451091365789,0.7223383556992024,2.8731464058080256
1780949340996237824,2.236680746078491,0.8692246079444885,0.11633411794900894,0.37912100553512573,0.6597564220428467,-0.0841626226902008,-0.7467517256736755,0.09685063362121582,0.2745923101902008,-0.08729362487792969,0.1114631600604976,-0.3450921741287169,0.08680736482756725,0.9278749212177357,0.08426230202160999,0.7236248509322738,2.87057650035281
1780949341006272768,2.246715784072876,0.5829023122787476,0.16393332183361053,0.42336490750312805,0.6605870723724365,-0.09200038015842438,-0.7450910806655884,-0.017596960067749023,0.11700952798128128,0.05237257480621338,0.11072321845432224,-0.3452647456459405,0.09081137955574956,0.9275160664010322,0.09213065915166954,0.7253542154832864,2.868983796235208
1780949341016308736,2.256751775741577,0.5551804304122925,-0.04694162681698799,0.4115372896194458,0.6608093976974487,-0.09918402880430222,-0.7439714074134827,0.027575552463531494,-0.24827386438846588,0.036161959171295166,0.10976207278061205,-0.3451322028567031,0.09432951243421368,0.9273284504771635,0.09934737341510916,0.7262679155614572,2.868184385214459
1780949341026343680,2.266786575317383,0.488310307264328,-0.07217387855052948,0.4595513939857483,0.6600059866905212,-0.1047450602054596,-0.7439224720001221,0.16906505823135376,-0.0530003160238266,0.03786778450012207,0.10843471051606153,-0.34449844743547314,0.09674488468409369,0.9274714525536043,0.10493754602249335,0.7256965373131904,2.8689490581362866
1780949341036378624,2.2768216133117676,0.49789634346961975,0.017338959500193596,0.45281627774238586,0.6591629981994629,-0.11207234114408493,-0.7436019778251648,0.07177877426147461,0.0045589059591293335,-0.03513026237487793,0.1073263177336464,-0.3437450376442873,0.10019155195799867,0.9275139206291334,0.1123082847882918,0.7252760161284149,2.868539296061508
1780949341046416128,2.2868590354919434,0.27940821647644043,0.04688992723822594,0.4018106162548065,0.6588960886001587,-0.11771909147500992,-0.742965817451477,-0.1503206491470337,-0.13612613081932068,0.05154430866241455,0.10587944630257456,-0.3434765187970191,0.10266927376596403,0.9275087633547666,0.11799269230341838,0.7254998648371583,2.8694392625706393
1780949341056450816,2.296893835067749,0.37338319420814514,0.019260697066783905,0.33485129475593567,0.6586899161338806,-0.12260971963405609,-0.7423573136329651,-0.10581821203231812,-0.1566108614206314,0.011705517768859863,0.10475589811540624,-0.3432548370775494,0.10486871460575158,0.9274722904338651,0.1229190149177104,0.7257512394139487,2.869929074028482
1780949341066485760,2.306928873062134,0.38883164525032043,0.0025786557234823704,0.2685132920742035,0.658436119556427,-0.127391517162323,-0.7417771220207214,-0.025776207447052002,0.0915181040763855,-0.012296974658966064,0.10397084162024169,-0.3429781231188173,0.10713287850529779,0.9274042313937272,0.1277386266812003,0.7259480871179456,2.869734041223516
1780949341076521984,2.316964864730835,0.2413412630558014,0.06442977488040924,0.2457680106163025,0.658427894115448,-0.1307833045721054,-0.7411938905715942,-0.06019186973571777,-0.0411679744720459,0.036237895488739014,0.10321550018587586,-0.34291529612096877,0.10868372458069953,0.9273313616410346,0.13115902971175428,0.7263324103463765,2.869993001039391
1780949341086556928,2.3269999027252197,0.42224499583244324,0.05591417849063873,0.23016056418418884,0.6582844257354736,-0.13561823964118958,-0.7404521107673645,0.010889768600463867,-0.046068161725997925,-0.015681922435760498,0.10278381202482227,-0.3426743902152594,0.11112251814387349,0.927179326987104,0.13603744391702624,0.7267213782326299,2.8689854818140454
1780949341096591872,2.3370349407196045,0.3580223321914673,0.10880322754383087,0.21447508037090302,0.6587165594100952,-0.13967826962471008,-0.7393121719360352,-0.10055005550384521,-0.09291145205497742,0.017205238342285156,0.10226641821086663,-0.3428362026075055,0.11316912901165432,0.9269291632629861,0.14013649328343666,0.7278124273100979,2.868376641356332
1780949341106627840,2.3470709323883057,0.4660332202911377,0.11831377446651459,0.17073611915111542,0.6592686772346497,-0.1440356969833374,-0.7379826903343201,-0.07189685106277466,-0.0960002988576889,-0.010750770568847656,0.10207773119184814,-0.34302402757324835,0.11551259467067368,0.9265912949926395,0.14453844244562034,0.729122735953398,2.866907089456164
1780949341116663040,2.3571059703826904,0.47500088810920715,0.09539647400379181,0.16810305416584015,0.6598222851753235,-0.14867185056209564,-0.7365671396255493,0.02862370014190674,0.11902403831481934,-0.022984862327575684,0.10203012941188071,-0.3431874407565833,0.11806269563868098,0.9262145618167255,0.1492250685044586,0.730493914160661,2.8650059868345585
1780949341126697984,2.367141008377075,0.31018316745758057,0.00024159811437129974,0.1616257131099701,0.6599680781364441,-0.15272930264472961,-0.7356058955192566,0.07938128709793091,-0.035030096769332886,0.034067749977111816,0.10191246337772047,-0.3431333489125873,0.12023548078345873,0.9259680956467745,0.15332939601870096,0.7312527823304954,2.8635552344633366
1780949341136733952,2.3771770000457764,0.21393786370754242,-0.07945376634597778,0.14483527839183807,0.6594023704528809,-0.1556045413017273,-0.735510528087616,0.12505191564559937,-0.10374906659126282,0.05930203199386597,0.1016481333527598,-0.3427065373866297,0.12164281039284441,0.925971315635277,0.15623942513767786,0.7308909977348674,2.8630326852707473
1780949341146769152,2.387212038040161,0.20395527780056,-0.09981482475996017,0.11196175217628479,0.6585184335708618,-0.15796992182731628,-0.7357982397079468,0.07120263576507568,-0.040455371141433716,0.006657004356384277,0.10145602992921773,-0.3420945911910077,0.12276880384545832,0.9260701274928085,0.15863442490454308,0.7300299645161709,2.8626229387324185
1780949341156803840,2.397246837615967,0.25160855054855347,-0.09836633503437042,0.07850232720375061,0.6576226949691772,-0.16023586690425873,-0.7361092567443848,-0.029113173484802246,-0.017269611358642578,0.0022072792053222656,0.10145367101250377,-0.3414552344390386,0.12391005380269614,0.9261542577296485,0.16092960976862986,0.729143633435059,2.861847517074681
1780949341166839808,2.407282829284668,0.3431674838066101,-0.052438657730817795,0.045308422297239304,0.656937837600708,-0.16285552084445953,-0.7361458539962769,-0.09167605638504028,0.02291719615459442,-0.0006094574928283691,0.10170885245862696,-0.34089883443434077,0.1253597510667795,0.9261361110410299,0.16358412948865506,0.7286012803404229,2.8603308470997915
1780949341176874752,2.4173178672790527,0.4385259747505188,-0.04155911132693291,0.018191318958997726,0.6565555334091187,-0.16595235466957092,-0.735795259475708,-0.07865941524505615,0.04479756951332092,-0.04246401786804199,0.1022758160392214,-0.3404685980315789,0.1272143998077026,0.9259791206760877,0.16672367290886364,0.7285487407286088,2.857885080455702
1780949341186909952,2.4273529052734375,0.47312283515930176,-0.029150377959012985,0.03006875142455101,0.656233549118042,-0.1695183515548706,-0.7352694272994995,-0.012144804000854492,0.051857829093933105,0.007623553276062012,0.10297351823442501,-0.3400386716281124,0.12937929906451123,0.9257597942257506,0.17034092513832974,0.728660213540659,2.8549458515298025
1780949341196945920,2.4373888969421387,0.4153040051460266,-0.007512728217989206,0.04659366235136986,0.65605628490448,-0.17308177053928375,-0.7345971465110779,0.0077620744705200195,0.028596296906471252,0.016075968742370605,0.1035879041688134,-0.3397083894256395,0.13152813746729944,0.9255097090044668,0.17395781529494483,0.7289804413923765,2.8521551292678358
1780949341206980864,2.4474239349365234,0.2703063488006592,-0.03152045980095863,0.10274402052164078,0.6558001041412354,-0.17610561847686768,-0.7341069579124451,0.025672614574432373,-0.03445039689540863,0.05330556631088257,0.10384886014687668,-0.33939946404883764,0.1332461520376532,0.925347956187821,0.17702882321865082,0.7291180579874216,2.8503659772638197
1780949341217016064,2.457458972930908,0.15005502104759216,-0.09495242685079575,0.1346082091331482,0.6551014184951782,-0.17836815118789673,-0.7341845631599426,0.07164418697357178,-0.10578103363513947,0.06864196062088013,0.10366788871948046,-0.3389101361350233,0.13434148724550318,0.9253892694014645,0.17932775082087252,0.7285359224728839,2.849938778260918
1780949341227052032,2.4674949645996094,0.17796549201011658,-0.0894419476389885,0.12955646216869354,0.6541439890861511,-0.18040549755096436,-0.7345403432846069,0.06434661149978638,-0.07365334033966064,-0.0014063119888305664,0.10339895637997117,-0.33828364921319903,0.13525536356874027,0.9255154140265848,0.1813986949371381,0.7275688305588087,2.849848346899962
1780949341237086976,2.477530002593994,0.31023111939430237,-0.046056125313043594,0.11781138181686401,0.6534064412117004,-0.1830012947320938,-0.7345547080039978,0.002172112464904785,0.08371235430240631,-0.007358133792877197,0.10328012902723184,-0.33775154681284975,0.1365523635461384,0.9255326288640336,0.18403843277669607,0.7269988543037808,2.8491540292114195
1780949341247122176,2.487565040588379,0.41553065180778503,-0.016826067119836807,0.09926805645227432,0.6529962420463562,-0.18642641603946686,-0.7340579628944397,-0.0301324725151062,0.14237429201602936,-0.04201924800872803,0.10342285919318232,-0.33735348017277017,0.13843278619410795,0.9253824614734455,0.18752353774544786,0.7270228879656707,2.8474753816943146
1780949341257158144,2.49760103225708,0.42948055267333984,-0.002367766574025154,0.0928993746638298,0.6527235507965088,-0.19020648300647736,-0.7333303689956665,-0.05650162696838379,0.06290240585803986,-0.038703322410583496,0.1037233464024708,-0.33700429927765396,0.14058059372808654,0.9251522450420161,0.19137245820046325,0.7273079556932881,2.845272133375064
1780949341267192832,2.5076358318328857,0.4068537950515747,0.041126180440187454,0.10114851593971252,0.6526865363121033,-0.19391700625419617,-0.7323909997940063,-0.09337562322616577,0.009484022855758667,-0.006286978721618652,0.1039641332354636,-0.3368122987346687,0.14269541606419062,0.9248713581107622,0.19515338339115235,0.7279164150706893,2.84317210626069
1780949341277227776,2.5176708698272705,0.3544752895832062,0.04061165824532509,0.11287041753530502,0.6528071761131287,-0.1974492371082306,-0.7313389778137207,-0.03964799642562866,0.031143680214881897,-0.010283946990966797,0.10408973661843461,-0.33674241124728344,0.14468956763208324,0.9245728354574236,0.19875524030460573,0.7287222964418342,2.8413567662898944
1780949341287263744,2.5277068614959717,0.24541670083999634,-0.013281134888529778,0.13243453204631805,0.6526499390602112,-0.20044143497943878,-0.7306649684906006,0.06420797109603882,-0.004346773028373718,0.015775442123413086,0.10402030309439353,-0.33655186593387154,0.1462886028055589,0.9243983459446501,0.20180847487134806,0.729060687122988,2.840249408595941
1780949341297298944,2.5377418994903564,0.17709890007972717,-0.0038804425857961178,0.126031756401062,0.6522837281227112,-0.2027810513973236,-0.7303463220596313,0.06126296520233154,-0.0650564581155777,0.019622504711151123,0.1037644609959576,-0.3362858932896202,0.14744024096560243,0.9243409453344925,0.20419714922606677,0.7289985497188292,2.839870019870719
1780949341307333888,2.547776937484741,0.17520326375961304,0.044917456805706024,0.11321050673723221,0.6521883606910706,-0.20486997067928314,-0.7298483848571777,-0.009961187839508057,-0.009866967797279358,0.005834102630615234,0.10350462516976085,-0.3361974021133242,0.14848270769899735,0.9242353805127363,0.2063308591599654,0.7292647515370908,2.8395469703257525
1780949341317369856,2.5578129291534424,0.20434090495109558,0.08529257774353027,0.09739266335964203,0.6524566411972046,-0.2069290280342102,-0.7290272116661072,-0.05629575252532959,0.018177807331085205,0.014290332794189453,0.10328023454667042,-0.33632972682659,0.1495616859800819,0.9240383028250104,0.20843500001146256,0.7300284716442895,2.839077464473182
1780949341327405056,2.567847967147827,0.21742235124111176,0.09414678812026978,0.07435844838619232,0.6529458165168762,-0.2090304046869278,-0.7279890775680542,-0.07335597276687622,-0.0452725887298584,-0.0223313570022583,0.10317478292947145,-0.33657881414729984,0.15073206633533448,0.9237692505754784,0.21058335517151663,0.7311091899168131,2.8382793078686155
1780949341337440000,2.577883005142212,0.28956684470176697,0.09376515448093414,0.04214751720428467,0.653516411781311,-0.2112417221069336,-0.7268379330635071,-0.058148980140686035,-0.0086221843957901,-0.020064592361450195,0.1032466176669133,-0.3368465470366165,0.1520376605654371,0.923449658555036,0.2128451716321341,0.7323301520730927,2.837025943870911
1780949341347475968,2.587918996810913,0.3351934552192688,0.10207594931125641,0.01983901672065258,0.654167890548706,-0.21376925706863403,-0.7255116105079651,-0.04341965913772583,0.022607162594795227,-0.019971787929534912,0.10356710440381939,-0.3371134475860839,0.1536187685449699,0.9230544862175567,0.2154317927277945,0.7337338121413722,2.8350700119051897
1780949341357511168,2.597954034805298,0.2975462079048157,0.08573160320520401,0.019669638946652412,0.6548079252243042,-0.21621793508529663,-0.7242074012756348,-0.0273207426071167,-0.01287752389907837,-0.007497310638427734,0.1039513490402014,-0.33736523369157134,0.15518049951399482,0.9226580597367264,0.21793910087160712,0.7351152027083031,2.833006006834145
1780949341367545856,2.6079888343811035,0.19170713424682617,0.06132332980632782,0.03625553846359253,0.655288815498352,-0.21820107102394104,-0.7231769561767578,0.0005186796188354492,-0.04495200514793396,0.013032913208007812,0.10418332790219545,-0.33755930194030864,0.15641369660268623,0.9223526299144303,0.2199707376669797,0.7361888741189064,2.831509375821312
1780949341377581824,2.6180248260498047,0.06017894297838211,0.019666695967316628,0.04137147217988968,0.6555162668228149,-0.21937018632888794,-0.7226168513298035,0.04518258571624756,-0.07095879316329956,0.05361056327819824,0.10418138944339968,-0.3376626954692075,0.1570842653333323,0.9222009619953149,0.22116888297733303,0.7367470670437815,2.83093879600192
1780949341387616768,2.6280598640441895,0.022004922851920128,-0.029069684445858,0.02891959622502327,0.6553956270217896,-0.21988366544246674,-0.7225701808929443,0.08959943056106567,-0.04275059700012207,0.04877263307571411,0.10408002690817036,-0.33758871054567324,0.15731740886112497,0.9221997482538434,0.22169521584707969,0.736687662904251,2.830957848730252
1780949341397651968,2.638094902038574,-0.008293594233691692,-0.02155264839529991,0.0191657692193985,0.65511554479599,-0.2200961858034134,-0.722759485244751,0.06485515832901001,0.0006900578737258911,0.010036706924438477,0.10400453521267687,-0.337421239337838,0.1573758982275599,0.9222595976771365,0.22191307420023582,0.7363446322840677,2.8310928439824417
1780949341407687936,2.6481308937072754,-0.013605003245174885,-0.001888264436274767,0.01210839208215475,0.6550131440162659,-0.22012114524841309,-0.722844660282135,-0.020415425300598145,0.01662994921207428,0.013951897621154785,0.10393749769256995,-0.3373684480895795,0.15735372982849286,0.9222902018761265,0.2219386566802066,0.7362081705948579,2.8312512010359305
1780949341417722880,2.65816593170166,-0.017364853993058205,-0.004011336248368025,0.025445235893130302,0.6549648642539978,-0.22012677788734436,-0.7228868007659912,-0.028622090816497803,0.02386823296546936,0.011567831039428711,0.1038144887735938,-0.33735930251122365,0.1573064350350432,0.9223155659522282,0.22194443681474052,0.7361425048470845,2.831526944462474
1780949341427758080,2.668200969696045,-0.06023295596241951,-0.045332811772823334,0.038514964282512665,0.6547156572341919,-0.22005993127822876,-0.723132848739624,0.020775675773620605,-0.00819629430770874,0.007938146591186523,0.10362010002249156,-0.33724023447765383,0.15717062010290647,0.922404144849458,0.22187590527861956,0.7357838241435917,2.832037052746354
1780949341437794048,2.678236961364746,-0.062447644770145416,-0.0630902349948883,0.03764330968260765,0.6542213559150696,-0.21983668208122253,-0.7236478924751282,0.02937239408493042,-0.01679663360118866,0.007125735282897949,0.1033762542203186,-0.3369828255257733,0.1569032025498015,0.9225711022994312,0.22164704829648713,0.7350538439805034,2.832781521226145
1780949341447828992,2.688271999359131,-0.025408931076526642,-0.04128959774971008,0.038702186197042465,0.6537567973136902,-0.21974588930606842,-0.7240951657295227,-0.019433677196502686,0.04025675356388092,-0.01790916919708252,0.10315807074961451,-0.33673528400147834,0.1567218954525317,0.9227166994941783,0.2215539919177891,0.7343931279571404,2.8334039239371944
1780949341457863936,2.6983070373535156,0.011115523055195808,-0.012662481516599655,0.05298125371336937,0.6534528136253357,-0.21999309957027435,-0.7242944240570068,-0.05857366323471069,0.05675457417964935,-0.025095224380493164,0.10296083065848269,-0.33657290184357347,0.15675285054732643,0.9227926205671975,0.2218073934886888,0.7340249298887559,2.8337927124584277
1780949341467900160,2.708343029022217,0.040949586778879166,0.01806613616645336,0.08264833688735962,0.6533185839653015,-0.22061686217784882,-0.7242257595062256,-0.03307938575744629,0.029897287487983704,0.007413685321807861,0.10267634545672709,-0.3365186007069546,0.15697879916422497,0.9228057214019507,0.22244687637352703,0.7339699451755176,2.834163452555022
1780949341477934848,2.7183778285980225,0.0506562776863575,0.04104921594262123,0.10545538365840912,0.6533266305923462,-0.22160251438617706,-0.7239176034927368,0.0038541555404663086,-0.017228052020072937,0.021296143531799316,0.10229932359960545,-0.3365570035496249,0.15738670331849172,0.9227641919774668,0.22345754430246043,0.7341877188183566,2.8345402013933674
1780949341487971072,2.7284140586853027,0.0014045729767531157,0.05038239434361458,0.10683276504278183,0.6534146666526794,-0.22251959145069122,-0.723556637763977,0.008008003234863281,-0.06123283505439758,0.027954280376434326,0.1018130732395934,-0.3366663388615171,0.1577258708312175,0.9227200736543701,0.2243980916807155,0.7345028496018629,2.8351646167794615
1780949341498005760,2.7384488582611084,-0.010123718529939651,0.028455791994929314,0.07855638861656189,0.6534919738769531,-0.22307606041431427,-0.7233154773712158,0.0103568434715271,-0.039603978395462036,0.0705140233039856,0.10132846365236224,-0.3367801166388029,0.15786513058285156,0.9227081622163426,0.2249689199977424,0.7347274979211648,2.8359486491072277
1780949341508040960,2.748483896255493,0.03557612746953964,0.005407464690506458,0.04346498101949692,0.6534996628761292,-0.22355927526950836,-0.7231593728065491,0.03593820333480835,0.012804865837097168,0.011733651161193848,0.10106866329559765,-0.33681478581489566,0.1580383028018498,0.9226943920910804,0.22546464485754739,0.7348407215849228,2.8362943473820814
1780949341518076928,2.7585198879241943,-0.04884767532348633,-0.022279024124145508,0.037437450140714645,0.6533401012420654,-0.22380214929580688,-0.723228394985199,0.034770190715789795,-0.006864950060844421,-0.009635984897613525,0.1008937040753075,-0.3367387230451923,0.15809126320371092,0.9227321401076699,0.22571383266922457,0.7346718069260884,2.836602835248172
1780949341528111872,2.768554925918579,-0.06586501002311707,-0.06660441309213638,0.016723651438951492,0.6529614329338074,-0.22352397441864014,-0.7236562371253967,0.014519035816192627,-0.05899250507354736,0.031380295753479004,0.1007061087991762,-0.3365446982414374,0.15782756175487606,0.9228685394255665,0.22542842601871055,0.7340892349324871,2.837223098607363
1780949341538147072,2.778589963912964,-0.012741340324282646,-0.044828273355960846,0.02020466886460781,0.6524651646614075,-0.22330136597156525,-0.7241724133491516,-0.0003198385238647461,0.00665709376335144,0.01564580202102661,0.10057756190732445,-0.3362661930986514,0.15760346082690846,0.923022350683928,0.22520005086392011,0.733356522214286,2.8377179560054753
1780949341548183040,2.788625955581665,0.058927521109580994,-0.011100671254098415,0.013714810833334923,0.65225750207901,-0.22362776100635529,-0.7242587804794312,-0.03664165735244751,0.06086224317550659,-0.030974984169006348,0.10057620812074804,-0.3361281857086749,0.1577606986511562,0.9230459616576899,0.2255349075070611,0.7331388637678995,2.837624644390657
1780949341558217984,2.79866099357605,0.04887808486819267,-0.010912918485701084,0.01869012787938118,0.6521644592285156,-0.22410014271736145,-0.7241965532302856,-0.004337310791015625,0.08399394154548645,0.017104268074035645,0.100576457244366,-0.336056540647238,0.1580117519724061,0.9230291323333385,0.22601960204884264,0.7331106914327019,2.837435773867386
1780949341568252928,2.8086960315704346,0.01894361898303032,-0.01816563867032528,0.020965266972780228,0.6520016193389893,-0.22449801862239838,-0.7242199778556824,0.03740572929382324,0.04941865801811218,0.009727180004119873,0.10057117647582775,-0.3359448985894049,0.15821200765915372,0.9230360102569017,0.22642786979482923,0.7329704301901169,2.8373084613644926
1780949341578289152,2.8187320232391357,-0.026619872078299522,-0.012764215469360352,0.02139163948595524,0.6518371105194092,-0.22460222244262695,-0.724335789680481,0.00735783576965332,-0.005195140838623047,0.002961277961730957,0.10048137103039298,-0.3358554354974235,0.15821897733046628,0.923077189714299,0.22653481630634664,0.7327654565567041,2.837495599813854
1780949341588324096,2.8287670612335205,0.012797043658792973,0.007369282655417919,0.01032460667192936,0.6517646908760071,-0.22464729845523834,-0.7243869304656982,-0.01709061861038208,0.011390462517738342,0.006766080856323242,0.10039904628626638,-0.3358234427034486,0.15820605652879788,0.9230999564467276,0.22658107071509118,0.7326750982440986,2.8376709728006357
1780949341598358784,2.838801860809326,0.010839353315532207,0.006520000286400318,0.005074184387922287,0.6518096923828125,-0.22479234635829926,-0.7243014574050903,-0.0331268310546875,-0.004837170243263245,-0.007464289665222168,0.10038735031014161,-0.33584895480717547,0.15828688256315682,0.9230781464075696,0.2267299278850143,0.7327680562279378,2.8376211303313976
1780949341608394752,2.8488378524780273,0.07433151453733444,0.014491774141788483,-0.0012838458642363548,0.6518629789352417,-0.22510461509227753,-0.7241564393043518,-0.0287855863571167,0.002021118998527527,0.031178534030914307,0.1004294395531135,-0.33586552720971213,0.1584806914569774,0.9230341613445158,0.2270504013829555,0.7329083035747093,2.8373780090444227
1780949341618429952,2.858872890472412,0.0862632691860199,0.012815047055482864,-0.004788300022482872,0.6519800424575806,-0.2257191240787506,-0.7238597869873047,-0.008867859840393066,0.0009876787662506104,-0.012392044067382812,0.10057921108294705,-0.33589399871158326,0.15888779073815457,0.9229375910117361,0.22768114644887386,0.7332013312081158,2.8367517114152343
1780949341628464896,2.868907928466797,0.031265534460544586,-0.005794323515146971,0.01252517756074667,0.6520043015480042,-0.22615760564804077,-0.7237010598182678,0.00557321310043335,-0.03150230646133423,0.005393505096435547,0.10066589637626945,-0.3358811289127222,0.15916452973816253,0.9228851359643042,0.22813127058982322,0.7333289092688091,2.836362322323244
1780949341638500864,2.878943920135498,0.003263725433498621,-0.010102519765496254,0.030632808804512024,0.6518900990486145,-0.22640834748744965,-0.723725438117981,0.019054055213928223,-0.03920137882232666,0.024430453777313232,0.10060228741812599,-0.3358141044764723,0.159267589587279,0.9228986128028821,0.22838868077033123,0.7332250523690965,2.8364153165565393
1780949341648536064,2.888978958129883,-0.05212815850973129,-0.02666005678474903,0.04854416102170944,0.6516628265380859,-0.2265118658542633,-0.7238976955413818,0.024942338466644287,-0.038365438580513,0.012029469013214111,0.10039159043478361,-0.3357068483562042,0.159223338923302,0.9229681785724955,0.22849496241854278,0.7329333353832523,2.8368798080837054
1780949341658571008,2.8990139961242676,-0.03373583406209946,-0.02556789480149746,0.04643786698579788,0.6513437032699585,-0.22647309303283691,-0.7241969704627991,0.01802879571914673,-0.009290426969528198,0.018813729286193848,0.10011349597912121,-0.3355585574472093,0.15906592597532657,0.9230794565286012,0.22845516320050363,0.7324842420322468,2.8375756874922256
1780949341668606976,2.9090499877929688,-0.0017645888729020953,0.01809556409716606,0.03192177787423134,0.6512467861175537,-0.22663187980651855,-0.7242345213890076,-0.011644124984741211,0.06522442400455475,-0.02063852548599243,0.09991507729289378,-0.3355281541937866,0.15907105320570328,0.9231111638389516,0.2286181929190481,0.732384454914947,2.8379578777176047
1780949341678641920,2.9190850257873535,-0.01432538777589798,0.02970055490732193,0.02410566620528698,0.6513817310333252,-0.22677317261695862,-0.7240688800811768,-0.041121721267700195,0.04789438843727112,-0.014822721481323242,0.09975209433048937,-0.33563563131979285,0.15910464645687233,0.9230839261685589,0.22876325159903937,0.7326012398280601,2.838215839599243
1780949341688676864,2.929119825363159,0.00916981790214777,0.027609173208475113,0.012834370136260986,0.6515355706214905,-0.22684907913208008,-0.7239067554473877,-0.03305107355117798,0.007290348410606384,0.0030815601348876953,0.09962610008222329,-0.3357502651795283,0.15911753341284796,0.9230536920994606,0.2288411879283619,0.7328299812743302,2.8384184191614885
1780949341698713088,2.9391560554504395,0.038232363760471344,0.05094166100025177,0.010520615614950657,0.6517543792724609,-0.22707632184028625,-0.7236385345458984,-0.026952743530273438,0.017344266176223755,-0.016794204711914062,0.09957725498650517,-0.33588749703303933,0.15924928918080747,0.9229863316904044,0.2290745275545697,0.7331812210250357,2.8383706673105746
1780949341708747776,2.949190855026245,0.05957706645131111,0.05016268417239189,0.014458898454904556,0.6521114110946655,-0.2276574969291687,-0.7231339812278748,-0.018520712852478027,0.0175592303276062,0.0006913542747497559,0.09954211542216702,-0.33609791035321235,0.15959701554791936,0.9228533838758021,0.2296713314842858,0.7338004648060799,2.838101622939518
1780949341718782976,2.95922589302063,0.06391721963882446,0.04466325789690018,0.0156735647469759,0.6524748802185059,-0.22837160527706146,-0.7225807905197144,0.005575656890869141,-0.007117286324501038,0.010559916496276855,0.09951288334920191,-0.3363075703525668,0.1600213086182251,0.9227067345227529,0.23040476016726721,0.7344582154422639,2.8377581740856948
1780949341728818944,2.969261884689331,0.05355672538280487,0.046500176191329956,0.02910548448562622,0.6527969837188721,-0.2290966659784317,-0.7220601439476013,0.00427699089050293,-0.0268390029668808,0.017302513122558594,0.09945084991085894,-0.3364972445106309,0.16043541034010678,0.9225723482125257,0.23114957232213612,0.7350622591127349,2.8374899090740104
1780949341738853888,2.979296922683716,0.014255656860768795,0.03705793619155884,0.030109496787190437,0.6530311107635498,-0.2295319139957428,-0.7217100858688354,0.0038444995880126953,-0.03600151836872101,0.02012622356414795,0.09933998942899368,-0.33664933945598513,0.1606617037298267,0.9224892971714544,0.2315967362351391,0.7354819023565514,2.837478115971277
1780949341748889088,2.9893319606781006,-0.0040746149607002735,0.0010334891267120838,0.027268171310424805,0.6531247496604919,-0.22974257171154022,-0.7215583920478821,0.022961676120758057,-0.03684373199939728,0.01864701509475708,0.09919827397481383,-0.3367260894570076,0.16073690421673684,0.9224635291709722,0.2318131695819461,0.73565781993862,2.8376681714908467
1780949341758925056,2.9993679523468018,-0.039926353842020035,-0.014567308127880096,0.022210028022527695,0.6530106663703918,-0.2297249138355255,-0.7216672301292419,0.027317702770233154,-0.03948591649532318,0.014758110046386719,0.09905369277657745,-0.33668106279513993,0.16066186905126886,0.9225086092436964,0.23179502377300704,0.735495862496678,2.8380171545291417
1780949341768960000,3.0094029903411865,-0.022299958392977715,-0.011480305343866348,0.01682032272219658,0.6528707146644592,-0.22963020205497742,-0.7218239903450012,-0.0041127800941467285,-0.025786682963371277,0.01152735948562622,0.09892070470887974,-0.3366201348230629,0.1605455876270419,0.9225653633456262,0.2316977074082334,0.7352811896822633,2.838381797018196
1780949341778995968,3.0194389820098877,-0.007837128825485706,0.0040677618235349655,0.012311325408518314,0.6528002023696899,-0.22961071133613586,-0.7218939661979675,-0.02418386936187744,0.019420892000198364,-0.004012405872344971,0.09884054249994242,-0.33659093646515725,0.16049786411613018,0.9225928803846255,0.2316776896649971,0.7351792358399024,2.838581288661511
1780949341789030912,3.0294740200042725,-0.004079408477991819,0.008250122889876366,0.01430363580584526,0.652776300907135,-0.22958852350711823,-0.7219225764274597,-0.03050762414932251,0.026921287178993225,-0.006852447986602783,0.09877453683613276,-0.33658825150034943,0.16045890102786264,0.9226076397276024,0.23165488712797122,0.7351412930544564,2.8387400210144333
1780949341799066112,3.0395090579986572,0.007561801001429558,0.0028460370376706123,0.012483632192015648,0.6528184413909912,-0.2297106385231018,-0.7218456268310547,-0.007646322250366211,0.019398733973503113,-0.0005970001220703125,0.09871030415920552,-0.3366221219701002,0.1605076949928546,0.9225937022416776,0.23178035487932927,0.7352264158995871,2.8388142932759326
1780949341809102080,3.0495450496673584,-0.02474154345691204,0.0036563032772392035,0.013592571951448917,0.6528341770172119,-0.22987905144691467,-0.7217777967453003,0.015729665756225586,0.002309456467628479,0.002631068229675293,0.09861086019648545,-0.33664449650975165,0.16056642054969358,0.9225859746965893,0.2319534011750727,0.7352851673387829,2.838950423326129
1780949341819136768,3.059579849243164,-0.02478921413421631,-0.0008052908815443516,0.009910485707223415,0.6528398394584656,-0.2299434095621109,-0.7217521071434021,0.011878728866577148,-0.006308406591415405,0.012020111083984375,0.09847416550616411,-0.336670058154518,0.1605528347775467,0.9225935400974231,0.2320195347006917,0.7353072130266115,2.8392163662806778
1780949341829171968,3.069614887237549,-0.011633198708295822,0.018466008827090263,0.007379417307674885,0.652934730052948,-0.23002499341964722,-0.7216402888298035,-0.0045735836029052734,0.004530623555183411,0.013434112071990967,0.0983769851562748,-0.33674353761880116,0.16057289776889808,0.9225735597252778,0.2321033631884596,0.7354566067810543,2.8393674407682163
1780949341839207936,3.07965087890625,0.014865786768496037,0.029314395040273666,0.006941859610378742,0.6531670689582825,-0.230255588889122,-0.7213564515113831,-0.01937800645828247,0.01861618459224701,0.006512761116027832,0.09830134181407042,-0.3368943662225422,0.16069830697855486,0.9225048173818008,0.2323403201045426,0.7358293128706163,2.8393717747959437
1780949341849242880,3.0896859169006348,0.027445228770375252,0.0213125292211771,0.005089098587632179,0.6533277034759521,-0.23058372735977173,-0.7211061120033264,-0.0063550472259521484,0.0042043328285217285,0.003912508487701416,0.0982581370209989,-0.33699252931484786,0.16088187497806478,0.9224415401577106,0.23267753887588252,0.7361243977434788,2.83927889294753
1780949341859278080,3.0997209548950195,0.019802222028374672,0.01402798481285572,0.013744904659688473,0.6533617973327637,-0.23074720799922943,-0.7210229635238647,9.584426879882812e-05,-0.015026107430458069,0.005202651023864746,0.09826271084032052,-0.33700837854714005,0.16097785954428154,0.9224185242349429,0.23284554213200648,0.7362077187128845,2.8391871264111814
1780949341869314048,3.1097569465637207,0.01070433109998703,0.0022610733285546303,0.013678326271474361,0.6533058881759644,-0.23081834614276886,-0.7210507988929749,-0.011521220207214355,-0.02884046733379364,0.0004698038101196289,0.0982437566990224,-0.3369750908963916,0.16100428696262692,0.9224280618347889,0.23291865734125983,0.736145930652366,2.839209672276293
1780949341879348992,3.1197919845581055,0.014813056215643883,0.000247457530349493,0.013952897861599922,0.6532664895057678,-0.23090870678424835,-0.7210575938224792,-0.007621347904205322,-0.015398666262626648,0.008868932723999023,0.0982094209071348,-0.33695416193121214,0.16103753309313645,0.9224335826532518,0.23301153009445477,0.7361112193328047,2.8392529891211153
1780949341889383936,3.1298270225524902,0.012905433773994446,-0.010476293042302132,0.01261146366596222,0.65324866771698,-0.23106606304645538,-0.7210233807563782,-0.0009964704513549805,-0.007428810000419617,0.0026700496673583984,0.09818911480667475,-0.33694235834479547,0.161115391684609,0.9224264699048488,0.233173252833916,0.7361212857527528,2.8392304660062933
1780949341899419904,3.1398630142211914,0.005649917759001255,-0.003259926103055477,0.0007066006655804813,0.6532145738601685,-0.231191486120224,-0.7210140228271484,-0.001587986946105957,-0.012964397668838501,0.009939193725585938,0.09818024160224037,-0.3369193470578245,0.16117796429354278,0.9224248936053814,0.233302170677211,0.7361017534567836,2.839201463604595
1780949341909455104,3.149898052215576,-0.0134233757853508,0.0008996650576591492,-0.011025688610970974,0.6532453894615173,-0.2311413586139679,-0.7210021615028381,-0.010499417781829834,-0.007597669959068298,0.01064455509185791,0.09821434169207738,-0.33693387223840604,0.16116598281043473,0.9224180693390407,0.23325064009348265,0.7361334210878615,2.8391426648138416
1780949341919489792,3.159932851791382,-0.017540888860821724,-0.017233265563845634,-0.01566464826464653,0.6531984806060791,-0.23087023198604584,-0.7211315631866455,-0.001495659351348877,-0.0032606273889541626,0.010483980178833008,0.0982666857545723,-0.3369030384049693,0.16102970227865093,0.9224476020422484,0.23297198610030967,0.7360084275423048,2.8391627086263287
1780949341929525760,3.169968843460083,-0.011091245338320732,-0.01064447220414877,-0.014683274552226067,0.6531052589416504,-0.23065069317817688,-0.7212861776351929,0.0009016990661621094,0.0010059177875518799,0.005481123924255371,0.09833262117415018,-0.33683976476584326,0.16092197571751862,0.9224823518282554,0.23274635220574885,0.7358306992949746,2.8391410045041874
1780949341939560960,3.1800038814544678,-0.0005981242284178734,0.002832986880093813,-0.009576397016644478,0.6531174182891846,-0.23057812452316284,-0.7212983965873718,-0.011256515979766846,0.021349623799324036,-0.00039654970169067383,0.09836559845703154,-0.3368435443830669,0.16089512662390118,0.9224821305779668,0.23267177549132093,0.735831552028045,2.839099219162752
1780949341949596928,3.190039873123169,0.0039348420687019825,-0.006508982740342617,-0.0057116178795695305,0.6530864834785461,-0.23070429265499115,-0.7212860584259033,0.006322085857391357,0.039130181074142456,-0.0009734630584716797,0.09838015724800701,-0.33681833484589424,0.16096697057362305,0.9224773506147365,0.23280143408845486,0.7358164767180931,2.839018469666697
1780949341959631872,3.2000749111175537,-0.007265081629157066,-0.008408082649111748,-0.0045060040429234505,0.6530250906944275,-0.23073941469192505,-0.7213304042816162,0.01300579309463501,0.002315342426300049,0.00030684471130371094,0.09839772140295329,-0.3367762518755096,0.16098617896081163,0.9224874289442145,0.2328375417068766,0.7357391098715227,2.8389793581781384
1780949341969667072,3.2101099491119385,0.00944332405924797,0.009461594745516777,0.003255245741456747,0.6530219316482544,-0.23075377941131592,-0.7213286757469177,-0.008872151374816895,-0.007115483283996582,0.017135560512542725,0.09839048684600596,-0.33677517044514843,0.1609911488130578,0.922487759764786,0.2328523014446425,0.7357379325237517,2.8389893740895644
1780949341979703040,3.2201459407806396,0.029072152450680733,0.022696971893310547,-0.004590160213410854,0.6531582474708557,-0.2309517115354538,-0.7211418747901917,-0.011999189853668213,0.019815847277641296,0.006359219551086426,0.0984019439715348,-0.33685224213403275,0.16111987692111743,0.9224359753234033,0.23305572440738567,0.7359706349361964,2.838842482614834
1780949341989737984,3.2301809787750244,0.03684352710843086,0.014785120263695717,-0.007526028901338577,0.653300940990448,-0.23121307790279388,-0.7209288477897644,-0.000743567943572998,0.006115421652793884,-0.0030549168586730957,0.0984767232878519,-0.33692048469901253,0.16130764830891162,0.922370187534653,0.23332436565322767,0.7362263089845219,2.83852792714579
1780949341999772928,3.240216016769409,0.028950180858373642,0.030906299129128456,0.001609944854862988,0.6534907221794128,-0.23146356642246246,-0.7206764221191406,-0.013582885265350342,-0.015179499983787537,0.006275177001953125,0.0985214090472391,-0.33702352565353016,0.16148357103522734,0.9222969980919179,0.2335818291687315,0.7365451605065616,2.8382720254088656
1780949342009808896,3.2502520084381104,0.018791286274790764,0.026784125715494156,0.01652577705681324,0.6536974906921387,-0.23169399797916412,-0.7204148173332214,-0.020289957523345947,-0.02671360969543457,0.0049912333488464355,0.09849748250666007,-0.3371496513791349,0.16162518856207667,0.9222287040380167,0.23381870048497083,0.7368832442578778,2.8381697366181253
1780949342019844096,3.260287046432495,0.016916153952479362,0.013488028198480606,0.019184943288564682,0.6537830829620361,-0.23184016346931458,-0.7202901244163513,0.003962278366088867,-0.007234543561935425,0.009367883205413818,0.09844601902405191,-0.3372077799021355,0.16169680554062701,0.9222003311662829,0.2339689676721369,0.7370345209032931,2.8381944548284257
1780949342029878784,3.270321846008301,0.018359854817390442,0.009876915253698826,0.0241666529327631,0.6538503766059875,-0.23191434144973755,-0.7202050685882568,0.017643094062805176,0.020671680569648743,0.0038812756538391113,0.09839988623687906,-0.33725565500172267,0.16172844736071,0.9221821373889836,0.23404521185523147,0.7371445411959212,2.8382445384543717
1780949342039914752,3.280357837677002,0.004637383855879307,0.013373645022511482,0.03174600750207901,0.6539002656936646,-0.23215089738368988,-0.7200835943222046,0.01252734661102295,0.01507936418056488,0.00665891170501709,0.09828083620689394,-0.3373010172018522,0.16182154395885653,0.92216196220744,0.23428840776037024,0.7372664061669769,2.8383837858268812
1780949342049948672,3.290391683578491,-0.019594451412558556,0.0069655473344028,0.026228472590446472,0.6539110541343689,-0.23235510289669037,-0.7200080156326294,0.010044634342193604,0.012720093131065369,0.009925007820129395,0.09811683271582652,-0.3373309479309244,0.16187599068342026,0.9221589787555267,0.23449836410148353,0.7373268988374092,2.838644631012554
1780949342059983616,3.300426721572876,-0.010878724977374077,0.004422495141625404,0.016722053289413452,0.6538794636726379,-0.23229703307151794,-0.7200554013252258,0.00816887617111206,0.016232579946517944,0.007866621017456055,0.09799925629727098,-0.3373335663457749,0.1617973241066225,0.9221843185594667,0.2344386551102693,0.7372701217498767,2.838933554740165
1780949342070019840,3.310462713241577,0.018192341551184654,0.013681240379810333,0.012305999174714088,0.6539044380187988,-0.23237140476703644,-0.7200086712837219,-0.0076337456703186035,0.019847005605697632,-0.005027949810028076,0.09793855340387314,-0.3373577439112606,0.1618191169174409,0.922178002872566,0.23451511577346332,0.7373214164170104,2.839025395828906
1780949342080054528,3.320497512817383,0.0375274233520031,0.026561619713902473,0.01623549312353134,0.6539833545684814,-0.23275217413902283,-0.7198139429092407,-0.02768641710281372,0.023081183433532715,-0.010563194751739502,0.09789356295876298,-0.3374044040986805,0.1620224996021195,0.9221300026742649,0.23490662650280325,0.737516085585876,2.8389315799661623
1780949342090089472,3.3305325508117676,0.04194614291191101,0.0395185612142086,0.025120863690972328,0.6541216373443604,-0.23333317041397095,-0.7195001840591431,-0.01973748207092285,0.015925943851470947,-0.004071593284606934,0.09782134840778303,-0.33748738402731016,0.16233353378854976,0.9220526018550983,0.23550407126413392,0.7378382991497415,2.838791525710254
1780949342100125440,3.3405685424804688,0.02689528465270996,0.033702485263347626,0.030894329771399498,0.6543462872505188,-0.23379136621952057,-0.7191470265388489,-0.008563816547393799,-0.02188490331172943,0.009109854698181152,0.0977056901213898,-0.3376350974918624,0.16257003161506842,0.9219691345358871,0.23597529426309524,0.7382536152321879,2.838779823267754
1780949342110160640,3.3506035804748535,0.019236300140619278,0.02668905258178711,0.04315871745347977,0.6545529961585999,-0.23407341539859772,-0.7188672423362732,0.008456647396087646,-0.022762537002563477,0.014475762844085693,0.09758360536500238,-0.33777750734796086,0.1627044462182591,0.9219063063782514,0.23626539765405558,0.7386045559136063,2.8388662053835017
1780949342120196608,3.3606395721435547,-0.004591001663357019,0.01831873692572117,0.04063403978943825,0.6546679139137268,-0.23432812094688416,-0.7186795473098755,0.020258843898773193,-0.022431522607803345,0.01865208148956299,0.09739651129983116,-0.33787526104204174,0.16278987814269644,0.9218750803732109,0.23652738858128988,0.7388219422965051,2.839128168364342
1780949342130231552,3.3706746101379395,-0.01423856895416975,0.022002819925546646,0.03413566201925278,0.6547951102256775,-0.2344241738319397,-0.7185323238372803,0.00731426477432251,-0.0381740927696228,0.017238378524780273,0.09719693662839209,-0.3379870217676465,0.16278394047861997,0.9218562511494979,0.2366262002102586,0.7390206420305436,2.8394863186442487
1780949342140266752,3.380709648132324,-0.006486906204372644,0.021696290001273155,0.01808399334549904,0.654928982257843,-0.23442940413951874,-0.7184085845947266,-0.011877834796905518,-0.020422890782356262,0.013818740844726562,0.09704819481686007,-0.33809636853069497,0.16274690927976967,0.9218383812335302,0.23663158049896815,0.7392081937583044,2.839773762509752
1780949342150302720,3.3907456398010254,0.00976982805877924,0.014174990355968475,0.002077063312754035,0.6550104022026062,-0.2344168722629547,-0.7183384299278259,-0.014797389507293701,0.005367189645767212,0.005386769771575928,0.09700761522998945,-0.3381544725684589,0.16273394988352463,0.9218236176004009,0.23661868982310735,0.7393187007529922,2.8398474738449715
1780949342160337664,3.40078067779541,0.016689253970980644,0.00927317701280117,-0.0019754688255488873,0.6550034880638123,-0.2343963384628296,-0.718351423740387,-0.018086373805999756,-0.00231325626373291,-0.002916276454925537,0.09703589507877113,-0.3381457122933608,0.1627321742548648,0.9218241090349484,0.23659756168360144,0.7393043975973791,2.839797082564211
1780949342170372608,3.410815715789795,0.030600806698203087,0.007926815189421177,-0.004009857773780823,0.6550214290618896,-0.23447801172733307,-0.7183084487915039,-0.01660895347595215,0.009639754891395569,0.00042819976806640625,0.09708986303452682,-0.3381451956721647,0.16279926059858751,0.9218068781874286,0.23668157866119874,0.7393478575772795,2.839638606929667
1780949342180408832,3.420851707458496,0.03508051112294197,-0.0037338356487452984,0.005708816461265087,0.6550152897834778,-0.2348308563232422,-0.718198835849762,0.0004565119743347168,0.03317070007324219,-0.0056171417236328125,0.09712025126641831,-0.3381268174066026,0.1630056803726829,0.9217739483716766,0.237044554747619,0.7394191802891581,2.8394138765695844
1780949342190443520,3.4308865070343018,0.010450265370309353,-0.011306799948215485,0.009937383234500885,0.6549726724624634,-0.23515689373016357,-0.718130886554718,0.012339949607849121,0.013522982597351074,-0.000893712043762207,0.09711146432622575,-0.33809346016853487,0.1631789080060403,0.9217563835887966,0.23737998996765147,0.7394338737942,2.8392951244562643
1780949342200478464,3.4409215450286865,-0.004378214944154024,-0.010831158608198166,0.014925484545528889,0.6549241542816162,-0.23535354435443878,-0.7181107997894287,0.007398843765258789,-0.0024699419736862183,0.011354207992553711,0.09705532959474897,-0.3380681210241036,0.16326223948052238,0.921756815772033,0.23758230823193796,0.7394109174822608,2.839339461171692
1780949342210514432,3.4509575366973877,0.0042578838765621185,-0.007435895968228579,0.01168628130108118,0.6548430919647217,-0.23561573028564453,-0.7180987000465393,-0.003353893756866455,0.012257590889930725,0.006733953952789307,0.09696366663280498,-0.33802721673747044,0.16336541530558868,0.9217631716418878,0.23785208673285552,0.7393576937854601,2.839439082566735
1780949342220549632,3.4609925746917725,0.009971429593861103,0.005970989819616079,0.009431116282939911,0.6547945141792297,-0.2358563393354416,-0.71806401014328,-0.011972248554229736,0.01933412253856659,-0.007659256458282471,0.0969084494738106,-0.33800059070059885,0.16347351401370191,0.9217596330499772,0.2380996809150012,0.739344798878759,2.8394614983436877
