time,seconds_elapsed,rotationRateX,rotationRateY,rotationRateZ,gravityX,gravityY,gravityZ,accelerationX,accelerationY,accelerationZ,quaternionW,quaternionX,quaternionY,quaternionZ,pitch,roll,yaw
1781516122070283776,0.24540972709655762,0.004183019045740366,-0.3997233808040619,0.7056356072425842,-0.7406733632087708,-0.6687598824501038,0.06452304869890213,0.07790791988372803,0.04641491174697876,-0.05767178535461426,0.47151889354111637,-0.055145306359142256,-0.72747544186919,-0.495387178426096,0.7325395704020851,-1.657690993679428,-0.827544832918431
1781516122080317696,0.255443811416626,-0.04721332713961601,-0.07355408370494843,0.5578317642211914,-0.7414674758911133,-0.6677089333534241,0.0662655234336853,0.044430673122406006,0.030196726322174072,-0.01665913313627243,0.4710751402165393,-0.05615445249436794,-0.7279968668943817,-0.49492993909771,0.7311269112780716,-1.6599302928997428,-0.8274679464369759
1781516122090351872,0.26547789573669434,-0.10450058430433273,0.3171593248844147,0.31688761711120605,-0.7422257661819458,-0.6667078733444214,0.06783446669578552,-0.0009382963180541992,0.006856799125671387,0.0010741949081420898,0.4705861821276975,-0.057246308636745964,-0.7284504746736907,-0.49460225739489155,0.7297829171427259,-1.6619364412199322,-0.827843096031932
1781516122100385792,0.2755117416381836,-0.08025170117616653,0.639234721660614,0.02033344656229019,-0.7430531978607178,-0.6656507253646851,0.06914358586072922,-0.06384676694869995,-0.023069918155670166,0.031594984233379364,0.47019805993359187,-0.058344749113094584,-0.7288125163697031,-0.4943095199756707,0.7283654964797622,-1.6635824812447289,-0.8284136893074775
1781516122110419712,0.28554582595825195,-0.1260325014591217,0.8503384590148926,-0.25216811895370483,-0.7438153028488159,-0.6646996140480042,0.07009628415107727,-0.09561651945114136,-0.058628082275390625,0.036837346851825714,0.4699251518209824,-0.05930793618120155,-0.7290615283076699,-0.4940873679294452,0.7270916655297822,-1.664757660737158,-0.8290681786738213
1781516122120453632,0.2955796718597412,-0.039759136736392975,0.91255784034729,-0.39232441782951355,-0.7446836233139038,-0.6636797785758972,0.07053875178098679,-0.09720486402511597,-0.04901254177093506,0.042879827320575714,0.46983173722948923,-0.06027187429510708,-0.7291341967143068,-0.493952316159382,0.7257274615560421,-1.665237653931956,-0.830111690829569
1781516122130487808,0.30561375617980957,0.07665375620126724,0.8001577854156494,-0.48768237233161926,-0.7458997368812561,-0.662149965763092,0.07205061614513397,-0.05157047510147095,-0.032842159271240234,0.0028241947293281555,0.469840500845234,-0.06116343758075529,-0.7295781934771695,-0.4931781641787669,0.7236841393090891,-1.66709313964524,-0.8293921344651785
1781516122140521728,0.31564784049987793,0.07710303366184235,0.6346156001091003,-0.469136118888855,-0.7472158074378967,-0.6604821085929871,0.07370322942733765,-0.04488325119018555,-0.07125318050384521,-0.06819473952054977,0.46986903885840514,-0.06210057297769215,-0.730065155886943,-0.49231248179611836,0.7214606649680778,-1.6691154269917432,-0.8285210099664662
1781516122150555648,0.3256816864013672,0.12613022327423096,0.3667127788066864,-0.34142929315567017,-0.7490429878234863,-0.6582152843475342,0.07541380077600479,-0.06969785690307617,-0.06308293342590332,-0.05238831043243408,0.4700807288687711,-0.0633212221597669,-0.730545908071551,-0.49124048540340787,0.718445615172104,-1.6711384027894602,-0.8276937425526844
1781516122160589568,0.33571577072143555,0.2667241096496582,0.004434590227901936,-0.17522352933883667,-0.7511998414993286,-0.6554467678070068,0.07802804559469223,-0.006658434867858887,-0.024423837661743164,-0.10480725765228271,0.4702846043532185,-0.06467167396324035,-0.7313218163848169,-0.48971255763247007,0.714774026773185,-1.6742963894329754,-0.8258575687668797
1781516122170623744,0.3457498550415039,0.2993004024028778,-0.30808576941490173,0.007912997156381607,-0.7534823417663574,-0.6523807048797607,0.08163153380155563,0.0607486367225647,-0.06379050016403198,-0.12658393383026123,0.4703644392743974,-0.06608059784704352,-0.7324268705162569,-0.4877924571688583,0.7107213939388816,-1.6787144278014374,-0.8230020534686274
1781516122180657664,0.35578370094299316,0.21010608971118927,-0.5421332716941833,0.2714652717113495,-0.7561110854148865,-0.6488997340202332,0.08500145375728607,0.049949586391448975,-0.11175090074539185,-0.055918216705322266,0.47054322074532784,-0.06781531762886199,-0.7334178964474605,-0.48588930632162075,0.7061375088189229,-1.6827455633509691,-0.8208248005228918
1781516122190691584,0.3658177852630615,0.27284377813339233,-0.5680344104766846,0.33722883462905884,-0.7585372924804688,-0.6457070708274841,0.08765522390604019,0.047676146030426025,-0.1130208969116211,0.001700274646282196,0.4708699790834438,-0.06931914503833557,-0.7341814958666185,-0.48420431195456176,0.7019489256255795,-1.6858442580246276,-0.8190178480732335
1781516122200726784,0.3758528232574463,0.2103029042482376,-0.8744656443595886,0.7150861024856567,-0.7611663341522217,-0.6422534584999084,0.09020247310400009,0.07647383213043213,-0.03741884231567383,0.017188914120197296,0.47140526221554024,-0.07078307912186216,-0.7349088336584085,-0.48236492466419784,0.6974346170405097,-1.688751811516605,-0.8169437867674102
1781516122210760704,0.38588666915893555,-0.0679289922118187,-1.0114961862564087,0.9477726221084595,-0.7647455930709839,-0.6375835537910461,0.09301333129405975,0.1388300657272339,-0.027150332927703857,0.03264284133911133,0.47170315977401794,-0.07364717689943612,-0.7355832782358043,-0.48061368450828923,0.6913575068393197,-1.6918283559596587,-0.8171507339481443
1781516122220794624,0.3959207534790039,-0.02991742640733719,-0.9714307188987732,1.0039056539535522,-0.7682481408119202,-0.6330020427703857,0.09541063755750656,0.12841659784317017,-0.25263333320617676,0.011507749557495117,0.47173837369688887,-0.07697777569052208,-0.736056885910806,-0.47933033854251783,0.6854249596034967,-1.694356139224633,-0.8191302791485733
1781516122230828800,0.40595483779907227,-0.0002777760673779994,-0.7896766066551208,1.1284897327423096,-0.7719842791557312,-0.6281064748764038,0.09758369624614716,0.06296932697296143,-0.1901613473892212,-0.028690218925476074,0.47206679892232245,-0.08023015661990238,-0.7364475337486631,-0.47787143703656476,0.6791174032992985,-1.696535773513688,-0.8207924139146715
1781516122240862720,0.4159886837005615,0.14139068126678467,-0.6261183619499207,1.1589677333831787,-0.7762144804000854,-0.6224568486213684,0.10019173473119736,0.0394744873046875,0.030110716819763184,0.00436149537563324,0.4728312095699658,-0.08331142697625141,-0.7369905513377298,-0.47574648827603044,0.6718779228514312,-1.699163935428808,-0.8208633630021624
1781516122250896640,0.4260227680206299,0.08481208235025406,-0.44824129343032837,1.13474440574646,-0.7806782126426697,-0.6164022088050842,0.10290588438510895,0.06540733575820923,-0.028220534324645996,-0.011704102158546448,0.47378580380260343,-0.08639311288804659,-0.7375562166010309,-0.47336452539104346,0.6641655001087478,-1.701856743721115,-0.8204825534479752
1781516122260930816,0.43605685234069824,-0.07419327646493912,-0.32098665833473206,1.101283073425293,-0.7853997349739075,-0.6099939942359924,0.10514112561941147,0.06610041856765747,-0.12134450674057007,-0.008736133575439453,0.47474160465413257,-0.08996709909848037,-0.7378864978310598,-0.4712216992111645,0.6560530299832236,-1.7038746920042838,-0.8215249848606525
1781516122270964736,0.4460906982421875,-0.1375402957201004,-0.18647465109825134,1.0371400117874146,-0.7903895378112793,-0.6032130122184753,0.1068570464849472,0.0619196891784668,-0.15759021043777466,0.0032198429107666016,0.47569254608069406,-0.09407707073574928,-0.7379553028325118,-0.4693485614590603,0.6475234330395392,-1.7051769736488989,-0.8241132358729821
1781516122280998656,0.45612478256225586,-0.03430604934692383,-0.0854640081524849,0.9749683141708374,-0.7955954670906067,-0.595980167388916,0.10878998041152954,0.04263538122177124,-0.12365478277206421,-0.01926662027835846,0.47672100365564096,-0.09834078582871204,-0.7380542526279593,-0.46727078898975843,0.6384857076457605,-1.7066938282565542,-0.8265356610381023
1781516122291032832,0.4661588668823242,-0.045713167637586594,-0.02454020269215107,0.8864248394966125,-0.8008822202682495,-0.5884066820144653,0.11120042949914932,0.03003859519958496,-0.12556731700897217,-0.05060778558254242,0.4778130987403888,-0.10255343147517906,-0.7382973717224103,-0.4648597415510689,0.6290869031258074,-1.7087616648955486,-0.8281626315229257
1781516122301066752,0.4761927127838135,-0.10188429802656174,-0.01052678283303976,0.8693936467170715,-0.8062414526939392,-0.5806227922439575,0.11336668580770493,0.007703244686126709,-0.14558875560760498,-0.02640676498413086,0.4789039427216631,-0.10700894103704266,-0.7383985566030821,-0.46256644897476357,0.6194934169551329,-1.7104917971995452,-0.8305037100264677
1781516122311100672,0.48622679710388184,-0.18504495918750763,-0.040786415338516235,0.8326327204704285,-0.8117159008979797,-0.572576642036438,0.11521027982234955,0.018060505390167236,-0.1378268003463745,0.010888338088989258,0.4800103431775801,-0.11176225954258812,-0.7383185876495364,-0.46041826296051364,0.6096452356488306,-1.711788821642641,-0.8337115601351252
1781516122321134848,0.4962608814239502,-0.2686309218406677,-0.11576478183269501,0.8254789710044861,-0.8170576691627502,-0.5646374225616455,0.11662543565034866,0.044154226779937744,-0.10896182060241699,0.009183287620544434,0.48097047635462575,-0.11678513230240983,-0.7380202903628001,-0.4586444535993986,0.5999938822750381,-1.712576928581422,-0.8381601126812294
1781516122331168768,0.5062947273254395,-0.3409157693386078,-0.1920614242553711,0.8677630424499512,-0.8223676085472107,-0.5566294193267822,0.11779296398162842,0.03946971893310547,-0.095103919506073,0.023930661380290985,0.4818192340284999,-0.12210448240940676,-0.7375547271535714,-0.45711456954305957,0.5903230711846703,-1.7130650196429276,-0.8435965412567675
1781516122341202688,0.5163288116455078,-0.3187311291694641,-0.2569425404071808,0.9665324687957764,-0.827818751335144,-0.5482746958732605,0.11878964304924011,0.0005483031272888184,-0.079395592212677,0.00140380859375,0.48273241719341503,-0.12765079128458148,-0.7369532538415754,-0.45560356143576974,0.5802998243866688,-1.7133205472085633,-0.8494928771022298
1781516122351237888,0.5263638496398926,-0.2734701633453369,-0.3375023901462555,1.0564889907836914,-0.8335006237030029,-0.5392950773239136,0.12015669047832489,-0.01310276985168457,-0.050151944160461426,-0.05494058132171631,0.48376438740658273,-0.13333445704810087,-0.7364103937534614,-0.45375514225775826,0.5695998063272706,-1.713969053533922,-0.8549312377824864
1781516122361271552,0.5363976955413818,-0.2968202233314514,-0.3848608136177063,1.102919340133667,-0.8391709923744202,-0.5300714373588562,0.12172264605760574,0.003172457218170166,-0.0158117413520813,-0.07773149013519287,0.48477904471822963,-0.1391067977474236,-0.7358740524744869,-0.4518052715357661,0.5586848026261506,-1.714842756861402,-0.8603014311885828
1781516122371305728,0.5464317798614502,-0.3199540376663208,-0.44220322370529175,1.1320825815200806,-0.8447319865226746,-0.5207615494728088,0.1234314814209938,0.01450127363204956,0.014368116855621338,-0.06082463264465332,0.48569378671788327,-0.14498758239351833,-0.7353192113185538,-0.4498731299586569,0.5477427926305753,-1.7158886369798818,-0.8658614688897638
1781516122381339904,0.5564658641815186,-0.4062444567680359,-0.4811839163303375,1.0753849744796753,-0.8499251008033752,-0.5118100643157959,0.12521038949489594,0.023951709270477295,0.007461369037628174,-0.06344284117221832,0.48629734715582507,-0.15097295256577603,-0.7347192392711969,-0.44822942524709225,0.5372904143681874,-1.7170635594555732,-0.8720913693780935
1781516122391373568,0.5664997100830078,-0.4037650525569916,-0.5199648141860962,1.0243725776672363,-0.8546535968780518,-0.5033420920372009,0.12733452022075653,0.006051301956176758,-0.03706318140029907,-0.05891406536102295,0.48652427218690597,-0.15695349264094235,-0.7341885748328284,-0.4467962737550328,0.5274621855827324,-1.7186979931345374,-0.8786129963687038
1781516122401407744,0.5765337944030762,-0.2535845935344696,-0.5879707932472229,0.9764572978019714,-0.8589518070220947,-0.4951767921447754,0.1303916573524475,-0.009624361991882324,-0.061662256717681885,-0.05730198323726654,0.48645740542318966,-0.16269933993255892,-0.7339787159000715,-0.4451555476088158,0.5180383171463859,-1.7214493619041853,-0.8842056935464626
1781516122411441920,0.5865678787231445,-0.23813533782958984,-0.6539152264595032,0.9176262021064758,-0.8627829551696777,-0.4873211979866028,0.1346234828233719,-0.014582037925720215,-0.04792657494544983,-0.09751404821872711,0.4860833284794192,-0.16812572979169452,-0.7341971650618045,-0.44318300516530335,0.5090193819810971,-1.725582213825658,-0.8884837660864687
1781516122421475584,0.5966017246246338,-0.3311656713485718,-0.6871933937072754,0.8974772095680237,-0.8662500977516174,-0.4798513948917389,0.1391156166791916,-0.04187661409378052,-0.02495509386062622,-0.0497143417596817,0.4853768712706161,-0.17362512684807047,-0.7344468161784524,-0.4414197409306798,0.5004853364896558,-1.7300318904732557,-0.8932353267793947
1781516122431509760,0.6066358089447021,-0.45220157504081726,-0.6943919658660889,0.8872852921485901,-0.8695444464683533,-0.47263169288635254,0.14321978390216827,-0.0640493631362915,0.02979111671447754,0.016783952713012695,0.48445555319335715,-0.1794186519583043,-0.7344513885368891,-0.4401056460233273,0.49227466556092525,-1.7340374010068729,-0.8993742185959076
1781516122441543936,0.6166698932647705,-0.5071048140525818,-0.7270259857177734,0.8427825570106506,-0.8726041913032532,-0.46572837233543396,0.14716991782188416,-0.042648494243621826,0.09281882643699646,0.009553074836730957,0.4833303406858292,-0.18533338729435664,-0.7343272370227653,-0.4390977375127206,0.4844575040569859,-1.737879917771926,-0.9063179509041887
1781516122451577600,0.6267037391662598,-0.5795906782150269,-0.7375953197479248,0.7810012102127075,-0.8752729892730713,-0.45942822098731995,0.15107248723506927,-0.004945516586303711,0.12452831864356995,0.02315235137939453,0.48189461357263597,-0.19126533890165515,-0.7341347397521064,-0.4384533686638648,0.4773513576768341,-1.7417127735248552,-0.9139663755106413
1781516122461611776,0.6367378234863281,-0.5889368057250977,-0.6957495808601379,0.7168347835540771,-0.8776043057441711,-0.45374804735183716,0.1546718329191208,-0.021672427654266357,0.15289050340652466,0.08196139335632324,0.4803220886100374,-0.19703170326084793,-0.7338354189953271,-0.4381264414199429,0.4709668012910181,-1.7452480348585924,-0.9219972156541679
1781516122471645696,0.6467716693878174,-0.5001459717750549,-0.6740301847457886,0.6716299653053284,-0.8796842098236084,-0.44846612215042114,0.15822038054466248,-0.059036433696746826,0.15243035554885864,0.07488809525966644,0.47880370691127416,-0.2023882289477035,-0.7335865304804594,-0.4377633407396988,0.4650484561810804,-1.7487540810383617,-0.9293569419217921
1781516122481679616,0.6568057537078857,-0.5007047057151794,-0.6647894382476807,0.5930483937263489,-0.8814448714256287,-0.4436667859554291,0.1619100719690323,-0.06965070962905884,0.09065470099449158,0.032074928283691406,0.47721977809550054,-0.20738213650440668,-0.7334491707597576,-0.4373857921081436,0.4596860603891474,-1.7524583596201861,-0.936112616800371
1781516122491714560,0.6668405532836914,-0.5543212890625,-0.6660666465759277,0.5315117835998535,-0.8828315734863281,-0.4395865201950073,0.16544581949710846,-0.07311636209487915,0.051769137382507324,0.048390865325927734,0.47485571081770367,-0.21314950720190756,-0.7330008144073006,-0.43793746716710097,0.4551382772627764,-1.7560511500803044,-0.9457666961946114
1781516122501748480,0.6768746376037598,-0.5532017350196838,-0.6791279911994934,0.497446745634079,-0.8839653134346008,-0.4359489381313324,0.16897866129875183,-0.061667561531066895,0.08235704898834229,0.04411028325557709,0.4729222825906622,-0.21782603844681553,-0.7328309150533046,-0.4380127202674696,0.45109243086483025,-1.7596774665491288,-0.9528722405356791
1781516122511782400,0.686908483505249,-0.6104016304016113,-0.6754932999610901,0.4386638402938843,-0.8848497867584229,-0.4327857792377472,0.17244578897953033,-0.0492781400680542,0.09817573428153992,0.022698894143104553,0.47081487408573863,-0.22242815007013658,-0.7326312947419431,-0.43830420122853786,0.4475806714964514,-1.7632708150209158,-0.9602656108697767
1781516122521816576,0.6969425678253174,-0.6544601321220398,-0.648386538028717,0.3920827805995941,-0.8854782581329346,-0.43022266030311584,0.17560343444347382,-0.05449354648590088,0.10308957099914551,0.05526205897331238,0.4685741208120699,-0.2268914580382779,-0.7323400738885336,-0.43890374136564314,0.4447394226822281,-1.7665709744490965,-0.9680396331029788
1781516122531850496,0.7069766521453857,-0.5829750299453735,-0.6075690388679504,0.3854309916496277,-0.886035144329071,-0.4278847575187683,0.1784830093383789,-0.061581313610076904,0.13273406028747559,0.0628957450389862,0.4664091002782349,-0.23116298013544048,-0.7319871469743271,-0.43956904616818027,0.44215116575606406,-1.769576226223318,-0.9756907651139257
1781516122541884416,0.717010498046875,-0.5593149662017822,-0.5930410623550415,0.3521246910095215,-0.886536180973053,-0.4256185293197632,0.18139055371284485,-0.05473273992538452,0.14230859279632568,0.02147507667541504,0.4643678913425754,-0.23515491568299965,-0.731708579168011,-0.44007636387855786,0.43964529375101785,-1.772616715876838,-0.9826340541510457
1781516122551918592,0.7270445823669434,-0.6460744142532349,-0.5885469913482666,0.34100839495658875,-0.8869278430938721,-0.42364808917045593,0.18406863510608673,-0.043308913707733154,0.12256169319152832,-0.015443697571754456,0.4622626160532336,-0.23910747886772393,-0.7313425553204752,-0.44077086712468216,0.43746890105484026,-1.7754265389795854,-0.9898952833963001
1781516122561952256,0.7370784282684326,-0.6218675971031189,-0.5949573516845703,0.32313406467437744,-0.8872171640396118,-0.42192599177360535,0.18661244213581085,-0.023808836936950684,0.10915133357048035,-0.019330382347106934,0.4600265389545518,-0.2431276823298113,-0.7308865534937281,-0.44166660741110064,0.4355686187428277,-1.7781089422555474,-0.9976589654412545
1781516122571986432,0.747112512588501,-0.49841752648353577,-0.6157688498497009,0.30914953351020813,-0.8874287605285645,-0.4201146066188812,0.18966732919216156,0.004326462745666504,0.1150456964969635,-0.03663697838783264,0.4578249195940044,-0.24694049648281027,-0.7306531727586913,-0.44222460922898565,0.4335716032897893,-1.7813552438105873,-1.0044372040134175
1781516122582020608,0.7571465969085693,-0.37044757604599,-0.5770684480667114,0.24843132495880127,-0.8874590396881104,-0.418465793132782,0.19313985109329224,0.015327692031860352,0.14879721403121948,0.03360581398010254,0.45570478334913883,-0.25030440696487677,-0.7306966717843383,-0.442451463647283,0.43175543845254327,-1.7850872189643157,-1.0098497335094385
1781516122592054272,0.7671804428100586,-0.29322683811187744,-0.43548792600631714,0.21433433890342712,-0.8874207735061646,-0.41703641414642334,0.19637948274612427,-0.045715153217315674,0.12043610215187073,0.12817488610744476,0.45393666466175503,-0.2530061498775003,-0.7308745624883387,-0.44243840152650044,0.4301822017497656,-1.7885790306972273,-1.0138028681651914
1781516122602088448,0.777214527130127,-0.2955182194709778,-0.21295911073684692,0.18478816747665405,-0.8876055479049683,-0.4158630967140198,0.19802626967430115,-0.13493168354034424,0.07946783304214478,0.17096173763275146,0.45279432454113444,-0.2551497423009982,-0.7306926446589961,-0.4426784621169598,0.42889163635961575,-1.7903031591685938,-1.0175391938990985
1781516122612122624,0.7872486114501953,-0.15137727558612823,-0.09300128370523453,0.13327650725841522,-0.8880043029785156,-0.4148887097835541,0.19828228652477264,-0.14184188842773438,0.10923993587493896,0.15778160095214844,0.4523346052956723,-0.2565998913011359,-0.7302723042814953,-0.4430037529689451,0.4278204987230972,-1.7904823629275377,-1.0205000932018262
1781516122622157568,0.7972836494445801,0.023615572601556778,-0.03366272896528244,0.03453528508543968,-0.8882296085357666,-0.41423049569129944,0.19864894449710846,-0.0450284481048584,0.11486831307411194,0.051717281341552734,0.452235220529562,-0.2571478932100371,-0.7302050627234284,-0.4428983007059186,0.4270971895355823,-1.7908215777066885,-1.0211870269392758
1781516122632191488,0.8073174953460693,0.2955869138240814,-0.011581925675272942,-0.0017721210606396198,-0.8882493376731873,-0.41381222009658813,0.19943170249462128,0.007832229137420654,0.05500170588493347,-0.07034225761890411,0.4523733266053302,-0.2569280405535298,-0.7305503628609532,-0.4423151543025288,0.4266376690976672,-1.791655954521178,-1.0196932822921752
1781516122642225408,0.8173515796661377,0.4837197959423065,-0.0454418882727623,-0.02576081082224846,-0.8881255388259888,-0.4131726920604706,0.20129984617233276,0.003634512424468994,-0.06181815266609192,-0.180029034614563,0.4527519896237864,-0.2560191446292644,-0.731508113948767,-0.440869377742225,0.4259353043866451,-1.7936873462486056,-1.0153900337500286
1781516122652259328,0.827385425567627,0.6584298014640808,-0.05524817854166031,-0.025510208681225777,-0.8879343867301941,-0.41217535734176636,0.204166442155838,-0.0014851093292236328,-0.13453176617622375,-0.22047819197177887,0.45325958102840364,-0.2547384177773078,-0.732933531356862,-0.43871688247670454,0.4248403957644539,-1.7968021818689308,-1.0091041939734555
1781516122662293504,0.8374195098876953,0.7532196640968323,0.027024321258068085,-0.09697533398866653,-0.8876568078994751,-0.4112374484539032,0.20724177360534668,-0.010261893272399902,-0.1044028103351593,-0.15214228630065918,0.45396442170397977,-0.2529575093875434,-0.7345974309793344,-0.43622863203589884,0.42381119791473176,-1.800158441361781,-1.0013900289223903
1781516122672327424,0.8474535942077637,0.8504226803779602,0.10800386220216751,-0.15829701721668243,-0.8872773051261902,-0.4106996953487396,0.20991630852222443,-0.03540647029876709,-0.03447553515434265,-0.08294782042503357,0.4549560724771254,-0.25050779142237656,-0.7363450283584221,-0.43365524924118676,0.42322132853868827,-1.8031095957301873,-0.9924923744779143
1781516122682361344,0.8574874401092529,0.8698315024375916,0.198724165558815,-0.24841944873332977,-0.8867726922035217,-0.41064202785491943,0.21214953064918518,-0.03089088201522827,-0.016390442848205566,-0.005698204040527344,0.4561650940328987,-0.2474560337911434,-0.7381329645600238,-0.4310901035390178,0.42315807955401374,-1.8056204719986122,-0.9826884313980224
1781516122692395520,0.8675215244293213,0.8568859100341797,0.3317325711250305,-0.31822916865348816,-0.8861576318740845,-0.4113592207431793,0.21332702040672302,-0.05677449703216553,7.382035255432129e-05,0.05765390396118164,0.4575925018999021,-0.24384747350274696,-0.739730977656935,-0.4288888734512729,0.42394479567979126,-1.807033879953885,-0.9727505360420979
1781516122702429440,0.8775556087493896,0.865158200263977,0.45593026280403137,-0.3546643853187561,-0.8856162428855896,-0.41252854466438293,0.21331734955310822,-0.09779751300811768,0.007621318101882935,0.07878172397613525,0.4593959788684581,-0.23975444810757382,-0.7410644246299168,-0.4269622133788367,0.4252280739715807,-1.8071626697876457,-0.9626814156285743
1781516122712463360,0.8875894546508789,0.9050251841545105,0.4962153732776642,-0.36774584650993347,-0.8851487636566162,-0.413845956325531,0.21270374953746796,-0.08581358194351196,0.0022401809692382812,0.052905887365341187,0.4614667636952056,-0.23534536302442857,-0.7422697869019123,-0.4250840461792511,0.4266747475640091,-1.806627617808127,-0.952295449523554
1781516122722497536,0.8976235389709473,0.9780109524726868,0.5114507675170898,-0.39580145478248596,-0.8846296072006226,-0.4152528941631317,0.21212077140808105,-0.03101968765258789,0.00793483853340149,0.007788866758346558,0.46362968962285517,-0.23066409840889923,-0.7435418342738696,-0.4230685641113004,0.428220791264631,-1.8061378608792054,-0.9412511284197972
1781516122732531456,0.9076576232910156,1.0552160739898682,0.4977775812149048,-0.39257368445396423,-0.8840640187263489,-0.41659876704216003,0.2118408977985382,0.00015276670455932617,0.02138081192970276,-0.03618165850639343,0.4658546855552872,-0.2257480378954643,-0.7449552128880044,-0.4207838978483928,0.4297007260406521,-1.8059835432429232,-0.9293518002667304
1781516122742565376,0.9176914691925049,1.2791743278503418,0.5110036730766296,-0.37804827094078064,-0.8835117220878601,-0.4175454378128052,0.21227994561195374,0.012646913528442383,0.033863186836242676,-0.06159937381744385,0.46821575475852123,-0.22052436826078553,-0.7466652351438557,-0.41789235789049656,0.43074231264408275,-1.806595059496266,-0.9158605318028742
1781516122752600320,0.9277265071868896,1.401120901107788,0.5412371754646301,-0.4043121039867401,-0.8830187916755676,-0.41811588406562805,0.2132066935300827,0.025016963481903076,0.07192438840866089,-0.09542414546012878,0.47084957126299715,-0.21482307507322881,-0.7486350210039058,-0.41436384777323004,0.43137019404174703,-1.8077138211143167,-0.900504844898151
1781516122762634496,0.937760591506958,1.5427987575531006,0.5325981378555298,-0.4429362118244171,-0.8823938369750977,-0.4187033176422119,0.21463705599308014,0.04029160737991333,0.15480250120162964,-0.08475419878959656,0.47357127783258884,-0.20860544873944026,-0.7508676947783386,-0.41038015826999474,0.43201696902748743,-1.809406421441035,-0.8835208644393693
1781516122772668416,0.9477944374084473,1.5404658317565918,0.5051207542419434,-0.4764566123485565,-0.8815847039222717,-0.41941678524017334,0.21655897796154022,0.05721348524093628,0.14710849523544312,-0.06142285466194153,0.4761822663060683,-0.20212241465766742,-0.753276852881233,-0.4061660791317466,0.43280277996309413,-1.8116742344461896,-0.8656947409681429
1781516122782702336,0.9578285217285156,1.4788419008255005,0.5321158766746521,-0.5135291218757629,-0.8806234002113342,-0.42048904299736023,0.21838366985321045,0.03446251153945923,0.09366104006767273,0.006530880928039551,0.47863465515102166,-0.1955867062614531,-0.7556041783859083,-0.4021405636933754,0.4339842479701149,-1.8138800583486367,-0.8481551781814403
1781516122792736512,0.967862606048584,1.482324481010437,0.5822967886924744,-0.5241618156433105,-0.879652738571167,-0.4218631982803345,0.21964164078235626,-0.016694247722625732,0.07573285698890686,0.05117140710353851,0.48113125294468667,-0.18894932673596226,-0.7577063916033934,-0.398361464784586,0.4354993600108849,-1.8154844475853757,-0.8310008293563741
1781516122802770432,0.9778964519500732,1.5561896562576294,0.5990935564041138,-0.5443512201309204,-0.8787218332290649,-0.42317256331443787,0.22084547579288483,-0.017411470413208008,0.09913697838783264,0.03447970747947693,0.4837542720118753,-0.18207539422843474,-0.7597837115609789,-0.39440965491932894,0.43694400449486714,-1.8170224235116055,-0.8132563619069191
1781516122812804352,0.9879305362701416,1.5454696416854858,0.6015617251396179,-0.5888462662696838,-0.8776447176933289,-0.4247061610221863,0.22218148410320282,0.022084295749664307,0.1292043924331665,0.03491392731666565,0.48632474815908944,-0.1749392142709713,-0.7618969828706508,-0.39038131779628626,0.438637292121574,-1.8187436183166559,-0.7949881021417925
1781516122822838528,0.99796462059021,1.4789299964904785,0.6282387971878052,-0.6099292039871216,-0.87644362449646,-0.4266204833984375,0.2232532501220703,0.03670644760131836,0.16996756196022034,0.07546812295913696,0.48880266448237036,-0.16773021245711991,-0.7638672676300676,-0.38658183541770635,0.44075283293041656,-1.8202183161080208,-0.7770556635565602
1781516122832872448,1.0079984664916992,1.391473412513733,0.6634268760681152,-0.6496241092681885,-0.8751987814903259,-0.4289201498031616,0.22372883558273315,0.030975759029388428,0.194423109292984,0.10506749153137207,0.4912527274146274,-0.16054565594438205,-0.7655648294566714,-0.3831531449719904,0.44329705599875874,-1.8210686530504163,-0.7598996954646992
1781516122842906368,1.0180325508117676,1.3016060590744019,0.6936927437782288,-0.7209435701370239,-0.8737603425979614,-0.4319273829460144,0.22356648743152618,0.032253265380859375,0.18427717685699463,0.12987282872200012,0.4936070694916874,-0.1532915255096425,-0.7669973628717734,-0.38022225536039334,0.4466286803215903,-1.821289264140274,-0.7435539805549665
1781516122852940544,1.028066635131836,1.3028154373168945,0.7255479097366333,-0.7562312483787537,-0.8721279501914978,-0.4355073869228363,0.22299383580684662,0.0365871787071228,0.1482606828212738,0.1422405242919922,0.49591209974868394,-0.14585926317020975,-0.7682590661684561,-0.3775901647544841,0.4506018482387659,-1.8211224611703323,-0.7274868599178501
1781516122862974464,1.0381004810333252,1.351560115814209,0.7414042353630066,-0.7540925145149231,-0.8704359531402588,-0.4391905665397644,0.22237971425056458,0.031431496143341064,0.08889457583427429,0.09944330155849457,0.4982562473474336,-0.1382396160070561,-0.7694671313865521,-0.37490105834732795,0.4546975105583421,-1.8209267417750579,-0.7110745862376123
1781516122873009408,1.04813551902771,1.3216559886932373,0.7155667543411255,-0.7070320248603821,-0.8688520193099976,-0.4425404667854309,0.22193318605422974,0.03283810615539551,0.05243420600891113,0.04396656155586243,0.5006331210046073,-0.1306844041586199,-0.7706414062551461,-0.37202150382382143,0.45842967606095886,-1.8208815019817817,-0.6944911717496516
1781516122883043584,1.0581696033477783,1.2527397871017456,0.652305006980896,-0.6590948700904846,-0.8673374652862549,-0.4455968141555786,0.22174087166786194,0.058682799339294434,0.04606074094772339,0.03364548087120056,0.502840798518359,-0.12351137382546434,-0.7717612176694695,-0.3691620616347993,0.4618408015924889,-1.8210920704072442,-0.6785432412336724
1781516122893077248,1.0682034492492676,1.0181796550750732,0.6381979584693909,-0.6667407751083374,-0.8657967448234558,-0.4487988352775574,0.22130464017391205,0.08405846357345581,0.06410950422286987,0.06592679023742676,0.5047843599939498,-0.11689495486969194,-0.7726499123951667,-0.3667976280511514,0.46542073123851174,-1.8210461630038375,-0.6643188220444214
1781516122903111424,1.078237533569336,0.7823488116264343,0.6759512424468994,-0.6545459032058716,-0.864255428314209,-0.45255982875823975,0.2196640968322754,0.057828426361083984,0.10967957973480225,0.12381124496459961,0.5066257894723045,-0.11084734890872369,-0.7730102939092725,-0.36537422780424406,0.46963387224959574,-1.8196918028342934,-0.652711597857742
1781516122913145600,1.0882716178894043,0.5881516337394714,0.699001133441925,-0.6648268103599548,-0.8627816438674927,-0.45673319697380066,0.2168014943599701,0.043109893798828125,0.12015476822853088,0.1491653025150299,0.5084733507934391,-0.10530754654386476,-0.7728590238194583,-0.36476597658520993,0.4743195150921165,-1.8169812139795742,-0.6434464125632035
1781516122923179264,1.0983054637908936,0.5255998373031616,0.6979358196258545,-0.6725313067436218,-0.8611886501312256,-0.4613710641860962,0.2132866233587265,0.06368792057037354,0.1085878312587738,0.1564491093158722,0.5102344439273617,-0.10001314114639322,-0.7724251966238448,-0.36471581880671505,0.4795399641070694,-1.8135765139764408,-0.6355812280616505
1781516122933213440,1.108339548110962,0.5097172856330872,0.6893498301506042,-0.6303750872612,-0.8596273064613342,-0.46589773893356323,0.2097155600786209,0.06351518630981445,0.06848254799842834,0.09735269844532013,0.5119853460320817,-0.09487956165984729,-0.7719168677967921,-0.3647100127998975,0.48464891097181273,-1.8100832295125941,-0.6280888019678714
1781516122943247616,1.1183736324310303,0.4536135494709015,0.6417990922927856,-0.5747565627098083,-0.858177125453949,-0.47011664509773254,0.20621007680892944,0.036948978900909424,-0.014090567827224731,0.02528110146522522,0.5136876736878779,-0.090074790417038,-0.7713569687833869,-0.3647191171690685,0.48942293480858706,-1.8066140628350118,-0.621168355977382
1781516122953281280,1.1284074783325195,0.4272083044052124,0.5922278165817261,-0.516729474067688,-0.8568788766860962,-0.47386544942855835,0.20300230383872986,0.03960299491882324,-0.038860321044921875,-0.002181321382522583,0.5152859123275462,-0.08569151843588546,-0.7708165238371243,-0.3646631235381946,0.4936752065867555,-1.8034165921368557,-0.6147891585092464
1781516122963315456,1.138441562652588,0.384645938873291,0.5498929619789124,-0.5048946738243103,-0.8555999398231506,-0.47743281722068787,0.20001596212387085,0.07888197898864746,0.007401168346405029,-0.020938783884048462,0.5167323167761243,-0.08162828408861066,-0.7702887780134311,-0.36466373909102223,0.4977307221758974,-1.800444948749652,-0.6089747436956277
1781516122973349632,1.1484756469726562,0.3133174180984497,0.5138196349143982,-0.5156705975532532,-0.8542124629020691,-0.4811045527458191,0.1971275359392166,0.09488946199417114,0.00887557864189148,0.002594694495201111,0.5179940514857067,-0.07778747805297424,-0.7697485791925095,-0.364853852009499,0.5019142442578135,-1.7975969243719623,-0.6037871113417775
1781516122983384320,1.158510446548462,0.26323428750038147,0.48942938446998596,-0.48792630434036255,-0.8527556657791138,-0.4848567247390747,0.1942201405763626,0.0663483738899231,-0.02290990948677063,0.013451904058456421,0.5191120559446236,-0.07418874128577996,-0.7691593464073787,-0.3652567329346634,0.5061993354813202,-1.7947323296374929,-0.5993235521133471
1781516122993418496,1.1685445308685303,0.2482585310935974,0.4789125621318817,-0.4401758313179016,-0.8514207005500793,-0.4883408546447754,0.19132651388645172,0.03979051113128662,-0.01968523859977722,0.005145654082298279,0.5202249734977333,-0.07082963473540377,-0.76853524493565,-0.3656537276731878,0.5101874847772739,-1.7918389469222407,-0.5952559116167275
1781516123003452416,1.1785786151885986,0.2203909456729889,0.42617928981781006,-0.3916197419166565,-0.8502421975135803,-0.49145716428756714,0.18856842815876007,0.0351330041885376,-0.022153645753860474,-0.017181649804115295,0.5213004968142962,-0.06777930990847612,-0.7679128726892476,-0.36600762733391684,0.5137621282870393,-1.78904574039818,-0.5916056547152487
1781516123013486336,1.188612461090088,0.2379307895898819,0.33470770716667175,-0.33674293756484985,-0.8491577506065369,-0.4941254258155823,0.18646970391273499,0.048651278018951416,-0.04495227336883545,-0.04788936674594879,0.5221695951073092,-0.06508186086630526,-0.76746283481608,-0.3662020809039984,0.5168285935812827,-1.7869590699838163,-0.5881185537263722
1781516123023520512,1.1986465454101562,0.19490982592105865,0.3006851375102997,-0.282343327999115,-0.8482058644294739,-0.49635422229766846,0.18487586081027985,0.06118816137313843,-0.03985482454299927,-0.07455481588840485,0.5228719943609161,-0.06276085309891621,-0.7671368900737621,-0.3662879620789481,0.5193940957577743,-1.7854010048122575,-0.5849452946077626
1781516123033554432,1.2086806297302246,0.1325918585062027,0.27996841073036194,-0.25952669978141785,-0.8474107980728149,-0.4983280897140503,0.18320509791374207,0.05557119846343994,0.020300745964050293,-0.012871265411376953,0.5235647398023089,-0.060746244945229316,-0.7667544879944969,-0.3664388552567573,0.5216692935362149,-1.783713421201907,-0.5823920570292198
1781516123043588352,1.2187144756317139,0.004340411629527807,0.22592690587043762,-0.2505539655685425,-0.8465828895568848,-0.5003774762153625,0.1814388930797577,0.056116461753845215,0.014751255512237549,0.015338554978370667,0.5240788764081216,-0.059105406378564686,-0.7663067231115241,-0.36690875287281527,0.5240347279210302,-1.7819215770140377,-0.5809403680763582
1781516123053622528,1.2287485599517822,-0.14721928536891937,0.23412944376468658,-0.22403448820114136,-0.8458008170127869,-0.5025287866592407,0.1791253238916397,0.023077428340911865,-0.013889670372009277,0.043805599212646484,0.5244867801459933,-0.05798821164297888,-0.7656370104844658,-0.3679007529835975,0.5265212109722752,-1.7794945789482115,-0.58126462008406
1781516123063656448,1.2387826442718506,-0.24276818335056305,0.24998576939105988,-0.21055355668067932,-0.8451437950134277,-0.5047135353088379,0.17605704069137573,-0.03228229284286499,-0.015260159969329834,0.08726392686367035,0.5249700184962367,-0.057221054597918604,-0.7646922722287579,-0.3692937745048873,0.5290500792571031,-1.7761751791549176,-0.5829767639078158
1781516123073690368,1.2488164901733398,-0.25668027997016907,0.22204867005348206,-0.18101085722446442,-0.8445537686347961,-0.5068503618240356,0.17271855473518372,-0.04474365711212158,-0.039292216300964355,0.05298948287963867,0.5254337968017808,-0.05671713417824733,-0.7636376400333517,-0.37089095256212967,0.5315271478274478,-1.7725233455959828,-0.5855083528147795
1781516123083724544,1.2588505744934082,-0.17714709043502808,0.20902861654758453,-0.1458486020565033,-0.8441124558448792,-0.5085760951042175,0.16977688670158386,-0.030185461044311523,-0.04313582181930542,-0.009040862321853638,0.5259084890869924,-0.05626545603427832,-0.7627074422608042,-0.3721984496040897,0.5335302310510824,-1.7692788118106235,-0.5875929928184129
1781516123093758464,1.2688844203948975,-0.1130535900592804,0.16083338856697083,-0.10955184698104858,-0.8437750339508057,-0.5099008083343506,0.16746751964092255,-0.012655198574066162,-0.030123114585876465,-0.06717140972614288,0.5263457687444173,-0.05579875183870542,-0.7619844216738918,-0.37313077091234353,0.5350694635385542,-1.7667242825055247,-0.5889188309008899
1781516123103793408,1.2789194583892822,-0.11057019233703613,0.09571896493434906,-0.08147121220827103,-0.8435047268867493,-0.5108881592750549,0.16580985486507416,0.011641442775726318,-0.03874868154525757,-0.106422558426857,0.5266283346623256,-0.05548977784016568,-0.7614629402992943,-0.37384164053868835,0.5362176078075429,-1.7648940771954302,-0.5899773770737137
1781516123113827584,1.2889535427093506,-0.08069698512554169,0.03895501792430878,-0.05457727983593941,-0.8432704210281372,-0.511610209941864,0.16477206349372864,0.021798372268676758,-0.04272627830505371,-0.10869599878787994,0.5267310506204249,-0.05535195937024631,-0.7611321768807773,-0.3743905693216089,0.5370578083135261,-1.7637615219109735,-0.5908846144901595
1781516123123861504,1.298987627029419,-0.09729833155870438,-0.0028723240830004215,-0.06192919984459877,-0.8430179953575134,-0.5122144222259521,0.16418534517288208,0.02078300714492798,-0.024406611919403076,-0.10031212866306305,0.526660089821994,-0.05535826489229135,-0.7609389844959626,-0.3748818418726769,0.5377611674228151,-1.7631474308807509,-0.5918006236689297
1781516123133895424,1.3090214729309082,-0.1269686073064804,-0.00899173691868782,-0.08343102782964706,-0.8426138162612915,-0.5130516290664673,0.16364595293998718,-0.014441847801208496,-0.020456671714782715,-0.03123009204864502,0.5264604553166617,-0.055381167363297054,-0.7607600817888938,-0.3755215535979527,0.5387362202265035,-1.7626206233802486,-0.5929489720903357
1781516123143929600,1.3190555572509766,-0.13437619805335999,-0.007419672794640064,-0.09335343539714813,-0.8421535491943359,-0.5140002965927124,0.16303737461566925,-0.06942182779312134,-0.0514293909072876,-0.003613591194152832,0.5262351358609928,-0.055400765150981364,-0.7605586360107326,-0.37624184133348965,0.5398418107845585,-1.7620264658013474,-0.5942338506963201
1781516123153963520,1.329089641571045,-0.14499154686927795,-0.017878705635666847,-0.10193999856710434,-0.8416417837142944,-0.5150469541549683,0.1623758226633072,-0.07272589206695557,-0.04777348041534424,-0.013526320457458496,0.5259750644939905,-0.05543579014282581,-0.7603386003666038,-0.37704427033492227,0.5410624092635306,-1.7613822297757953,-0.5956832642379203
1781516123163997440,1.3391234874725342,-0.12231846153736115,-0.03244619444012642,-0.11028208583593369,-0.841055154800415,-0.5161524415016174,0.1619044691324234,-0.034356892108917236,-9.810924530029297e-05,-0.008095860481262207,0.5256484961280834,-0.05541789881068231,-0.7601849058942379,-0.3778114619052879,0.5423526682507965,-1.7609716108382847,-0.5969381375118025
1781516123174031616,1.3491575717926025,-0.13756346702575684,-0.04371403157711029,-0.1127721443772316,-0.8404144644737244,-0.5173120498657227,0.16152894496917725,-0.023965299129486084,0.01566416025161743,-0.03053225576877594,0.525265054288087,-0.055396597443293706,-0.7600629509716805,-0.3785922381598486,0.5437071123015785,-1.7606822367544595,-0.5981791825512471
1781516123184065280,1.3591914176940918,-0.15790894627571106,-0.07444504648447037,-0.10866448283195496,-0.8397480845451355,-0.5184763669967651,0.1612606942653656,-0.032520413398742676,-0.012712478637695312,-0.041402965784072876,0.524788419713459,-0.05548170557904475,-0.7599685018869509,-0.3794293479716208,0.5450681814430977,-1.7605212416170193,-0.5996426180991193
1781516123194099456,1.3692255020141602,-0.19183841347694397,-0.09587230533361435,-0.09610234946012497,-0.8390772342681885,-0.519628643989563,0.16104437410831451,-0.03494608402252197,-0.035119831562042236,-0.032092347741127014,0.5242144139188395,-0.05573379552507105,-0.7598788899679674,-0.3803642660855463,0.5464162388420175,-1.7604206833212248,-0.6015048399791068
1781516123204133632,1.3792595863342285,-0.19146451354026794,-0.06820659339427948,-0.0886140763759613,-0.8384490013122559,-0.5207334160804749,0.1607479304075241,-0.052084386348724365,-0.01687943935394287,0.006885036826133728,0.5236619135526822,-0.05603597627870408,-0.7597591277484723,-0.3813190176332944,0.5477097848943258,-1.760218374923197,-0.6035040182795443
1781516123214168576,1.3892946243286133,-0.16716529428958893,-0.061119385063648224,-0.05085497722029686,-0.837986171245575,-0.5216065049171448,0.1603306084871292,-0.07969266176223755,-0.019683778285980225,0.002541780471801758,0.5232434748707859,-0.05635883810453409,-0.7595979113386645,-0.3821661812653622,0.5487327848648407,-1.7598401393665382,-0.6054162714943897
1781516123224202496,1.3993284702301025,-0.15118500590324402,-0.08272028714418411,-0.004904530942440033,-0.8377275466918945,-0.5220829248428345,0.16013237833976746,-0.058070361614227295,-0.029140889644622803,-0.03362177312374115,0.5228755351471308,-0.05679101766806757,-0.7595004748490859,-0.3827990797080679,0.5492912818494834,-1.7596688501754392,-0.6071169093613704
1781516123234236416,1.409362554550171,-0.16451118886470795,-0.088707335293293,0.027344483882188797,-0.8376482129096985,-0.5222397446632385,0.1600351631641388,-0.013563334941864014,-0.0023116469383239746,-0.040955543518066406,0.5225179315859819,-0.05742278131251735,-0.7594209678283712,-0.3833503793158364,0.5494752166699255,-1.7595743370419503,-0.6089851580818306
1781516123244270592,1.4193966388702393,-0.2014811933040619,-0.10084322839975357,0.05888589844107628,-0.8377312421798706,-0.5221576690673828,0.15986821055412292,0.0006798505783081055,0.026033401489257812,-0.03140449523925781,0.5221977950898072,-0.058242355658135035,-0.7593035846254426,-0.3838950333503667,0.5493789765761188,-1.7593637966098183,-0.6111679619566734
1781516123254304512,1.4294304847717285,-0.2652396559715271,-0.09419278055429459,0.04458126053214073,-0.8378596305847168,-0.5220676064491272,0.15948927402496338,0.0018305182456970215,0.017901957035064697,-0.02277052402496338,0.5218554115776858,-0.05925284488212998,-0.7591006119677531,-0.3846067569585537,0.5492733612505055,-1.7588991666460545,-0.6139749658416446
1781516123264338432,1.4394645690917969,-0.29426491260528564,-0.06317681074142456,0.0438116081058979,-0.837967574596405,-0.5221564769744873,0.15862801671028137,-0.014113664627075195,0.00979691743850708,0.026476368308067322,0.521561507376686,-0.06032213508280457,-0.7587326606105224,-0.38556392299856945,0.54937755121965,-1.7578834493977287,-0.6173972240137203
1781516123274372352,1.4494984149932861,-0.2868086099624634,-0.06484714150428772,0.030045995488762856,-0.8380513191223145,-0.5223419070243835,0.15757110714912415,-0.024207472801208496,0.01024174690246582,0.0343233197927475,0.5213159817846931,-0.06133286760432117,-0.7583032598549533,-0.38657986537437256,0.5495950262589302,-1.7566473756794545,-0.620877333923311
1781516123284406528,1.4595324993133545,-0.25531113147735596,-0.09100138396024704,0.030569039285182953,-0.8380969166755676,-0.5224870443344116,0.15684624016284943,-0.007651925086975098,-0.008549332618713379,-0.005845308303833008,0.5209921451548599,-0.06231095191745795,-0.7579844751603668,-0.3874842558241596,0.549765230245513,-1.7558019875745945,-0.6240348820569794
1781516123294440448,1.4695665836334229,-0.22531194984912872,-0.10616356134414673,0.04519006237387657,-0.838126003742218,-0.5225671529769897,0.15642406046390533,0.005713284015655518,-0.032486557960510254,-0.03583383560180664,0.5206047498049438,-0.06327081496900525,-0.7577656841936582,-0.3882765763531658,0.5498591638542027,-1.7553090008639338,-0.626900740089331
1781516123304474368,1.479600429534912,-0.1884479522705078,-0.13825437426567078,0.050989627838134766,-0.8381977081298828,-0.5224801301956177,0.15633045136928558,0.015336990356445312,-0.030895113945007324,-0.05896413326263428,0.5201798666382517,-0.06423874560398392,-0.7576533581567587,-0.38890578900100164,0.549757117049101,-1.7551856584156504,-0.6294314204218919
1781516123314509312,1.4896354675292969,-0.14975355565547943,-0.17163364589214325,0.040929801762104034,-0.8381964564323425,-0.5223474502563477,0.15678012371063232,0.046784043312072754,-0.011771202087402344,-0.07534396648406982,0.5196235102494356,-0.0651506776710285,-0.7577238608118456,-0.3893602306143378,0.5496014651785603,-1.7557043115869861,-0.6314388013249693
1781516123324543488,1.4996695518493652,-0.15607695281505585,-0.16251617670059204,0.02567414939403534,-0.838101327419281,-0.5223143100738525,0.15739741921424866,0.049679696559906006,0.005880594253540039,-0.05566704273223877,0.5189958022771206,-0.06600218693338036,-0.7578538278739774,-0.38980078406941815,0.5495626375194657,-1.756436375620627,-0.6332765133552454
1781516123334577664,1.5097036361694336,-0.18533524870872498,-0.1506672352552414,0.012024384923279285,-0.8379434943199158,-0.5224432945251465,0.15780861675739288,0.013480722904205322,0.01560741662979126,-0.014391317963600159,0.5183784505867354,-0.06681934643446923,-0.7579178619604021,-0.390358065996551,0.5497138797507124,-1.7569444907815739,-0.6353008733847794
1781516123344611328,1.5197374820709229,-0.20899184048175812,-0.14994153380393982,0.009244311600923538,-0.8377642035484314,-0.5226686000823975,0.1580152064561844,-0.007938921451568604,0.004144430160522461,0.011540532112121582,0.5177671732855943,-0.06766844930470504,-0.7579106727611269,-0.39103656981825974,0.5499781204774978,-1.7572215567885028,-0.6376249646126351
1781516123354645504,1.5297715663909912,-0.20023563504219055,-0.15028934180736542,0.026114903390407562,-0.8376145958900452,-0.5228574872016907,0.15818382799625397,-0.021882593631744385,-0.014480829238891602,0.01070035994052887,0.5171577890966087,-0.06856934893128966,-0.7578853183438344,-0.39173461773224333,0.550199720520665,-1.7574484676459987,-0.6400748788536055
1781516123364679680,1.5398056507110596,-0.18069308996200562,-0.14178641140460968,0.04595492035150528,-0.8375704884529114,-0.5228585004806519,0.15841376781463623,-0.030822575092315674,-0.02798384428024292,-0.004620417952537537,0.5166104535327477,-0.06947928827099219,-0.7578782948339149,-0.3923096456930281,0.5502008845638099,-1.7577231275011096,-0.642335073712663
1781516123374713344,1.5498394966125488,-0.11823157966136932,-0.15505853295326233,0.059468865394592285,-0.8376201391220093,-0.522646963596344,0.15884849429130554,-0.014568030834197998,0.0014219880104064941,-0.011692643165588379,0.5161087242865511,-0.07036150066104767,-0.7579403062030546,-0.3926927705436601,0.5499527995519939,-1.7582133503268964,-0.6441968984615878
1781516123384747520,1.5598735809326172,-0.10806681960821152,-0.198269784450531,0.06711000949144363,-0.8376668691635132,-0.5222973227500916,0.1597481667995453,0.017171382904052734,0.002659320831298828,-0.03755582869052887,0.5155278654432656,-0.07122389728778118,-0.7581564730281374,-0.39288271548210035,0.5495427298621363,-1.7592396641052825,-0.6455895680405256
1781516123394781440,1.5699074268341064,-0.11462192982435226,-0.20927634835243225,0.10611226409673691,-0.8377833962440491,-0.521756112575531,0.16090179979801178,0.008514106273651123,-0.04345989227294922,-0.05790509283542633,0.5148709141657923,-0.07224463762242413,-0.7584402489700628,-0.3930101621895577,0.5489081929333044,-1.760542426891117,-0.6470645170950616
1781516123404815360,1.5799415111541748,-0.13678474724292755,-0.21410426497459412,0.13545630872249603,-0.8380728363990784,-0.5209453701972961,0.16201750934123993,-0.01963883638381958,-0.04207336902618408,-0.04389919340610504,0.5142632369942131,-0.07343839955193221,-0.7586933239545042,-0.39309606296945393,0.547958109916141,-1.7617620988020226,-0.6487689778289042
1781516123414849536,1.5899755954742432,-0.20399202406406403,-0.23306678235530853,0.14390918612480164,-0.8384494781494141,-0.5200308561325073,0.16300329566001892,-0.01799565553665161,-0.006778717041015625,-0.021294981241226196,0.5136273844455747,-0.07486336832878439,-0.758878862007749,-0.3933003217212598,0.5468870670351288,-1.7628115383344847,-0.6510676377988153
1781516123424884480,1.600010633468628,-0.29260045289993286,-0.21841299533843994,0.14213977754116058,-0.8388237953186035,-0.5192254781723022,0.1636442393064499,-0.02271789312362671,0.0024561285972595215,0.026220783591270447,0.5129510844525363,-0.07648762135098211,-0.7589280353258423,-0.39377534871683945,0.5459444532072293,-1.7634641278766896,-0.6542064461184389
1781516123434918400,1.6100444793701172,-0.330434650182724,-0.19206102192401886,0.14931699633598328,-0.8392353057861328,-0.518546462059021,0.16368795931339264,-0.06281852722167969,-0.023079514503479004,0.054451704025268555,0.5123263995809625,-0.07827670217970654,-0.7587600014886448,-0.39456014710393117,0.5451501401612768,-1.76342217036994,-0.6582666842654559
1781516123444952576,1.6200785636901855,-0.2370074987411499,-0.16813479363918304,0.16645283997058868,-0.839776337146759,-0.5176671147346497,0.1636960506439209,-0.07382833957672119,-0.024981200695037842,0.0514681339263916,0.5118601614721942,-0.07996202192055392,-0.7585869103454147,-0.39515965524204993,0.5441220561057468,-1.7633103823363314,-0.6618913783515512
1781516123454986496,1.630112648010254,-0.14424346387386322,-0.1856756955385208,0.17656832933425903,-0.8403703570365906,-0.5165374279022217,0.16421565413475037,-0.035209476947784424,-0.00500798225402832,-0.013184189796447754,0.5114562321424196,-0.08142937295543262,-0.7586020599496377,-0.3953539069483505,0.5428022171568817,-1.763773279368042,-0.6643939290183004
1781516123465020416,1.6401464939117432,-0.13301877677440643,-0.2186616063117981,0.20764341950416565,-0.8410261273384094,-0.5151543021202087,0.16520075500011444,-0.003639519214630127,-0.029462456703186035,-0.06337891519069672,0.5110105050248313,-0.0829116869743009,-0.7587661242257858,-0.39530743767135845,0.5411876641421152,-1.7647545538644445,-0.6664149930960185
1781516123475054592,1.6501805782318115,-0.1365344226360321,-0.24182285368442535,0.2170070856809616,-0.8417567610740662,-0.5135606527328491,0.16643720865249634,0.005620777606964111,-0.045994460582733154,-0.07236681878566742,0.5105100738413553,-0.084529758088276,-0.7589949456897631,-0.39517210260246366,0.5393293701288374,-1.7660044211146217,-0.6684470432966767
1781516123485090048,1.6602160930633545,-0.13866867125034332,-0.2699427902698517,0.1933198720216751,-0.8423840999603271,-0.512047290802002,0.16791963577270508,0.021796762943267822,-0.030921578407287598,-0.0611080676317215,0.5098790959606075,-0.08617041801695068,-0.7592986720353364,-0.3950489352436234,0.5375665429168016,-1.7675557991926707,-0.6704636276738974
1781516123495124224,1.6702501773834229,-0.17474012076854706,-0.27335962653160095,0.17930179834365845,-0.842865526676178,-0.5107560157775879,0.16942746937274933,0.011032819747924805,-0.02954232692718506,-0.0369507372379303,0.5091300427822681,-0.08782086949080746,-0.759605968212428,-0.3950604366495613,0.5360639632465358,-1.7691663432063114,-0.6726965853117248
1781516123505157888,1.680284023284912,-0.20452173054218292,-0.23171909153461456,0.17603303492069244,-0.8433451652526855,-0.5095764994621277,0.17058834433555603,-0.029716789722442627,-0.023824870586395264,0.020268529653549194,0.5084320475924711,-0.08949211426020472,-0.7597929532344269,-0.3952246691471825,0.5346925425445961,-1.770379222906395,-0.675302649716018
1781516123515192064,1.6903181076049805,-0.19892482459545135,-0.22996780276298523,0.1780836582183838,-0.8438583612442017,-0.5084261298179626,0.17148108780384064,-0.04607987403869629,-0.008099079132080078,0.05163286626338959,0.5078292508304769,-0.09112340810356816,-0.7598928005497725,-0.3954349970035395,0.5333560940878568,-1.7712772302378834,-0.6779970345888598
1781516123525227008,1.7003531455993652,-0.24597808718681335,-0.24753494560718536,0.1944277435541153,-0.844391405582428,-0.5072371363639832,0.1723756492137909,-0.02177363634109497,-0.03795933723449707,0.012927040457725525,0.5071842512855589,-0.0928689169423196,-0.7599757825369994,-0.39569712586473815,0.5319758858431299,-1.7721712716450333,-0.6809570051330854
1781516123535261184,1.7103872299194336,-0.2717987596988678,-0.24848462641239166,0.2219318151473999,-0.8450260758399963,-0.505916953086853,0.17314521968364716,-0.010259687900543213,-0.04451340436935425,-0.00500856339931488,0.506530353930845,-0.09482815587340372,-0.7599869915111527,-0.3960486309202411,0.5304446475832388,-1.772898237693167,-0.6844389418419439
1781516123545295104,1.7204210758209229,-0.21413706243038177,-0.2671399414539337,0.2437790483236313,-0.8457648754119873,-0.5043694376945496,0.1740497648715973,0.017090559005737305,-0.00988227128982544,-0.010902762413024902,0.5059115143912735,-0.09683831583191552,-0.7600310668103941,-0.39626843755551316,0.5286515255604325,-1.7737527303174287,-0.6877670545797506
1781516123555329024,1.7304551601409912,-0.23272433876991272,-0.32919904589653015,0.25622987747192383,-0.8464985489845276,-0.5026559233665466,0.17543445527553558,0.04998975992202759,-0.01800447702407837,-0.05704152584075928,0.5051680174948456,-0.09893497098366609,-0.7602164824580172,-0.39634334364720997,0.5266682911611624,-1.7751505430790673,-0.6908793967984327
1781516123565362944,1.7404890060424805,-0.22063091397285461,-0.34927356243133545,0.30008015036582947,-0.8472985625267029,-0.50069659948349,0.17716677486896515,0.03690427541732788,-0.04350811243057251,-0.04298102855682373,0.5043019238158057,-0.10126909759471271,-0.7604787705233702,-0.3963535907476175,0.524403305323944,-1.7769225943288398,-0.6941842703849126
1781516123575397120,1.7505230903625488,-0.2202916294336319,-0.34741681814193726,0.33181411027908325,-0.8482715487480164,-0.498386949300766,0.17901290953159332,-0.012934386730194092,-0.04342210292816162,9.475648403167725e-05,0.5035083784793433,-0.10370613966945223,-0.7607571823151692,-0.39619787659494005,0.5217371737267913,-1.778777256050157,-0.6973799201757949
1781516123585431040,1.7605571746826172,-0.30557191371917725,-0.3582195043563843,0.3421013653278351,-0.8493227362632751,-0.49596500396728516,0.18074825406074524,-0.03138422966003418,-0.02486327290534973,0.020835652947425842,0.5026993531973108,-0.10634252787847158,-0.7609634660491449,-0.3961304857492232,0.5189458092014071,-1.7804826913459786,-0.7010740509666182
1781516123595464960,1.7705910205841064,-0.408178448677063,-0.34451326727867126,0.3719695210456848,-0.8504477739334106,-0.4935896098613739,0.18195612728595734,-0.03628629446029663,-0.031724780797958374,0.06033827364444733,0.5018683597551629,-0.10930824697225981,-0.7609400562851234,-0.39642169949343686,0.5162123652024001,-1.7815718307018131,-0.7060048455931122
1781516123605499136,1.7806251049041748,-0.4324864447116852,-0.3433534801006317,0.39583277702331543,-0.8517189025878906,-0.4910956621170044,0.1827569305896759,-0.039577484130859375,-0.033821940422058105,0.07275140285491943,0.5010984148975326,-0.112514550487603,-0.7607357876401873,-0.39689035433357545,0.513347096313097,-1.7821654970355747,-0.7117176400106823
1781516123615534080,1.7906601428985596,-0.40810468792915344,-0.3580900728702545,0.45136207342147827,-0.8531467914581299,-0.4882716238498688,0.183661088347435,-0.024614989757537842,-0.037744611501693726,0.01725137233734131,0.5003627829626941,-0.11588146652455007,-0.7605274676538321,-0.3972487567241086,0.5101081550942766,-1.7828352159169762,-0.7175023654606512
1781516123625568256,1.800694227218628,-0.4430488049983978,-0.3910099267959595,0.5020300149917603,-0.854798436164856,-0.4849432408809662,0.1847967952489853,-0.011900782585144043,-0.055782467126846313,-0.033200740814208984,0.4996509690579178,-0.11950413240856296,-0.7603401612671365,-0.3974299774549084,0.5062982587168494,-1.7837073072561989,-0.7233786478026261
1781516123635601920,1.8107280731201172,-0.5382030606269836,-0.44762474298477173,0.5580139756202698,-0.8565921783447266,-0.48129692673683167,0.1860191524028778,0.0057926177978515625,-0.06376227736473083,-0.045088887214660645,0.4988166796420009,-0.12358443621544565,-0.7600897755170347,-0.3977088717404652,0.5021336932306096,-1.7846379214416508,-0.7301355129038941
1781516123645636096,1.8207621574401855,-0.7127655148506165,-0.4775095283985138,0.5685147643089294,-0.8584485650062561,-0.4775862395763397,0.18702243268489838,0.01729261875152588,-0.05596780776977539,-0.021403566002845764,0.49778787799859064,-0.12822081353532744,-0.7596516587024162,-0.3983666567614593,0.49790533851497637,-1.7853054395851868,-0.7384464636542211
1781516123655670016,1.8307960033416748,-0.9241843223571777,-0.4664512872695923,0.5632723569869995,-0.8602619767189026,-0.47425365447998047,0.18716995418071747,-0.0027292370796203613,-0.055333077907562256,0.03418932855129242,0.4965838278133412,-0.13336599527552245,-0.7588138686615225,-0.39977422132294754,0.49411609161151315,-1.7850306949524843,-0.7489697594973057
1781516123665703936,1.8408300876617432,-0.9876362681388855,-0.46332141757011414,0.5702083110809326,-0.8620879650115967,-0.4711757004261017,0.18654242157936096,-0.03416764736175537,-0.0389866828918457,0.07624448835849762,0.4953129165950779,-0.13885752950241945,-0.7576211424461256,-0.40173876350799315,0.49062324479046204,-1.7838953739054033,-0.7611263410561263
1781516123675738112,1.8508641719818115,-0.9691592454910278,-0.46184471249580383,0.5634105801582336,-0.8639042973518372,-0.46807539463043213,0.18594412505626678,-0.03677642345428467,0.0047727227210998535,0.04438735544681549,0.49401150092058294,-0.1443770928407249,-0.7563909831306435,-0.4037087235486428,0.48711158827125617,-1.7827989652102225,-0.7733436331163588
1781516123685772032,1.8608980178833008,-0.9426365494728088,-0.45951271057128906,0.5573654770851135,-0.86566561460495,-0.465006023645401,0.18545129895210266,-0.028651833534240723,0.029260843992233276,0.01985570788383484,0.4927027560992449,-0.1497904284763382,-0.7551744688733746,-0.40560847459504923,0.4836414052865385,-1.7818361219606569,-0.7852667394879306
1781516123695805952,1.8709321022033691,-0.9302560687065125,-0.4875914752483368,0.5599556565284729,-0.8673845529556274,-0.46190205216407776,0.18517744541168213,-0.029984891414642334,-0.007763475179672241,-0.02306807041168213,0.4913383059719009,-0.1551834847038038,-0.7539939036147859,-0.4074285080905977,0.48013852438868126,-1.7811282250247693,-0.7969945019041619
1781516123705840128,1.8809661865234375,-0.8653452396392822,-0.5375282764434814,0.557329535484314,-0.8690299391746521,-0.45867615938186646,0.18548129498958588,-0.012348294258117676,-0.038134753704071045,-0.07194066047668457,0.48984751362604645,-0.16056278685944314,-0.7529676235450621,-0.4090339993043823,0.4765048184616915,-1.7810760441841857,-0.8082415161981715
1781516123715875072,1.8910012245178223,-0.8272330164909363,-0.5862380266189575,0.5332918167114258,-0.8704896569252014,-0.45548832416534424,0.18648850917816162,0.008230865001678467,-0.031495869159698486,-0.12408007681369781,0.48816609784357273,-0.16584610537572667,-0.7521564490349955,-0.4104260569465294,0.4729206611949362,-1.7818402398845876,-0.8188482741244985
1781516123725908992,1.9010350704193115,-0.8520113229751587,-0.6248217821121216,0.5086383819580078,-0.8717314004898071,-0.45249322056770325,0.187973290681839,0.0017058849334716797,-0.023642003536224365,-0.13798561692237854,0.4862562280932816,-0.17110229308553315,-0.7514723228485872,-0.4117865010939044,0.469559163656781,-1.783176597839022,-0.8292714179844316
1781516123735943168,1.9110691547393799,-0.9652936458587646,-0.6434346437454224,0.4754972457885742,-0.8727583289146423,-0.44988107681274414,0.18947350978851318,-0.007322907447814941,-0.015466243028640747,-0.1134541928768158,0.4840876737551239,-0.176478610997318,-0.7507276841141504,-0.4134277583764948,0.466632186135242,-1.7845762895266088,-0.8403575456093977
1781516123745976832,1.9211030006408691,-1.0942548513412476,-0.6725401878356934,0.421307235956192,-0.8735277056694031,-0.44792112708091736,0.1905677318572998,-0.018623173236846924,0.01002436876296997,-0.055603742599487305,0.4816208300885333,-0.1820360619976171,-0.7497644550640772,-0.41564109007239886,0.46443879332836696,-1.7855897315142684,-0.8527693843744336
1781516123756011008,1.9311370849609375,-1.1966094970703125,-0.7298553586006165,0.35353323817253113,-0.8739319443702698,-0.4466981887817383,0.19158147275447845,-0.017196476459503174,0.03942587971687317,-0.032401829957962036,0.47873230027493685,-0.18773543168942763,-0.7486962973774499,-0.41835936012448166,0.4630714373270914,-1.7866004597686005,-0.8662720530799245
1781516123766045184,1.9411711692810059,-1.2618025541305542,-0.7439883351325989,0.30016028881073,-0.8739612698554993,-0.44624122977256775,0.19251109659671783,-0.024781405925750732,0.04427894949913025,-0.01839303970336914,0.47546611966005314,-0.19345996880114674,-0.7475485207245635,-0.4215168208174338,0.4625607668333394,-1.7876081421550074,-0.8805812967207282
1781516123776078848,1.9512050151824951,-1.1927380561828613,-0.7656180262565613,0.291412353515625,-0.873826265335083,-0.44605135917663574,0.19356103241443634,-0.06068301200866699,0.04378396272659302,-0.037189021706581116,0.47205965891283663,-0.1990981220023544,-0.7464184170760605,-0.4247106862896969,0.46234862646963226,-1.788786223580661,-0.89483158297318
1781516123786113024,1.9612390995025635,-1.1152218580245972,-0.8080547451972961,0.2804798185825348,-0.8735833168029785,-0.4457716941833496,0.1952940821647644,-0.07058477401733398,0.03828573226928711,-0.09637129306793213,0.4685732650824096,-0.2045675611665073,-0.7455193849723787,-0.4275418579126921,0.46203617577938644,-1.7907351549136157,-0.90811998282273
1781516123796147200,1.9712731838226318,-1.090785026550293,-0.8790490031242371,0.271833598613739,-0.8731595277786255,-0.4455348253250122,0.19771550595760345,-0.05112648010253906,0.04117685556411743,-0.14025089144706726,0.4648774502829371,-0.20999129662266341,-0.7448230733909883,-0.4301526596389436,0.4617715539672134,-1.7934779802368412,-0.9208767478588725
1781516123806182144,1.9813082218170166,-1.0601516962051392,-0.9543124437332153,0.2623756527900696,-0.8725423216819763,-0.44529491662979126,0.20095407962799072,-0.03756827116012573,0.052594661712646484,-0.14562579989433289,0.46090075819557,-0.21547618281834163,-0.7443433736647713,-0.43254309892990933,0.4615035975499627,-1.7971578837465936,-0.933253458614095
1781516123816216064,1.9913420677185059,-1.0825986862182617,-1.05050528049469,0.2135753482580185,-0.871580183506012,-0.44537287950515747,0.2049168199300766,-0.01841914653778076,0.05348142981529236,-0.159872904419899,0.4565236289781627,-0.22100418892825185,-0.7440534647963526,-0.43488819934080764,0.461590676471447,-1.8017120911673132,-0.9455280365790536
1781516123826249984,2.001376152038574,-1.2079172134399414,-1.1222314834594727,0.12947112321853638,-0.8700835108757019,-0.44623881578445435,0.20934559404850006,-0.01314091682434082,0.06437239050865173,-0.13402821123600006,0.4515518986719415,-0.2266265168639419,-0.7438502639994535,-0.43752493601791875,0.46255806265365235,-1.8069123506551839,-0.9583981159546052
1781516123836283904,2.0114099979400635,-1.3244554996490479,-1.119600534439087,0.04727504774928093,-0.8681027889251709,-0.44815799593925476,0.213428795337677,-0.054184138774871826,0.07776618003845215,-0.05818594992160797,0.4460949456010234,-0.2322984092806276,-0.7434728279329795,-0.4407775585540721,0.46470374581600093,-1.8118715255033124,-0.9725022811737142
1781516123846318080,2.021444082260132,-1.3795517683029175,-1.1023943424224854,-0.02830386348068714,-0.8657468557357788,-0.45102328062057495,0.21693336963653564,-0.11554569005966187,0.07017922401428223,-0.021392017602920532,0.44037647596287344,-0.23781559155589518,-0.7429067428232844,-0.4445242147434897,0.46791153364584426,-1.81631483517505,-0.987355411313921
1781516123856352000,2.0314781665802,-1.377415657043457,-1.0832566022872925,-0.08801300078630447,-0.8630889058113098,-0.4545459747314453,0.2201489508152008,-0.13027352094650269,0.0719623863697052,-0.04029358923435211,0.43451048910301043,-0.24307881239148335,-0.7422850998404976,-0.44847091307350545,0.4718624110846928,-1.8205419869187958,-1.002248867920219
1781516123866385920,2.0415120124816895,-1.3262614011764526,-1.0423762798309326,-0.13291016221046448,-0.8602057695388794,-0.45851147174835205,0.22318963706493378,-0.12171262502670288,0.08496102690696716,-0.07168476283550262,0.42860808817138224,-0.24802481177479485,-0.7416727803193378,-0.4524383153391092,0.47631951719405974,-1.8246592237049792,-1.016751905632724
1781516123876420096,2.051546096801758,-1.3420913219451904,-1.1471450328826904,-0.1590546816587448,-0.8570665121078491,-0.46276408433914185,0.22646543383598328,-0.08217310905456543,0.08784031867980957,-0.11794492602348328,0.4225193069067545,-0.2528466695765243,-0.7411486212591988,-0.45633848890932005,0.4811107099689456,-1.829125436851967,-1.030960155082508
1781516123886454016,2.061580181121826,-1.2209703922271729,-1.2558321952819824,-0.19760367274284363,-0.8534967303276062,-0.46721309423446655,0.23077020049095154,-0.04028666019439697,0.09450197219848633,-0.148235484957695,0.41601695195907834,-0.25764555353683527,-0.7409479539389693,-0.45993981352901264,0.4861360482360535,-1.8348642311833603,-1.0444842104675924
1781516123896489216,2.071615219116211,-1.1843032836914062,-1.3191741704940796,-0.26997533440589905,-0.8493718504905701,-0.47200530767440796,0.2361745536327362,-0.01903635263442993,0.09146639704704285,-0.16880691051483154,0.4091076938487439,-0.262256638104344,-0.7411536520155698,-0.4631885265609563,0.4915640438301139,-1.842003221199184,-1.0569180548359278
1781516123906522880,2.0816490650177,-1.1816078424453735,-1.3257089853286743,-0.31581661105155945,-0.8447917699813843,-0.47735536098480225,0.2417820245027542,-0.04914426803588867,0.08540290594100952,-0.14194384217262268,0.4019283429282423,-0.2666497922212653,-0.7414775098529656,-0.4664359743448099,0.49764254997357243,-1.8495478463707586,-1.068986961052669
1781516123916557056,2.0916831493377686,-1.2017700672149658,-1.3392668962478638,-0.3821815252304077,-0.8398685455322266,-0.48317211866378784,0.24731671810150146,-0.07765769958496094,0.09620922803878784,-0.11174237728118896,0.39457209455140124,-0.27086104175695147,-0.7418171293302234,-0.4697387654307621,0.5042741960507394,-1.85717272252108,-1.0809067954563092
1781516123926591232,2.101717233657837,-1.2184351682662964,-1.341607689857483,-0.4764683246612549,-0.8344111442565918,-0.48983898758888245,0.25261735916137695,-0.06851226091384888,0.12185809016227722,-0.06809288263320923,0.38689807685414457,-0.27482400936704376,-0.7421458370637223,-0.4732875283743887,0.51190504367751,-1.8647734679883807,-1.0929206841907226
1781516123936624896,2.111751079559326,-1.1594972610473633,-1.3471084833145142,-0.5423429608345032,-0.8284481763839722,-0.49712881445884705,0.2579469382762909,-0.05590546131134033,0.14382681250572205,-0.05253303050994873,0.37903187981265923,-0.2784120773883066,-0.7426036497136198,-0.4768242866736255,0.5202865661063993,-1.872643713250783,-1.104294140611122
1781516123946659072,2.1217851638793945,-1.1465816497802734,-1.3587393760681152,-0.6186553239822388,-0.8219954967498779,-0.5049570202827454,0.26332858204841614,-0.05228734016418457,0.14132487773895264,-0.08679962158203125,0.3709879462136441,-0.2816517245838074,-0.7431935170434381,-0.48031624064318446,0.5293321961636374,-1.8808193179828552,-1.1149994159961352
1781516123956692992,2.131819009780884,-1.0979305505752563,-1.3806809186935425,-0.6588578224182129,-0.815061628818512,-0.5132295489311218,0.26883137226104736,-0.04944044351577759,0.12071239948272705,-0.06993302702903748,0.3627199834781108,-0.284655633805347,-0.7438997608894029,-0.48375476465478634,0.538943497981251,-1.8893901120113445,-1.1251974327771401
1781516123966726912,2.141853094100952,-1.0397535562515259,-1.3708354234695435,-0.6813488006591797,-0.8078314661979675,-0.5215914249420166,0.27450060844421387,-0.04017561674118042,0.08914214372634888,-0.07241323590278625,0.3544226986877945,-0.28741755748182696,-0.7447425432227502,-0.4869642808272725,0.5487151377101921,-1.8983549642733375,-1.1345442866943543
1781516123976761088,2.1518871784210205,-1.021525263786316,-1.3964918851852417,-0.705457329750061,-0.8003360629081726,-0.5300787091255188,0.2801409363746643,-0.03474694490432739,0.0791967511177063,-0.11458301544189453,0.3460608380476972,-0.29003392905478,-0.7456210758041094,-0.4900729602253351,0.5586933590341974,-1.9074970916129486,-1.1434769203883857
1781516123986796032,2.1619222164154053,-0.8509734869003296,-1.416085958480835,-0.7354761958122253,-0.7925004959106445,-0.5384230017662048,0.28643321990966797,-0.00854027271270752,0.09285104274749756,-0.07935616374015808,0.3376703731321313,-0.29242199760850507,-0.7467971523000555,-0.49270909253743805,0.5685645712605458,-1.9176170047420031,-1.1509980446202144
1781516123996829952,2.1719560623168945,-0.7670833468437195,-1.372370719909668,-0.7900075912475586,-0.784296989440918,-0.54680335521698,0.2930598556995392,0.0054427385330200195,0.12260901927947998,-0.06372025609016418,0.3293496693632503,-0.2943909703127729,-0.7482405306581952,-0.494973496728735,0.5785414434713687,-1.92839107409848,-1.156976950553408
1781516124006864128,2.181990146636963,-0.7197901606559753,-1.2940419912338257,-0.8104521632194519,-0.7759152054786682,-0.5552418828010559,0.29943621158599854,-0.010919511318206787,0.1573689579963684,-0.049085259437561035,0.32127571155426843,-0.2958858459419209,-0.749779748818587,-0.49705514730766553,0.5886537865723148,-1.9391005645835424,-1.1617708256249277
1781516124016898048,2.1920242309570312,-0.8036802411079407,-1.2468976974487305,-0.8430705666542053,-0.7674449682235718,-0.5639457106590271,0.30494847893714905,-0.013759255409240723,0.1261100172996521,-0.05694735050201416,0.3133079568062999,-0.29716548275886545,-0.7511104584334276,-0.4993635278215515,0.5991560327310619,-1.9490208953218655,-1.1667551438262602
1781516124026931968,2.2020580768585205,-0.7271053194999695,-1.2367703914642334,-0.8817524313926697,-0.7587080001831055,-0.5729517936706543,0.3099817931652069,0.021128535270690918,0.10017341375350952,-0.03428599238395691,0.30531100804906647,-0.29823046188725283,-0.7523626057294417,-0.5017912101737073,0.6101029001084423,-1.9586647374216357,-1.1716369750755136
1781516124036966144,2.212092161178589,-0.6280930042266846,-1.2809101343154907,-0.9225808382034302,-0.7495526671409607,-0.5818549394607544,0.31561920046806335,0.06678295135498047,0.07771986722946167,-0.08664587140083313,0.2972927434094902,-0.2990121215761611,-0.7539239660416017,-0.503792964317477,0.621007578102302,-1.9693392532078615,-1.1749873467125034
1781516124046999808,2.222126007080078,-0.513298511505127,-1.3473899364471436,-0.9264290928840637,-0.7399004101753235,-0.5906669497489929,0.321962833404541,0.08589339256286621,0.06639021635055542,-0.11128473281860352,0.28909878622246954,-0.29967803416172256,-0.755760872091627,-0.5054112272418143,0.6318851309321302,-1.981227138131154,-1.1771420564072081
1781516124057033984,2.2321600914001465,-0.22400140762329102,-1.3408337831497192,-0.9002976417541504,-0.7300540804862976,-0.5985369086265564,0.3298099935054779,0.06982147693634033,0.031810224056243896,-0.04700362682342529,0.28112526859030024,-0.3001587687197321,-0.7581620579293371,-0.5060272501784973,0.6416734775828843,-1.995113775392352,-1.1765883615448582
1781516124067068928,2.2421951293945312,-0.15840163826942444,-1.252123236656189,-0.8993737697601318,-0.7202707529067993,-0.6057208776473999,0.3381008803844452,0.028803527355194092,-0.006476938724517822,-0.045315295457839966,0.27361744118232556,-0.3002794205809287,-0.76084341827634,-0.5060464572527444,0.650671524839061,-2.0096722508228524,-1.1740045404360444
1781516124077103104,2.2522292137145996,-0.1763998121023178,-1.185325026512146,-0.8767523765563965,-0.7106765508651733,-0.6126313209533691,0.34586378931999207,0.00437772274017334,0.01445627212524414,-0.04337358474731445,0.266475608571225,-0.30019296206314494,-0.7634239231608255,-0.506022597560038,0.6593855287806779,-2.023721865430498,-1.1709796932952874
1781516124087137024,2.262263059616089,-0.26213228702545166,-1.124107003211975,-0.8877394795417786,-0.7011856436729431,-0.6196422576904297,0.35267841815948486,0.03979349136352539,0.03518491983413696,-0.01892295479774475,0.25948210814204004,-0.30003228484858985,-0.765715241600487,-0.5062902130826914,0.6682868165538715,-2.036820606840512,-1.1685082062977474
1781516124097170944,2.2722971439361572,-0.2663366198539734,-1.097729206085205,-0.8876510858535767,-0.69170081615448,-0.6267926692962646,0.35872095823287964,0.07042402029037476,0.055930912494659424,-0.013201028108596802,0.25257132330525567,-0.2997833555470532,-0.7677827926362101,-0.5068009168084686,0.6774301296609979,-2.0492185818952557,-1.1664223094191168
1781516124107205120,2.2823312282562256,-0.3202885389328003,-1.1148595809936523,-0.9277361631393433,-0.6819563508033752,-0.6340847611427307,0.36451616883277893,0.09743791818618774,0.05272489786148071,-0.03889358043670654,0.24557095345879001,-0.299456536247405,-0.7697946888663789,-0.5073823132402887,0.6868243453303081,-2.0616734941272457,-1.164251434186627
1781516124117239040,2.292365074157715,-0.33147621154785156,-1.104790210723877,-0.9089475870132446,-0.6719695925712585,-0.6415616273880005,0.3699403405189514,0.08456707000732422,0.030019760131835938,-0.012823611497879028,0.2384348117270718,-0.2991237000064593,-0.7716833411850507,-0.5081129856845075,0.6965323923422605,-2.074047385098712,-1.1623160626355653
1781516124127272960,2.302399158477783,-0.15418317914009094,-1.012856125831604,-0.9115681052207947,-0.6621178984642029,-0.6485211849212646,0.37552720308303833,0.024697065353393555,-0.04204601049423218,0.04209074378013611,0.231658075871931,-0.2985733476223936,-0.773703793743139,-0.5084988929266013,0.7056400821485113,-2.086719160321365,-1.1591548397206928
1781516124137306880,2.3124330043792725,-0.06339789181947708,-0.9211318492889404,-0.8712065815925598,-0.6526318788528442,-0.6548454761505127,0.3811151683330536,-0.04701399803161621,-0.10891783237457275,-0.0420801043510437,0.22546747014182705,-0.2976953788744913,-0.7758447306945105,-0.5085339152507851,0.7139781323298876,-2.099343069423556,-1.1546023933691778
1781516124147341056,2.322467088699341,0.018246639519929886,-0.8788268566131592,-0.8516318202018738,-0.6435104608535767,-0.6604951024055481,0.3868337571620941,-0.02787613868713379,-0.06129133701324463,-0.05779328942298889,0.2197467152510988,-0.29666938841723156,-0.7780772185025456,-0.5082267901594192,0.7214780093814417,-2.1120466471495014,-1.149006306969438
1781516124157376000,2.3325021266937256,0.09730470925569534,-0.8376352190971375,-0.8685295581817627,-0.634452223777771,-0.6657617688179016,0.39272379875183105,0.02518397569656372,0.001363515853881836,-0.04850071668624878,0.2143055478680268,-0.29542560433864945,-0.7804393672100807,-0.5076527874264194,0.7285142391146967,-2.1250669499948827,-1.1423136616948164
1781516124167410176,2.342536211013794,0.09845173358917236,-0.8479753732681274,-0.9038183093070984,-0.6251999139785767,-0.6709398627281189,0.39870378375053406,0.05609285831451416,0.023311078548431396,-0.059989213943481445,0.20892053473677846,-0.2939869266327428,-0.7828943585227746,-0.5069519634518989,0.7354755435376863,-2.1384918289565364,-1.1348116145123632
1781516124177444096,2.352570056915283,0.09804027527570724,-0.8652853965759277,-0.9047603011131287,-0.6156094074249268,-0.6762067079544067,0.4046849310398102,0.06386679410934448,0.017530500888824463,-0.03520852327346802,0.20337355978702384,-0.29250789719251813,-0.7853544356681674,-0.5062576849929586,0.7426014167524533,-2.1523371393638,-1.127057576826925
1781516124187478016,2.3626041412353516,0.03505944088101387,-0.7930095791816711,-0.9179482460021973,-0.6060083508491516,-0.6814667582511902,0.4103129208087921,0.021001696586608887,-0.01698899269104004,0.044688880443573,0.197886125519004,-0.2909626621158181,-0.7877164363210759,-0.5056526014656446,0.7497649841680843,-2.16596989863347,-1.119303703451966
1781516124197512192,2.37263822555542,-0.03359658271074295,-0.7080366015434265,-0.9018377661705017,-0.5966476202011108,-0.6869881749153137,0.4147995710372925,-0.04864645004272461,-0.028465867042541504,0.04535970091819763,0.19261505634470313,-0.2892394642974922,-0.7897723170110623,-0.5054696930144646,0.7573362066620445,-2.178304977440342,-1.1122107146997182
1781516124207546112,2.382672071456909,0.0017060126410797238,-0.7313945889472961,-0.8891522884368896,-0.5875216126441956,-0.6923635005950928,0.41886892914772034,-0.03431981801986694,0.016200780868530273,0.02194225788116455,0.18750718775631023,-0.28753780629048775,-0.7916795246904145,-0.505377690817421,0.7647595598279646,-2.1901556077254756,-1.105374789602058
1781516124217580032,2.3927061557769775,0.10814856737852097,-0.7877382636070251,-0.9255790114402771,-0.577987551689148,-0.6974467635154724,0.42367303371429443,0.027908146381378174,0.05630290508270264,0.014239013195037842,0.18226272523464557,-0.28580768266389783,-0.7938201819619397,-0.5049197358509271,0.771828507097089,-2.203337547554993,-1.0973733907571404
1781516124227613952,2.402740001678467,0.2706242799758911,-0.8451516032218933,-0.927160918712616,-0.5679951310157776,-0.7019465565681458,0.42971232533454895,0.05087471008300781,0.06931716203689575,-0.012079238891601562,0.17694064444629296,-0.2840060135263854,-0.7963647073834047,-0.5038212806830603,0.7781268793707569,-2.218471369482513,-1.0874430160187238
1781516124237648896,2.4127750396728516,0.34210991859436035,-0.8650712370872498,-0.923801600933075,-0.5577238202095032,-0.7058305144309998,0.43674615025520325,0.04388415813446045,0.06267261505126953,-0.016732752323150635,0.17160225758374015,-0.2822044835282702,-0.7992081755572802,-0.5021747790841328,0.7835948895918652,-2.2351389337936562,-1.0760225018887357
1781516124247683072,2.42280912399292,0.3113195300102234,-0.8253188133239746,-0.9177205562591553,-0.5474497675895691,-0.7094627618789673,0.44380366802215576,0.012278139591217041,0.03406292200088501,0.010160624980926514,0.16636095700900655,-0.28034885250684927,-0.8020638057486592,-0.5004221370092273,0.7887355968328404,-2.2520124183407217,-1.0641669701353866
1781516124257717248,2.4328432083129883,0.2570863962173462,-0.8400005102157593,-0.9018425345420837,-0.5372697710990906,-0.713134229183197,0.4503117799758911,-0.0039746761322021484,0.016463756561279297,0.014440387487411499,0.16115817131437823,-0.27852303730270306,-0.80472405633739,-0.4988708427818812,0.7939589826503798,-2.2683695488154596,-1.0528022592143875
1781516124267750912,2.4428770542144775,0.19601529836654663,-0.8933535814285278,-0.9073094725608826,-0.5268370509147644,-0.7169100642204285,0.45659878849983215,0.03109431266784668,0.03977084159851074,0.019399017095565796,0.15570497842826028,-0.2768647913493052,-0.807245490287343,-0.497449975273837,0.7993599912733456,-2.2848942641019927,-1.041895914073413
1781516124277785088,2.452911138534546,0.12605832517147064,-0.9237282872200012,-0.914754331111908,-0.5160645842552185,-0.7209339737892151,0.4625272750854492,0.058499276638031006,0.08438313007354736,0.050290048122406006,0.1499720575960127,-0.2753014982428999,-0.809612695881801,-0.49623049005772946,0.8051490530965506,-2.3015404703321174,-1.0314176707154323
1781516124287819264,2.4629452228546143,0.06107719615101814,-0.943355143070221,-0.9009208083152771,-0.5051066279411316,-0.7251831293106079,0.4679497182369232,0.036951661109924316,0.12131649255752563,0.05783766508102417,0.14403218515630778,-0.27386145559799174,-0.8117726032931867,-0.4952574602603112,0.8113003453808447,-2.318027260396537,-1.0215790502619653
1781516124297852928,2.4729790687561035,-0.045409832149744034,-0.9409031867980957,-0.9231081604957581,-0.4940430223941803,-0.7296290397644043,0.47282469272613525,0.020745813846588135,0.11245673894882202,0.09172004461288452,0.1379646406036695,-0.2724953704069687,-0.8137312973112084,-0.49452348065261403,0.8177792937470998,-2.3342526027326973,-1.0122842569463275
1781516124307887104,2.483013153076172,-0.1776624172925949,-0.9098210334777832,-0.9790904521942139,-0.48261573910713196,-0.734881579875946,0.4764775335788727,-0.0033613741397857666,0.06657719612121582,0.11608213186264038,0.13164199322262313,-0.27097991429691876,-0.8153579922198078,-0.49440017414451926,0.8254920755653864,-2.3497945771657838,-1.003769537975452
1781516124317921024,2.493046998977661,-0.13485902547836304,-0.8714949488639832,-0.9810406565666199,-0.47109124064445496,-0.7403845191001892,0.47948259115219116,-0.03438660502433777,0.034009456634521484,0.10871309041976929,0.12534238725094834,-0.2692734331598756,-0.8168433842146813,-0.4945178382286426,0.8336421934245998,-2.3650219399014896,-0.9952092996767659
1781516124327955968,2.503082036972046,-0.09316430985927582,-0.8597012162208557,-0.9833967685699463,-0.45960843563079834,-0.7454738616943359,0.4827308654785156,-0.03595134615898132,0.03787797689437866,0.03947073221206665,0.11922383909106307,-0.26745646520531635,-0.8184329410802105,-0.49438885016425654,0.8412455016160605,-2.3807268614856882,-0.9857365420618744
1781516124337990144,2.5131161212921143,-0.062451936304569244,-0.8718801736831665,-0.9908461570739746,-0.4479973316192627,-0.7503469586372375,0.4860842227935791,-0.010468244552612305,0.06238919496536255,0.018569588661193848,0.11311644617177191,-0.26559113745621826,-0.8200630847169312,-0.49412807432726247,0.8485867508102176,-2.3969466342069614,-0.9756565642215672
1781516124348024064,2.5231502056121826,-0.12189795076847076,-0.887996256351471,-1.0103397369384766,-0.43615877628326416,-0.755192220211029,0.4893365502357483,0.01757967472076416,0.06203120946884155,0.016675472259521484,0.10690839562182947,-0.2637099163436587,-0.8216601220218193,-0.4938646889982545,0.8559473302803934,-2.4135901164263087,-0.9652694346818971
1781516124358057984,2.533184051513672,-0.2061862051486969,-0.9323269724845886,-1.049606442451477,-0.42386388778686523,-0.7604308724403381,0.49202078580856323,0.032079219818115234,0.07128292322158813,0.002882838249206543,0.10040524932099193,-0.26178777270283216,-0.8230902512801134,-0.4938708802735869,0.8639763441197432,-2.4304740634089135,-0.9549861014375984
1781516124368092160,2.5432181358337402,-0.2885063588619232,-0.9367984533309937,-1.0521165132522583,-0.41118964552879333,-0.7660598754882812,0.4940398633480072,0.02640870213508606,0.08443444967269897,0.022439658641815186,0.09360472733066122,-0.2598953442447228,-0.8243023340107376,-0.49418443756339436,0.8726886807050126,-2.447464179519117,-0.9450483438685519
1781516124378126080,2.5532522201538086,-0.3304157257080078,-0.9016903042793274,-1.0745255947113037,-0.39842289686203003,-0.7719339728355408,0.49535584449768066,0.003418564796447754,0.07144862413406372,0.06882268190383911,0.08675236353329,-0.2579244849493649,-0.8253198641310486,-0.49476884732915377,0.8818778575615682,-2.4642252041403667,-0.9352629957331761
1781516124388160000,2.563286066055298,-0.2983883023262024,-0.9051929712295532,-1.0907522439956665,-0.38553279638290405,-0.7778237462043762,0.49634116888046265,-0.013728618621826172,0.055884718894958496,0.08213481307029724,0.07992118951110773,-0.2558010869456535,-0.8262786377723015,-0.495421002494185,0.8911956172879408,-2.4811904348363183,-0.9249896569929356
1781516124398194176,2.573320150375366,-0.19123122096061707,-0.9354118704795837,-1.0913869142532349,-0.3723844289779663,-0.783163845539093,0.4979802966117859,-0.01570761203765869,0.03746682405471802,0.04047191143035889,0.07308669655704599,-0.2536418365414495,-0.8274394012643455,-0.49564930620678205,0.8997377129604017,-2.499507773079109,-0.9133391923094223
1781516124408229120,2.583355188369751,-0.12747088074684143,-0.9502052068710327,-1.0886236429214478,-0.3590475618839264,-0.7879933714866638,0.5001513957977295,-0.011939376592636108,0.0020894408226013184,0.011674165725708008,0.06621486624754651,-0.2515527923364089,-0.8287320985376426,-0.4955198511880476,0.9075429325015449,-2.518968676144791,-0.9007309810292315
1781516124418263040,2.5933890342712402,-0.13813844323158264,-0.9636530876159668,-1.0997247695922852,-0.34556150436401367,-0.7924648523330688,0.502579927444458,-0.01230284571647644,-0.026321709156036377,0.025831878185272217,0.05936842584751922,-0.24941000516735773,-0.8301112096338192,-0.4951619787684796,0.9148397528963087,-2.539254257529991,-0.8871925114477754
1781516124428296960,2.6034231185913086,-0.2092381864786148,-0.9917587041854858,-1.104744791984558,-0.331854909658432,-0.7970973253250122,0.5044884085655212,-0.02564328908920288,-0.031577110290527344,0.0039345622062683105,0.05234832483014222,-0.2472964374534184,-0.8313174411675895,-0.4949904637420572,0.922472874224847,-2.559750313365969,-0.8737236990426723
1781516124438331136,2.613457202911377,-0.1473953276872635,-1.0182929039001465,-1.0906563997268677,-0.3179449737071991,-0.8016429543495178,0.5062408447265625,-0.02531677484512329,0.01889747381210327,-0.005279481410980225,0.04519184317394409,-0.24525058789018184,-0.8324497404173028,-0.4948104080212693,0.9300384704178202,-2.580802516067262,-0.8599991019376051
1781516124448365056,2.623491048812866,-0.06313050538301468,-1.0208698511123657,-1.072999358177185,-0.3040603697299957,-0.8055008053779602,0.5086411833763123,-0.020021051168441772,0.054798901081085205,-0.0077103376388549805,0.03813397882312539,-0.2432989623696156,-0.833742297939701,-0.4941915003767164,0.9365200793721263,-2.602800096306485,-0.8453674787922356
1781516124458398976,2.6335251331329346,-0.08697591722011566,-1.0476175546646118,-1.08106529712677,-0.29006141424179077,-0.8090696334838867,0.5111465454101562,-0.01941734552383423,0.03331279754638672,-0.01323699951171875,0.031061366652717665,-0.2413624963596438,-0.835055341714621,-0.49341862983547696,0.9425673457359213,-2.6254341712484486,-0.8301584971067097
1781516124468433152,2.643559217453003,-0.0517558790743351,-1.077196478843689,-1.0494657754898071,-0.27591127157211304,-0.8124949336051941,0.5135415196418762,-0.015333235263824463,-0.006612122058868408,0.007897019386291504,0.023859400281043594,-0.23954708778577233,-0.8362941816241629,-0.49260527293702505,0.9484191713035373,-2.6485742295992103,-0.8148232071533634
1781516124478467840,2.6535940170288086,-0.09073790162801743,-1.0611608028411865,-1.0728113651275635,-0.26176807284355164,-0.8156617879867554,0.5159201622009277,-0.006679803133010864,-0.05685102939605713,0.057917237281799316,0.016689432943368755,-0.23776328253999138,-0.8375134044872683,-0.49169246152564267,0.9538721858725333,-2.6720577147040685,-0.7991583365647232
1781516124488501504,2.6636276245117188,-0.16203445196151733,-1.0555490255355835,-1.1130096912384033,-0.24730035662651062,-0.8191498517990112,0.5175288915634155,-0.03623846173286438,-0.05945122241973877,0.03778433799743652,0.009386572299951157,-0.2357699614652569,-0.8385564728254098,-0.49106768244282106,0.95992721736715,-2.695822816003477,-0.7830578531240765
1781516124498535680,2.673661708831787,-0.07693846523761749,-1.0399469137191772,-1.0923237800598145,-0.23276251554489136,-0.8224920034408569,0.5189687609672546,-0.05141717195510864,0.009229063987731934,0.014890551567077637,0.0020965619911325383,-0.23372046917055592,-0.8395588786847952,-0.4904194672189356,0.9657786033196593,-2.7199787565113174,-0.7664674786862373
1781516124508569600,2.6836957931518555,0.02856132946908474,-0.9958388805389404,-1.1129001379013062,-0.21838292479515076,-0.8250588774681091,0.5211402773857117,-0.03880402445793152,0.037018537521362305,0.030968546867370605,-0.004901554054879743,-0.23158529704547096,-0.8407962806549956,-0.4892913008590726,0.9703063737195498,-2.744773961171144,-0.7487373201194041
1781516124518603520,2.6937296390533447,0.12982536852359772,-0.9975056648254395,-1.1213421821594238,-0.20389868319034576,-0.8270223736763,0.5238889455795288,-0.04266813397407532,0.012996375560760498,-0.017754852771759033,-0.011745704018059293,-0.229293507874128,-0.8422404435392222,-0.4877680509801609,0.973790208990559,-2.7704293289621864,-0.7297342695063289
1781516124528637696,2.703763723373413,0.23371607065200806,-1.0113391876220703,-1.100277304649353,-0.1893787682056427,-0.8282387852668762,0.527405321598053,-0.03175163269042969,-0.03902512788772583,-0.05690056085586548,-0.01850360602628515,-0.227079353098876,-0.8438824668589641,-0.48575201335675533,0.9759574309819324,-2.7968549956340265,-0.7100203372981418
1781516124538671616,2.7137978076934814,0.24085627496242523,-0.9995476007461548,-1.1139904260635376,-0.1748606115579605,-0.8289589881896973,0.5312724113464355,-0.016621887683868408,-0.08829247951507568,-0.0408703088760376,-0.02516541391508343,-0.2248612777338507,-0.8456202521952388,-0.48345670356930326,0.9772439091534404,-2.8236248840551297,-0.6898622984863674
1781516124548705536,2.7238316535949707,0.1804552525281906,-0.9930975437164307,-1.1117209196090698,-0.16026413440704346,-0.8297119140625,0.5346900820732117,-0.023909449577331543,-0.0894622802734375,-0.029532670974731445,-0.03185547468292491,-0.22257083805904404,-0.8472350713977853,-0.48129009545668733,0.9785913485725284,-2.850381063228045,-0.6696500696583509
1781516124558739712,2.733865737915039,0.11482298374176025,-0.98493891954422,-1.1192866563796997,-0.14567185938358307,-0.83062344789505,0.5374423861503601,-0.03169630467891693,-0.04938143491744995,0.007815122604370117,-0.03858103299265732,-0.22024549846789188,-0.848653709865135,-0.4793644712380711,0.9802264222006858,-2.876905718130285,-0.6496546883604841
1781516124568774656,2.743900775909424,0.09404473006725311,-0.9535320401191711,-1.1292866468429565,-0.1310276985168457,-0.8316469192504883,0.5396250486373901,-0.0527186393737793,0.008923530578613281,0.03766071796417236,-0.04531993135250333,-0.21780804321148597,-0.8499248091971013,-0.4776333314358026,0.9820669390870936,-2.903390074852359,-0.6295396217528316
1781516124578808832,2.753934860229492,0.10991024971008301,-0.9058646559715271,-1.122011661529541,-0.11659214645624161,-0.8325217366218567,0.5415845513343811,-0.07513453811407089,0.04739600419998169,0.04032456874847412,-0.05186470027698737,-0.21523973712946076,-0.8511545873741416,-0.4759388428863332,0.9836441905868415,-2.929549188291883,-0.6092767990520399
1781516124588842752,2.7639687061309814,0.2135056108236313,-0.8959478139877319,-1.0971838235855103,-0.1024199053645134,-0.8328719735145569,0.5439063310623169,-0.06091015040874481,0.038240134716033936,0.030342817306518555,-0.058187030221430736,-0.21269272979421666,-0.8524757817874046,-0.47398416261581666,0.9842766442657557,-2.955467823173049,-0.5890102247717959
1781516124598876672,2.77400279045105,0.28599128127098083,-0.8677864670753479,-1.0955963134765625,-0.08842336386442184,-0.832527756690979,0.5468814373016357,-0.04103223234415054,-0.026191294193267822,0.03986489772796631,-0.06430209636406338,-0.2101776101268208,-0.8539707798761316,-0.47161918789614965,0.9836549949606767,-2.981293388864771,-0.5686532755589342
1781516124608910592,2.784036636352539,0.3461475372314453,-0.8699193000793457,-1.0882818698883057,-0.0745319128036499,-0.8316619396209717,0.5502580404281616,-0.03485836833715439,-0.06990379095077515,-0.01818394660949707,-0.07026005251925284,-0.20764333430664214,-0.8555777391318168,-0.46897191973253993,0.9820939616297845,-3.0069629694657065,-0.5482497504847593
1781516124618944768,2.7940707206726074,0.36108869314193726,-0.8651127815246582,-1.0795561075210571,-0.06069232150912285,-0.8304086923599243,0.5538396835327148,-0.014045249670743942,-0.06445842981338501,-0.05005538463592529,-0.07616044540409682,-0.20516149275476206,-0.8572214440452642,-0.46613292760473907,0.9798407676824712,-3.0324435429744194,-0.5280778815278323
1781516124628978688,2.804104804992676,0.2771940529346466,-0.8650665879249573,-1.074355125427246,-0.04690692946314812,-0.8291940689086914,0.5569896697998047,0.005921799689531326,-0.03686445951461792,-0.03863322734832764,-0.08206067094211399,-0.20266441582298472,-0.8587327677251699,-0.46343435011034445,0.9776643204107751,-3.057575819387929,-0.5082331571665382
1781516124639012608,2.814138650894165,0.14689676463603973,-0.8572773933410645,-1.0551402568817139,-0.033233530819416046,-0.828406035900116,0.5591410994529724,0.009490858763456345,-0.013665437698364258,-0.006605207920074463,-0.088026445183297,-0.20017306662171527,-0.859942605063307,-0.46117320845392357,0.9762559380254477,-3.0822257452237896,-0.48893414223081316
1781516124649047552,2.82417368888855,0.09766236692667007,-0.8417520523071289,-1.0279682874679565,-0.019790202379226685,-0.8280538320541382,0.5602995157241821,0.005263824015855789,0.007130861282348633,0.042987287044525146,-0.09399411029578494,-0.1976869486419593,-0.8608540094817135,-0.4593642060146338,0.9756274940928796,-3.106286573611753,-0.47018816249724354
1781516124659081728,2.834207773208618,0.07196313142776489,-0.7796921730041504,-1.0020239353179932,-0.00680867163464427,-0.8276865482330322,0.5611495971679688,-0.005108445882797241,0.0070534348487854,0.08461761474609375,-0.09974933413679958,-0.19523140408259035,-0.861660903063176,-0.45768475442518575,0.9749726194234841,-3.1294598152310353,-0.45205988457786955
1781516124669115904,2.8442418575286865,0.043083544820547104,-0.7197273373603821,-0.9747700095176697,0.005612007342278957,-0.8273605108261108,0.5616429448127747,-0.015637021511793137,0.01029825210571289,0.053530335426330566,-0.10519647962570809,-0.1927088576890759,-0.8623715937929091,-0.456193105186574,0.9743919861331664,3.1316008597524867,-0.43440996051074493
1781516124679149568,2.854275703430176,0.08480622619390488,-0.6845720410346985,-0.9486047029495239,0.01754315011203289,-0.8269283175468445,0.562034010887146,0.00532977469265461,0.03733164072036743,0.02288120985031128,-0.11037494593085564,-0.19018443618592962,-0.8630451318575694,-0.4547532178198385,0.9736228579188192,3.110389104368134,-0.41727885680723253
1781516124689183744,2.864309787750244,0.09696808457374573,-0.6537979245185852,-0.928646445274353,0.02907388098537922,-0.8261612057685852,0.5626835227012634,0.04303915426135063,0.03107130527496338,0.004165291786193848,-0.11530789815599543,-0.18770725938233687,-0.8637752953706329,-0.4531693303464801,0.9722600369924691,3.0899685231005263,-0.40068276564490457
1781516124699217664,2.8743436336517334,0.0008407515706494451,-0.6566919684410095,-0.9114741086959839,0.04040831699967384,-0.8255656957626343,0.5628572702407837,0.05819397792220116,0.007831931114196777,-0.027395963668823242,-0.12019310346786832,-0.1852273030836084,-0.864360742737259,-0.4518018701479504,0.9712039166865122,3.06992420548132,-0.3843675905492565
1781516124709251584,2.8843777179718018,-0.023617718368768692,-0.6297322511672974,-0.8710896968841553,0.051398903131484985,-0.8252133131027222,0.5624774098396301,0.061073631048202515,-0.006451606750488281,0.019370675086975098,-0.12500258841274633,-0.18282040837134267,-0.8647631989977491,-0.45070562752087245,0.9705797888575552,3.050466231876413,-0.3686064446240656
1781516124719286784,2.8944127559661865,-0.0812637060880661,-0.6079715490341187,-0.8653867840766907,0.06207432597875595,-0.8250239491462708,0.5616783499717712,0.05050502344965935,-0.0170477032661438,0.03147655725479126,-0.12969353322851113,-0.18041042511469405,-0.8650383045268384,-0.4498227387630486,0.9702445443581139,3.031523540163139,-0.35315690164564284
1781516124729320704,2.904446840286255,-0.12200473994016647,-0.5940569639205933,-0.8274213075637817,0.07246915251016617,-0.8250550031661987,0.5603861808776855,0.03516634553670883,0.02955317497253418,-0.0025400519371032715,-0.13430772701006358,-0.1780177973151964,-0.865160543556743,-0.4491863829916969,0.9702995326252511,3.0129863938161168,-0.33799553805475113
1781516124739354624,2.914480686187744,-0.025760231539607048,-0.5661675333976746,-0.7966213226318359,0.08246074616909027,-0.824864387512207,0.5592844486236572,0.041227005422115326,0.07791614532470703,0.028407812118530273,-0.13873299252519597,-0.1757506447984882,-0.8653056963301765,-0.44845397895254596,0.9699622821015659,2.995207584351998,-0.32352629638837255
1781516124749388800,2.9245147705078125,-0.029230332002043724,-0.5463047027587891,-0.7822617888450623,0.09207478165626526,-0.8242606520652771,0.5586743354797363,0.04551372677087784,0.06408292055130005,-0.0024151206016540527,-0.1429204504632468,-0.17357296638877684,-0.8655689350057812,-0.4474781532009382,0.9688951346095918,2.978251579864884,-0.309710196272988
1781516124759422720,2.934548854827881,-0.07052237540483475,-0.5787199139595032,-0.766211986541748,0.1016325131058693,-0.8237661123275757,0.5577460527420044,0.053183168172836304,0.04120367765426636,-0.045004844665527344,-0.14713758034427402,-0.17142832369999045,-0.8657282250740826,-0.4466292166272588,0.9680223484343929,2.9613501697805784,-0.2960319489621725
1781516124769456640,2.94458270072937,-0.05019420385360718,-0.546857476234436,-0.6980119347572327,0.11084321141242981,-0.823356032371521,0.5565952062606812,0.0638241320848465,-0.006035327911376953,0.008513927459716797,-0.15128948998997355,-0.16946544471901634,-0.8657823479543834,-0.44588537611619655,0.9672993962512619,2.9450192453997963,-0.28309270670553327
1781516124779490816,2.9546167850494385,-0.12346389144659042,-0.49365097284317017,-0.706737220287323,0.11949307471513748,-0.8230120539665222,0.5553134083747864,0.05213778465986252,-0.06842178106307983,0.061385929584503174,-0.1551663994064104,-0.16752674197114487,-0.865789513427138,-0.4452716122785141,0.9666934703396526,2.9296431715935243,-0.2707189394339889
1781516124789524480,2.9646506309509277,-0.12495073676109314,-0.4821193516254425,-0.6730250716209412,0.12792307138442993,-0.822886049747467,0.5536189079284668,0.026343271136283875,-0.04607135057449341,0.025757193565368652,-0.1589320749881899,-0.1654881227318452,-0.8656922886015801,-0.44489439988703444,0.9664717127167827,2.9145111043122975,-0.25823901345836064
1781516124799559680,2.9746856689453125,-0.10023393481969833,-0.43518033623695374,-0.6024470329284668,0.13572899997234344,-0.822674572467804,0.5520723462104797,0.028592899441719055,0.005047738552093506,0.009389936923980713,-0.16244792481904707,-0.16366742041778093,-0.8655917854764476,-0.44449341732396375,0.9660996298670367,2.900520228869557,-0.24686428992327963
1781516124809593600,2.984719753265381,-0.10036922246217728,-0.4165158271789551,-0.5838749408721924,0.1429537534713745,-0.8223713636398315,0.5506996512413025,0.030004650354385376,0.016356170177459717,0.006124258041381836,-0.16568106829575938,-0.16196186002842364,-0.8655161323245494,-0.4440722225232643,0.9655665243632559,2.887612705408304,-0.23633071779891535
1781516124819627776,2.994753837585449,-0.1449047327041626,-0.44781622290611267,-0.5680464506149292,0.15008682012557983,-0.8221912384033203,0.5490681529045105,0.044050753116607666,0.010515093803405762,-0.026591837406158447,-0.16893351993320738,-0.16031763844993002,-0.8653509796218726,-0.44376512345044505,0.9652499465977658,2.874762693384522,-0.2259620453182352
1781516124829661696,3.0047876834869385,-0.17526397109031677,-0.4451606571674347,-0.5419493317604065,0.1571483612060547,-0.8222589492797852,0.5469870567321777,0.0572834312915802,0.022515177726745605,-0.004186093807220459,-0.17226286294369003,-0.15876941032956304,-0.8650351409224386,-0.44365758262097904,0.9653689474328706,2.8618292988619465,-0.21574081165139675
1781516124839695616,3.014821767807007,-0.14421284198760986,-0.3909432291984558,-0.525477409362793,0.16380496323108673,-0.8222529292106628,0.5450395941734314,0.04235655069351196,0.011568605899810791,0.053043901920318604,-0.1753774684911748,-0.1572696248786482,-0.8647462361965728,-0.4435346489681543,0.9653583848573041,2.8496426036139764,-0.20602318582257256
1781516124849729792,3.024855852127075,-0.12515473365783691,-0.3469664454460144,-0.5331007242202759,0.1701953411102295,-0.8221518397331238,0.5432310700416565,0.012849092483520508,0.0028005242347717285,0.038021981716156006,-0.1782655397545367,-0.15565039626326205,-0.8645163243744673,-0.4434026400169509,0.9651807848786879,2.837977349309578,-0.19631204431260524
1781516124859763712,3.0348896980285645,0.006518344860523939,-0.30466800928115845,-0.49197086691856384,0.17621372640132904,-0.8215891122817993,0.5421624183654785,0.016993075609207153,0.027475953102111816,0.022229671478271484,-0.18088100138438998,-0.15410868923208565,-0.8644835022438244,-0.44294566383070527,0.9641929583280084,2.827342499074069,-0.18739843337370576
1781516124869798656,3.044924736022949,0.01231870986521244,-0.24818448722362518,-0.5017792582511902,0.18177001178264618,-0.8206006288528442,0.5418248176574707,0.03757506608963013,-0.020479023456573486,0.03718513250350952,-0.1831511404835108,-0.1525939620164079,-0.864654554912176,-0.4422026818394282,0.9624612162797,2.817913630620994,-0.17926466199844274
1781516124879832832,3.0549588203430176,-0.042236942797899246,-0.2613993287086487,-0.4857443869113922,0.1872238963842392,-0.8197681903839111,0.541227400302887,0.0326094776391983,-0.06119793653488159,-0.029508769512176514,-0.185351903428813,-0.15097508146270025,-0.8647659874436467,-0.4416230472784615,0.9610061811959357,2.808553036010262,-0.17091236493743095
1781516124889866496,3.064992666244507,-0.06295739859342575,-0.2830199599266052,-0.4541683495044708,0.19254113733768463,-0.8191622495651245,0.5402786135673523,0.05568881332874298,-0.04077720642089844,-0.058528125286102295,-0.1876084009019798,-0.14950622856690463,-0.8647468968990861,-0.441207140913858,0.9599489009805685,2.79925095504341,-0.16290216391545403
1781516124899900672,3.075026750564575,-0.09972500056028366,-0.2901596426963806,-0.4380578398704529,0.1977706104516983,-0.8187476992607117,0.5390170812606812,0.06870892643928528,-0.007958412170410156,-0.0582582950592041,-0.1899119768411421,-0.14813057403168287,-0.8646189169776237,-0.4409365589596194,0.9592265258519952,2.789933628535824,-0.1550649500070408
1781516124909934848,3.0850608348846436,-0.08980952203273773,-0.2901056706905365,-0.41105523705482483,0.20282141864299774,-0.8184090852737427,0.5376520752906799,0.059980690479278564,0.015552759170532227,-0.04097861051559448,-0.19218349039134655,-0.1468506228170052,-0.8644425584539254,-0.4407259597155531,0.9586369704814738,2.7808636000035865,-0.14756254383871387
1781516124919968512,3.095094680786133,-0.06199892982840538,-0.2656232416629791,-0.37147772312164307,0.20755869150161743,-0.818008303642273,0.5364532470703125,0.048560112714767456,0.0016934871673583984,-0.006408631801605225,-0.19432391326886272,-0.14569334768853623,-0.8642916615926833,-0.4404675759254699,0.9579398770242572,2.772422161653105,-0.14068513941827832
1781516124930002688,3.105128765106201,-0.032065264880657196,-0.21783269941806793,-0.34215977787971497,0.2117309272289276,-0.8175048232078552,0.535589337348938,0.0347900390625,-0.022003173828125,0.07044404745101929,-0.19617009208036554,-0.14465404246541688,-0.864216330746216,-0.4401393395020297,0.9570650737124937,2.7651244226252065,-0.1346967382825992
1781516124940036864,3.1151628494262695,0.008389482274651527,-0.18127256631851196,-0.3455073833465576,0.2156093865633011,-0.8168237805366516,0.5350807309150696,0.01794162392616272,-0.027322888374328613,0.05534273386001587,-0.19779194029628935,-0.14358894910089964,-0.8642468251496639,-0.43970212616304927,0.9558836173028644,2.7585480082035287,-0.12907217748467723
1781516124950071552,3.125197649002075,0.05719883367419243,-0.15434227883815765,-0.329452782869339,0.21926455199718475,-0.815949022769928,0.5349299311637878,0.02153436839580536,-0.004744827747344971,-0.010287106037139893,-0.19923681639552895,-0.1425168956103309,-0.8643806490048415,-0.4391351342368538,0.9543689013384222,2.752586218360329,-0.12380850743884968
1781516124960105728,3.1352317333221436,0.10937974601984024,-0.17203524708747864,-0.36591440439224243,0.22293096780776978,-0.8146804571151733,0.5353479385375977,0.04948417842388153,-0.009141504764556885,-0.04511362314224243,-0.20061990182796763,-0.14147771833544803,-0.8646721983190054,-0.4382666486321971,0.9521779736299076,2.7470095088244193,-0.11894292205359672
1781516124970139648,3.145265817642212,0.07703858613967896,-0.18774989247322083,-0.3688465356826782,0.22696667909622192,-0.8133555054664612,0.5356666445732117,0.06014268100261688,-0.07894784212112427,-0.05954664945602417,-0.20216812523287717,-0.1403422862718567,-0.8649493423713847,-0.4373724389456617,0.9498968170595419,2.7408161615701587,-0.11357531444335257
1781516124980173568,3.155299663543701,0.09277147054672241,-0.16914132237434387,-0.3387852907180786,0.23080098628997803,-0.8120884299278259,0.5359506011009216,0.03709752857685089,-0.11509650945663452,-0.005524635314941406,-0.20365937758009053,-0.13929722346077655,-0.8652003142621986,-0.4365174357388057,0.9477221636323455,2.734955826679016,-0.10858436250062867
1781516124990207744,3.1653337478637695,0.038579873740673065,-0.13462422788143158,-0.34310922026634216,0.23436740040779114,-0.8108919262886047,0.5362150073051453,0.015617355704307556,-0.09863883256912231,0.028955399990081787,-0.20499848277265595,-0.1382292194844705,-0.8654479696558482,-0.4357386961437713,0.945674615060063,2.729537069449791,-0.10375622881327422
1781516125000241664,3.175367832183838,-0.026961317285895348,-0.12130016088485718,-0.3118399679660797,0.23776422441005707,-0.8101153373718262,0.535892903804779,-0.008790865540504456,-0.04503285884857178,0.06379276514053345,-0.20628673409963785,-0.13706680950135422,-0.8655397898533381,-0.4353151786892035,0.9443488329788308,2.724007983902812,-0.09853385724778078
1781516125010275584,3.185401678085327,-0.010117356665432453,-0.0587887205183506,-0.2556592524051666,0.24054326117038727,-0.8095399141311646,0.5355227589607239,-0.03976805508136749,-0.004577696323394775,0.13265979290008545,-0.20731418822049968,-0.13603070646078186,-0.8655963353518491,-0.4350398148157933,0.9433680125267438,2.7194252728903288,-0.0940216206701738
1781516125020309760,3.1954357624053955,-0.05130607262253761,-0.021185418590903282,-0.24311603605747223,0.24274025857448578,-0.8090733289718628,0.5352363586425781,-0.0599551796913147,0.004034698009490967,0.13840878009796143,-0.20802349625723016,-0.13500799807715927,-0.8656737333234229,-0.43486572558272224,0.9425736699146468,2.7158155619375517,-0.08999804334969998
1781516125030344704,3.2054708003997803,-0.12426416575908661,-0.03423943370580673,-0.21753478050231934,0.24476635456085205,-0.8089984059333801,0.5344254374504089,-0.04963700473308563,0.015190541744232178,0.11736881732940674,-0.20871640010622966,-0.1339807390809404,-0.8655991451319582,-0.43499951935123016,0.9424461268344504,2.712106632419337,-0.08578608877824552
1781516125040378624,3.2155046463012695,-0.05759219825267792,-0.024556715041399002,-0.1949722021818161,0.24660687148571014,-0.8090229630470276,0.5335418581962585,-0.016534850001335144,0.013567090034484863,0.15168458223342896,-0.20937140044198674,-0.13305536190425574,-0.8654866780998294,-0.43519271078737665,0.9424879490510027,2.7086337336096817,-0.0818937360649697
1781516125050412544,3.225538730621338,-0.027243345975875854,0.005155374761670828,-0.20731569826602936,0.24824653565883636,-0.8087107539176941,0.5332545638084412,-0.008210539817810059,-0.03354376554489136,0.14928632974624634,-0.20985579341843583,-0.1321802614034079,-0.8655377872457328,-0.43512436373179786,0.9419569604957372,2.7058984681745586,-0.07860314359582282
1781516125060446720,3.2355728149414062,-0.03361442685127258,-0.02044452726840973,-0.20728187263011932,0.2499789446592331,-0.8083499073982239,0.5329920649528503,-0.010187119245529175,-0.0729823112487793,0.08260846138000488,-0.21035832816074373,-0.13124878229598985,-0.86560371430753,-0.4350324328546492,0.9413438001853873,2.7030424337770738,-0.07514001010352717
1781516125070480640,3.2456066608428955,0.0012522100005298853,-0.05831574648618698,-0.18910978734493256,0.2517946660518646,-0.8079466819763184,0.5327487587928772,0.000539928674697876,-0.04576718807220459,0.008892357349395752,-0.21097625573043421,-0.13046279094625537,-0.86565225829372,-0.4348729823005344,0.9406591109175872,2.7000773149758017,-0.07197502394891801
1781516125080514560,3.255640745162964,-0.015371507033705711,-0.07762578874826431,-0.15678301453590393,0.2535279095172882,-0.8075166940689087,0.5325790047645569,0.021572768688201904,-0.011163115501403809,-0.03569185733795166,-0.2116371591584888,-0.12987168326139348,-0.8656921267672302,-0.43464952972291,0.9399298075843653,2.697297653000097,-0.06936504652266637
1781516125090548736,3.2656748294830322,-0.15165238082408905,-0.12321684509515762,-0.15037012100219727,0.2552703320980072,-0.8075516223907471,0.531692624092102,0.03812563419342041,-0.03288710117340088,-0.0217287540435791,-0.2124362165633289,-0.12933711898121666,-0.8655161635797354,-0.43476938476157584,0.9399890400624046,2.693984249688981,-0.06645347843764414
1781516125100583680,3.275709629058838,-0.21968629956245422,-0.15896710753440857,-0.12560512125492096,0.25716182589530945,-0.8082485795021057,0.5297188758850098,0.03774482011795044,-0.04500764608383179,0.048085689544677734,-0.21349502104687174,-0.12884323847649362,-0.8650195658082275,-0.4353853957090881,0.9411716171188889,2.6896376911027207,-0.0628743154178403
1781516125110617600,3.2857437133789062,-0.1548609584569931,-0.1026654988527298,-0.0927736684679985,0.25871822237968445,-0.8089622259140015,0.5278680920600891,0.011652201414108276,-0.004102230072021484,0.10468488931655884,-0.2144206216163894,-0.12847879251118965,-0.8645387556654289,-0.4359927409853513,0.9423846630570326,2.6858809872767675,-0.05987670170062114
1781516125120651776,3.2957777976989746,-0.15602342784404755,-0.0842505395412445,-0.0764831081032753,0.2598819434642792,-0.8095777630805969,0.5263505578041077,-0.024652481079101562,0.028068482875823975,0.09234744310379028,-0.215099264089504,-0.12814072959597422,-0.8641500048397739,-0.4365282820782416,0.9434325015848516,2.6829630808458,-0.05739279735008499
1781516125130685440,3.305811643600464,-0.13297855854034424,-0.09195226430892944,-0.019227011129260063,0.2607538104057312,-0.8102424144744873,0.5248945951461792,-0.03149056434631348,0.038407206535339355,0.10675811767578125,-0.21569032813221686,-0.12795852460124268,-0.8637557107891466,-0.43707008746422027,0.9445655826382323,2.6805294539359554,-0.055490882576131904
1781516125140719616,3.3158457279205322,-0.009472073055803776,-0.08349273353815079,-0.0011563982116058469,0.26126453280448914,-0.8106071352958679,0.5240769386291504,-0.010211706161499023,0.02209407091140747,0.11137527227401733,-0.21613288905339806,-0.12805203846127225,-0.8635051501731941,-0.4373191068208042,0.9451881313821305,2.6791271711058346,-0.05485954261188742
1781516125150753792,3.3258798122406006,0.001807212713174522,-0.08224064856767654,-0.00752028776332736,0.2617012560367584,-0.8105639815330505,0.5239261984825134,0.006395697593688965,-0.025404155254364014,0.027450144290924072,-0.21647405051896795,-0.12821678292442926,-0.8634370620132523,-0.43723671329970637,0.9451144708453578,2.6783449313878562,-0.05486134537241117
1781516125160787456,3.33591365814209,-0.031409330666065216,-0.11908707767724991,0.013872086070477962,0.26222917437553406,-0.8106682300567627,0.5235005617141724,0.02529221773147583,-0.052353620529174805,-0.03331196308135986,-0.21691986524505286,-0.12841143452427084,-0.8632848858483939,-0.4372590434342815,0.9452925000590946,2.6772135164295268,-0.054699587164190745
1781516125170821632,3.345947742462158,0.03545838221907616,-0.10460667312145233,0.041050709784030914,0.2625786066055298,-0.8107460141181946,0.5232045650482178,0.03423532843589783,-0.05970674753189087,-0.026271700859069824,-0.21735172085851664,-0.12880598679209765,-0.8631403685478914,-0.43721372025939054,0.945425389041435,2.676453325827755,-0.05519901596568539
1781516125180856832,3.355982780456543,0.009946365840733051,-0.09088180959224701,0.03062230348587036,0.2627890706062317,-0.8106873035430908,0.5231899619102478,0.031018882989883423,-0.0730406641960144,-0.055477678775787354,-0.2176616667004377,-0.12918962357848895,-0.8630788096135046,-0.4370678697024452,0.9453250573332117,2.6761208561854084,-0.055942012298923455
1781516125190890496,3.3660166263580322,-0.05767528712749481,-0.11034205555915833,0.07614078372716904,0.2629270851612091,-0.8109489679336548,0.5227149128913879,0.021939218044281006,-0.044031381607055664,-0.06290656328201294,-0.21801734418290117,-0.1296062931019425,-0.8628787066818466,-0.43716232122954907,0.9457721206668546,2.6755456756767404,-0.05651638047845654
1781516125200924672,3.3760507106781006,-0.034356117248535156,-0.07681658864021301,0.14358960092067719,0.2625229060649872,-0.8115197420120239,0.5220317244529724,0.01356959342956543,-0.019458532333374023,0.020158708095550537,-0.2182187856489031,-0.130233750173124,-0.8625862449951401,-0.4374524072360417,0.9467483194955667,2.675638196127855,-0.05779972487493281
1781516125210958592,3.386084794998169,0.008563652634620667,-0.008720760233700275,0.17893347144126892,0.26141616702079773,-0.8119885325431824,0.5218585133552551,-0.01536819338798523,-0.04505187273025513,0.09477972984313965,-0.21805794425828803,-0.13104182229710556,-0.8624136422182721,-0.43763170883566704,0.9475510130906022,2.6771988693381275,-0.0602865907359387
1781516125220992512,3.396118640899658,0.0032732828985899687,0.025414839386940002,0.20118312537670135,0.25981712341308594,-0.8124668002128601,0.5219128727912903,-0.04073140025138855,-0.07615941762924194,0.06838876008987427,-0.21758380114428127,-0.13182143562146714,-0.8623105813550614,-0.4378366788366784,0.9483709245335318,2.6796929458540113,-0.06317963283814723
1781516125231026688,3.4061527252197266,0.10929505527019501,0.059954576194286346,0.2553994953632355,0.25771278142929077,-0.8128017783164978,0.5224339365959167,-0.03449201583862305,-0.030932843685150146,0.020656883716583252,-0.21686418310240213,-0.13279043545542552,-0.8623129758198596,-0.4378960076945006,0.9489457227634868,2.683325347281801,-0.0671460790816031
1781516125241060608,3.416186809539795,0.15472671389579773,0.13210760056972504,0.234218567609787,0.25515511631965637,-0.812690794467926,0.5238600969314575,-0.00901561975479126,-0.0206068754196167,-0.003611743450164795,-0.21579149053504015,-0.13381134398074127,-0.8625685919224121,-0.4376116139400189,0.9487551491405581,2.688344626586708,-0.07210218160984236
1781516125251095808,3.4262218475341797,0.1243794709444046,0.16246697306632996,0.21231088042259216,0.25254037976264954,-0.8125341534614563,0.5253678560256958,-0.006263554096221924,-0.07946401834487915,-0.017097651958465576,-0.21455281996247874,-0.1345898012179082,-0.8628844123786494,-0.4373592382709993,0.9484864747392104,2.693510008384959,-0.07658287280702646
1781516125261129728,3.436255693435669,0.07058947533369064,0.16632962226867676,0.1947270929813385,0.2500033378601074,-0.8125190138816833,0.5266036987304688,0.011944323778152466,-0.0845147967338562,-0.041862428188323975,-0.2133246238992057,-0.13522579771532,-0.8631430012346492,-0.4372537370701947,0.9484604152643672,2.6983510601502276,-0.08051521350711711
1781516125271163648,3.4462897777557373,0.08854343742132187,0.1865689754486084,0.22363543510437012,0.24735887348651886,-0.8126572966575623,0.5276380181312561,0.005372479557991028,-0.043650805950164795,-0.028873980045318604,-0.21204732495689813,-0.13581914846155688,-0.863349388857616,-0.43728365468047153,0.9486977633628584,2.703211734134001,-0.08430365156000116
1781516125281197568,3.4563236236572266,0.09449347108602524,0.21902677416801453,0.22645199298858643,0.24438436329364777,-0.8127285838127136,0.5289130806922913,-0.009887248277664185,-0.010315418243408203,-0.025723814964294434,-0.2105838924266378,-0.1364663404892737,-0.8636165057032215,-0.437262004931173,0.9488200742796918,2.708763129598686,-0.08858945164839252
1781516125291231744,3.466357707977295,0.05082322657108307,0.19531093537807465,0.21090392768383026,0.2414599061012268,-0.8128591775894165,0.5300539135932922,0.0017956942319869995,-0.003791213035583496,-0.03205275535583496,-0.2091311076782808,-0.1370413991511017,-0.8638556688421964,-0.43730682025636064,0.9490442514718909,2.7141425593147033,-0.09260049417208849
1781516125301265664,3.4763917922973633,0.02700231410562992,0.1756027340888977,0.21907930076122284,0.2387412041425705,-0.8132154941558838,0.5307380557060242,0.012326881289482117,0.00541532039642334,-0.013205766677856445,-0.20784223434251062,-0.1375865271679691,-0.8639669983317276,-0.4375299785370255,0.9496562564343032,2.718881199940561,-0.09614394909199596
1781516125311299584,3.4864256381988525,0.11282454431056976,0.22915251553058624,0.25165295600891113,0.23571069538593292,-0.8134042620658875,0.5318030714988708,-0.003227740526199341,0.016590118408203125,0.03770089149475098,-0.20640030888294306,-0.13827263170959792,-0.8641656130322013,-0.43760432930148613,0.949980659821667,2.7243834918509724,-0.10045712914599823
1781516125321334528,3.4964606761932373,0.044835109263658524,0.2595583498477936,0.21057182550430298,0.2324507236480713,-0.8134936690330505,0.5330989956855774,-0.03230121731758118,-0.027707993984222412,0.05389136075973511,-0.204731898231753,-0.13882311380853365,-0.8644522221338385,-0.43764744364535735,0.950134355135391,2.730411088678398,-0.10475451407304043
1781516125331368704,3.5064947605133057,0.024381764233112335,0.21023276448249817,0.19829998910427094,0.2295181006193161,-0.8138294816017151,0.5338570475578308,-0.04085840284824371,-0.007597029209136963,-0.0038581490516662598,-0.2032386221219771,-0.13921300190846483,-0.8646087345628642,-0.4379105317738948,0.9507120032699906,2.7355585176195625,-0.10815856468281142
1781516125341402880,3.516528844833374,0.08876927942037582,0.2089267373085022,0.1956341564655304,0.22675549983978271,-0.8139912486076355,0.5347895622253418,-0.016962438821792603,0.04168301820755005,-0.026885688304901123,-0.2018566996840192,-0.13969340209242648,-0.8648008657195704,-0.4380171094988267,0.9509904766540276,2.74056183883524,-0.11175447663574542
1781516125351436544,3.5265626907348633,0.06481467187404633,0.20819371938705444,0.1357031762599945,0.22421737015247345,-0.813919186592102,0.5359687209129333,-0.009678751230239868,0.0255889892578125,-0.05075448751449585,-0.20049651020954043,-0.14005017032849038,-0.865083996136144,-0.4379690438665001,0.9508663870112873,2.7453762602908793,-0.11503892663558542
1781516125361470720,3.5365967750549316,-0.036752428859472275,0.16975204646587372,0.09924450516700745,0.22224119305610657,-0.8140920996665955,0.5365290641784668,-0.003552168607711792,-0.010233640670776367,-0.07496583461761475,-0.19940080999028376,-0.1401505614867845,-0.8652296477991693,-0.43814947324446835,0.9511641155319648,2.748887863675648,-0.11699815164686715
1781516125371504896,3.546630859375,-0.08415456861257553,0.11773145198822021,0.08776335418224335,0.2207166850566864,-0.8146753311157227,0.5362725853919983,0.016465947031974792,0.008477210998535156,-0.036150574684143066,-0.19862352615420775,-0.14016135979806113,-0.8651537913596117,-0.438648410088076,0.9521691657304683,2.751147360103703,-0.11799813669407994
1781516125381538560,3.5566647052764893,-0.017788326367735863,0.11457294225692749,0.07217001169919968,0.21941590309143066,-0.8151069283485413,0.5361502766609192,0.018560156226158142,0.06840288639068604,-0.00743335485458374,-0.19797688809659875,-0.14023192179550745,-0.8651070088235,-0.4390101845823082,0.9529137597709161,2.753143394432448,-0.11904892244237067
1781516125391573760,3.566699743270874,-0.0773821473121643,0.08892390877008438,0.044666215777397156,0.2183733731508255,-0.8154640197753906,0.5360329151153564,0.006907358765602112,0.11024868488311768,-0.03578883409500122,-0.19741256410113464,-0.14019241161867474,-0.8650795013918708,-0.4393310281676444,0.9535304260228609,2.7547335864219975,-0.11966220619481635
