time,seconds_elapsed,rotationRateX,rotationRateY,rotationRateZ,gravityX,gravityY,gravityZ,accelerationX,accelerationY,accelerationZ,quaternionW,quaternionX,quaternionY,quaternionZ,pitch,roll,yaw
1781556288782943232,0.2662353515625,-0.20143289864063263,0.03974346071481705,0.00649992423132062,0.2822359502315521,-0.26720064878463745,-0.9213830232620239,-0.017801135778427124,0.0015756487846374512,0.008190274238586426,-0.4055778023922435,0.07466929584183067,-0.18366539446636793,-0.892299438611202,0.2704868728315529,0.29724274654741834,2.2476197951297756
1781556288792978176,0.27627015113830566,-0.1881980448961258,0.04434513300657272,0.008162535727024078,0.2825940251350403,-0.2654187083244324,-0.921788215637207,-0.01777777075767517,0.00785037875175476,-0.00036144256591796875,-0.40542988508277816,0.07524287555728237,-0.18287811708746168,-0.8924800498607666,0.26863819457659294,0.297474780992973,2.2482965695964356
1781556288803013120,0.28630518913269043,-0.15337641537189484,0.05030542239546776,0.01214049942791462,0.2829945385456085,-0.26387766003608704,-0.9221077561378479,-0.016866058111190796,0.011756718158721924,-0.0064811110496521,-0.4052752798373394,0.07578613139139213,-0.18221579710102132,-0.8926397971124107,0.2670401478294791,0.2977746770086585,2.248921128260243
1781556288813048064,0.2963402271270752,-0.12803271412849426,0.06043555587530136,0.01028321124613285,0.2834770381450653,-0.2626166343688965,-0.9223195314407349,-0.016982287168502808,0.011365413665771484,-0.008893847465515137,-0.40511941225071113,0.07630815490682956,-0.18170665868478947,-0.8927698879353968,0.26573302732079906,0.29818831236576687,2.249463419710247
1781556288823083264,0.30637526512145996,-0.11577443778514862,0.07179966568946838,0.0024513867683708668,0.28407809138298035,-0.26150932908058167,-0.9224491715431213,-0.014989376068115234,0.009647756814956665,-0.006872117519378662,-0.4049836892963484,0.07684840729671764,-0.18130009423007876,-0.892867790029549,0.2645856151133916,0.29874409016456543,2.249897839752896
1781556288833119232,0.31641125679016113,-0.12491414695978165,0.0704297348856926,0.007379566319286823,0.28471460938453674,-0.26041460037231445,-0.9225626587867737,-0.012299448251724243,-0.005454540252685547,0.006775915622711182,-0.4048505858493252,0.07740174552544161,-0.18090782971450406,-0.8929599262739348,0.26345159479643054,0.2993395483967289,2.250315709817495
1781556288843154176,0.3264462947845459,-0.1470775157213211,0.0706101655960083,0.01455785147845745,0.2853309214115143,-0.2591853439807892,-0.9227184057235718,-0.009925037622451782,-0.010910481214523315,0.005283713340759277,-0.40467929425278293,0.07798163691787004,-0.18044298493711733,-0.8930811119325537,0.26217861897656,0.29990176709133837,2.250855376761715
1781556288853189120,0.33648133277893066,-0.16665014624595642,0.07829045504331589,0.016687313094735146,0.2859731614589691,-0.25777631998062134,-0.9229142665863037,-0.011025041341781616,-0.008504807949066162,0.001497030258178711,-0.4044734294899554,0.07861812065801911,-0.17989461190650136,-0.8932291230606597,0.26072004670536236,0.3004769161726956,2.2515093421748054
1781556288863224320,0.34651637077331543,-0.16875670850276947,0.08797876536846161,0.021028798073530197,0.2866767346858978,-0.25626784563064575,-0.9231160283088684,-0.015650123357772827,-0.001666724681854248,-0.0011393427848815918,-0.4042503804811283,0.07930712297997257,-0.17931079546868126,-0.8933865476439389,0.25915911241067396,0.3011103969178562,2.2522120087754116
1781556288873259008,0.3565511703491211,-0.16951383650302887,0.10141307860612869,0.03067370317876339,0.28749269247055054,-0.25476139783859253,-0.9232792854309082,-0.019227951765060425,0.01016300916671753,0.0015110969543457031,-0.40398294977681926,0.08005638242680442,-0.17874938731997678,-0.8935533305931365,0.2576009471940022,0.3018661685444128,2.2529895676699945
1781556288883294208,0.36658620834350586,-0.15185494720935822,0.11931604892015457,0.06633662432432175,0.2883734703063965,-0.25338292121887207,-0.923383891582489,-0.010632991790771484,0.02289891242980957,0.009748637676239014,-0.40361871182606707,0.0808277946687272,-0.17825518123238906,-0.893747186966768,0.2561756969775471,0.3027033270446094,2.253939333402063
1781556288893330176,0.37662220001220703,-0.13709305226802826,0.10091706365346909,0.026306385174393654,0.28920647501945496,-0.2522253394126892,-0.9234403371810913,0.015008002519607544,0.02978271245956421,0.013207793235778809,-0.40323265140661674,0.08153458352251092,-0.17785374552033412,-0.893937208527919,0.25497927008584687,0.30350763596818076,2.254896351567438
1781556288903365120,0.3866572380065918,-0.13817135989665985,0.12769581377506256,0.11997455358505249,0.2901126444339752,-0.25112271308898926,-0.923456609249115,0.004122555255889893,0.014336824417114258,0.01429218053817749,-0.4027700623457451,0.08227873547652023,-0.1774877989279269,-0.8941502621212691,0.2538399496689827,0.304396002494556,2.2559959986633293
1781556288913400064,0.39669227600097656,-0.09851396083831787,0.027182791382074356,0.11344821006059647,0.29062002897262573,-0.25041863322257996,-0.9234882593154907,0.06436043977737427,0.038214653730392456,0.014155983924865723,-0.4018917972396965,0.08283603652841391,-0.17718373579084637,-0.8945541503090536,0.253112654242656,0.3048861817185508,2.258016808438344
1781556288923435264,0.40672731399536133,0.14927852153778076,-0.09221790730953217,0.01924101822078228,0.29014334082603455,-0.25037795305252075,-0.9236491322517395,0.10205331444740295,0.09072524309158325,0.004993736743927002,-0.4016253859496597,0.0826754395974494,-0.17703165147439456,-0.8947187485469956,0.25307063503515786,0.30436663852891244,2.2587241216134473
1781556288933470208,0.4167623519897461,0.3378383219242096,0.03230005502700806,0.06041242554783821,0.2897564470767975,-0.25302600860595703,-0.923048734664917,0.015343010425567627,0.08995535969734192,-0.08091849088668823,-0.40162775781953713,0.08194245552977461,-0.1782163066589767,-0.8945498601979911,0.2558067770989993,0.3041710948043801,2.2581779439688554
1781556288943506176,0.42679834365844727,0.27091413736343384,0.11267531663179398,0.027398280799388885,0.29036420583724976,-0.25589579343795776,-0.9220661520957947,-0.11090558767318726,-0.034555256366729736,-0.04694324731826782,-0.40150271689316797,0.08165117812200781,-0.17972204396965974,-0.8943314125413446,0.25877424238990715,0.3050753505894781,2.257645593958969
1781556288953541120,0.43683314323425293,0.14625610411167145,0.07328344136476517,0.028657956048846245,0.291247695684433,-0.25799018144607544,-0.9212034940719604,-0.041354477405548096,-0.05986568331718445,-0.04510509967803955,-0.4013963280692009,0.08164638028673842,-0.1809202229578402,-0.8941379733262944,0.26094137010560864,0.3062157537591175,2.257190102666396
1781556288963576064,0.4468681812286377,0.020531468093395233,-0.008813559077680111,0.01803620532155037,0.291477233171463,-0.2587814927101135,-0.9209088683128357,0.03947064280509949,-0.043006837368011475,-0.03267389535903931,-0.4012991721522292,0.08160760370903286,-0.18134430226208123,-0.8940992693057449,0.26176050672275103,0.30653428287579815,2.2571672775553306
1781556288973611008,0.45690321922302246,-0.007963557727634907,-0.024648446589708328,-0.009231900796294212,0.2912646234035492,-0.25879332423210144,-0.9209728240966797,0.027171045541763306,-0.01584962010383606,-0.03563117980957031,-0.401328547327092,0.08150020617776567,-0.18130444174766805,-0.8941040125008851,0.26177277497558965,0.30630445303662307,2.25714566300117
1781556288983646208,0.4669382572174072,0.01449487917125225,0.010764935985207558,0.013585264794528484,0.2912008762359619,-0.2588084638118744,-0.9209887385368347,-0.025346994400024414,0.01254686713218689,-0.021317780017852783,-0.40133480774465163,0.08146610733085029,-0.1812978670505427,-0.8941055070064755,0.26178844342168234,0.30623657871477483,2.257141726068739
1781556288993681152,0.476973295211792,0.040278539061546326,0.02617957815527916,0.032990921288728714,0.2913232147693634,-0.2591453790664673,-0.9208552837371826,-0.0315728485584259,0.026662468910217285,0.008883237838745117,-0.4012085176844848,0.08147829073829875,-0.18147629526192988,-0.8941249178958828,0.2621372567831809,0.3063989918664425,2.2573164882853383
1781556289003717120,0.48700928688049316,0.00859065167605877,0.0332980751991272,0.04246564581990242,0.29150110483169556,-0.25950759649276733,-0.9206969738006592,-0.010678350925445557,0.016953885555267334,0.03258967399597168,-0.4010307895948572,0.08152155642020303,-0.18167484117543986,-0.8941603944079172,0.2625122869728853,0.30662406080327026,2.2575877743971464
1781556289013750272,0.4970424175262451,-0.05198374763131142,0.026675593107938766,0.05238086357712746,0.2916471064090729,-0.2594631612300873,-0.9206632375717163,0.003915607929229736,0.001833796501159668,0.046349942684173584,-0.40077626731569915,0.08165051925969716,-0.18166332068928664,-0.8942650789148788,0.26246627073991585,0.30677873137056055,2.258135507473478
1781556289023785472,0.5070774555206299,-0.09899599105119705,0.018384374678134918,0.054044805467128754,0.2917170226573944,-0.25891003012657166,-0.920796811580658,0.01721242070198059,-0.005524784326553345,0.04547637701034546,-0.40049105673076985,0.08185631425525293,-0.18138670567137466,-0.8944301429437019,0.26189358407644675,0.3068059703254202,2.2588907549944013
1781556289033820416,0.5171124935150146,-0.1352251172065735,0.026419930160045624,0.055376652628183365,0.2917550504207611,-0.2579890787601471,-0.9210432171821594,0.010460495948791504,-0.008841365575790405,0.037925541400909424,-0.4001807868096712,0.08212874283205347,-0.180923332801253,-0.8946379598715751,0.2609402360807094,0.30676648258812234,2.2597972818420824
1781556289043855360,0.5271475315093994,-0.18541131913661957,0.04015984386205673,0.06188754737377167,0.29192179441452026,-0.2566864788532257,-0.9213542938232422,-0.0018369555473327637,-0.010632246732711792,0.03205680847167969,-0.3998203691119057,0.08255021599298396,-0.18030064071904306,-0.8948858908321429,0.25959224824043886,0.3068337429868928,2.260877927063171
1781556289053890560,0.5371825695037842,-0.26126641035079956,0.05361812934279442,0.05973997712135315,0.29219570755958557,-0.2548096179962158,-0.9217883348464966,-0.007253080606460571,-0.02198481559753418,0.03304016590118408,-0.3994105577896146,0.08315018529193258,-0.17942096343879774,-0.8951901325476389,0.25765082796936795,0.30696820783618217,2.262181927324853
1781556289063926528,0.5472185611724854,-0.35737374424934387,0.06261907517910004,0.05582193285226822,0.29258036613464355,-0.2521291971206665,-0.9224031567573547,-0.010811567306518555,-0.032920241355895996,0.034601032733917236,-0.39896461065837246,0.08397449749092002,-0.17817604616019228,-0.8955606252661839,0.2548799069922047,0.3071551576280372,2.2637317530132224
1781556289073961472,0.5572535991668701,-0.4327787756919861,0.07991364598274231,0.056091710925102234,0.2930936813354492,-0.2486383616924286,-0.9231874346733093,-0.017352133989334106,-0.03575493395328522,0.0405428409576416,-0.3984798838132739,0.08503236392391353,-0.17656663554346835,-0.8959952613695609,0.2512742188363599,0.30741549767310883,2.2655288495264574
1781556289083996416,0.5672883987426758,-0.4989742934703827,0.10552792996168137,0.058803074061870575,0.2937983572483063,-0.2445027083158493,-0.9240676164627075,-0.027166277170181274,-0.03201708197593689,0.04082787036895752,-0.39793945401499836,0.08632094221790916,-0.1746850958309368,-0.8964809566199206,0.24700679974660805,0.3078334580651798,2.2675564293407473
1781556289094031360,0.5773234367370605,-0.5664097666740417,0.13662992417812347,0.057658713310956955,0.2947774827480316,-0.23971273005008698,-0.9250103235244751,-0.036537736654281616,-0.032458290457725525,0.0431286096572876,-0.39733484025048144,0.08788142945489942,-0.17254479282327884,-0.8970118258794253,0.24206994490622954,0.3085003846761917,2.2698161667028462
1781556289104066304,0.5873584747314453,-0.6460734605789185,0.1714697927236557,0.06135491654276848,0.29605796933174133,-0.23425155878067017,-0.9259999394416809,-0.04589012265205383,-0.037278592586517334,0.04401141405105591,-0.3966580728114855,0.0897300076111343,-0.17014274291494255,-0.8975869762788737,0.2364486324241584,0.3094462430207722,2.272323325588001
1781556289114101504,0.5973935127258301,-0.7203332781791687,0.2228405773639679,0.08510152250528336,0.29768431186676025,-0.22811025381088257,-0.9270111918449402,-0.05001893639564514,-0.03598886728286743,0.04982924461364746,-0.3958743838468853,0.091894282544207,-0.16748084626015372,-0.8982144511424357,0.2301363161165286,0.310720982576996,2.27514753807566
1781556289124137472,0.6074295043945312,-0.8121905326843262,0.19755452871322632,0.16793063282966614,0.2995878756046295,-0.22136321663856506,-0.9280331134796143,-0.0027739107608795166,-0.0049246251583099365,0.06467556953430176,-0.3946403961480599,0.0943879185251972,-0.16454289794114393,-0.8990415150745322,0.22321215057040092,0.31225911116018257,2.2790487303710782
1781556289134172416,0.617464542388916,-0.8077108263969421,0.17242147028446198,0.0624297671020031,0.300881952047348,-0.21411599218845367,-0.9293139576911926,0.0069793760776519775,0.009983912110328674,0.07688170671463013,-0.39362513071046346,0.09664828548767548,-0.1612517978517544,-0.8998423012225977,0.21578674111713014,0.31311703594931206,2.2826845044050645
1781556289144207360,0.6274995803833008,-0.8147812485694885,0.296957403421402,0.10040617734193802,0.30291762948036194,-0.20677973330020905,-0.9303134083747864,-0.09272781014442444,-0.004111990332603455,0.05450469255447388,-0.3927042764902375,0.09924851064452606,-0.15809183228588142,-0.9005220424861186,0.20828240307758022,0.3147818432986426,2.285975896156029
1781556289154242560,0.6375346183776855,-0.8360151648521423,0.342083603143692,0.12230242043733597,0.3056657910346985,-0.19945865869522095,-0.9310126900672913,-0.10418874025344849,-0.008366048336029053,0.06928783655166626,-0.39150944529076603,0.10221948652680105,-0.15506392046644035,-0.9012362183409454,0.20080544258813066,0.31722761149820927,2.2897325101070045
1781556289164277248,0.6475694179534912,-0.9511001706123352,0.3669142425060272,0.14887331426143646,0.30877867341041565,-0.19156192243099213,-0.9316436052322388,-0.06263914704322815,-0.029049649834632874,0.08635246753692627,-0.39015855811799854,0.10549452160266912,-0.15181935388136605,-0.9019966878829316,0.19275329985277553,0.32004047208400777,2.293891937783971
1781556289174312448,0.657604455947876,-1.0947335958480835,0.34031620621681213,0.13235053420066833,0.31179407238960266,-0.18244780600070953,-0.9324683547019958,-0.01571252942085266,-0.058732613921165466,0.07506173849105835,-0.39295429065102333,0.10827410729031393,-0.14846728594081623,-0.9010111301856951,0.18347546960041508,0.3226877187502606,2.2891355452570954
1781556289184348416,0.6676404476165771,-1.210199236869812,0.3367827236652374,0.12047123163938522,0.3146952688694,-0.17200680077075958,-0.9334776997566223,-0.027311265468597412,-0.08052615821361542,0.045553505420684814,-0.3915174231330991,0.1119667017333998,-0.14396048781940834,-0.9019163067981513,0.17286646452828086,0.32515589978037607,2.2940713499574277
1781556289194383360,0.6776754856109619,-1.24422287940979,0.3454936444759369,0.12057057023048401,0.31766584515571594,-0.16085556149482727,-0.9344591498374939,-0.04876020550727844,-0.06683608889579773,0.015056073665618896,-0.39002840843856373,0.11582615463907307,-0.1391212599183961,-0.9028330436521884,0.1615574395223534,0.3276902886948845,2.2992482923246085
1781556289204418304,0.6877105236053467,-1.221293330192566,0.35951921343803406,0.12371416389942169,0.32079291343688965,-0.1496555656194687,-0.9352513551712036,-0.05252814292907715,-0.03760029375553131,-0.014089465141296387,-0.3884955998152526,0.11975919568945456,-0.1342834795916716,-0.9037128316424068,0.1502199064980467,0.3304268134242927,2.3044925232320064
1781556289214453504,0.6977455615997314,-1.1731748580932617,0.3730216920375824,0.13319236040115356,0.3240421712398529,-0.13883011043071747,-0.9358006715774536,-0.039358943700790405,-0.024576246738433838,-0.026418566703796387,-0.3869510570354713,0.12366173128912239,-0.12964355078819678,-0.904527030625263,0.13927999371414165,0.3333503923594314,2.309654544345154
1781556289224488448,0.7077805995941162,-1.1496610641479492,0.36477041244506836,0.12531685829162598,0.3272969722747803,-0.12839840352535248,-0.9361573457717896,-0.013454198837280273,-0.009266391396522522,-0.02273547649383545,-0.3854069833487767,0.12747478698654205,-0.12518590314348635,-0.9052846078093821,0.1287538387247923,0.3363340024864855,2.3147268486921506
1781556289234524416,0.7178165912628174,-1.1415753364562988,0.3093931972980499,0.14129769802093506,0.33034247159957886,-0.11807291209697723,-0.9364467859268188,0.020228177309036255,0.011352941393852234,-0.006820976734161377,-0.3838250201735762,0.13115926629495275,-0.12072216838631149,-0.9060362702572349,0.118348992428019,0.33913292752368646,2.31988605838592
1781556289244559360,0.727851390838623,-1.0933839082717896,0.26115238666534424,0.12507423758506775,0.3328874111175537,-0.10798070579767227,-0.9367636442184448,0.0407392680644989,0.02417944371700287,-0.0193672776222229,-0.38228549273712,0.13454109544646853,-0.11626207586872626,-0.9067742914689164,0.10819165321517388,0.34144101259813386,2.3249680410194244
1781556289254594304,0.7378864288330078,-1.0112531185150146,0.2516249418258667,0.11893831938505173,0.33514848351478577,-0.0984874814748764,-0.9370036125183105,0.03473982214927673,0.032996758818626404,-0.03920793533325195,-0.38088291578906414,0.13764131703089502,-0.11204050453093832,-0.9074304696200873,0.0986473998584157,0.3435012189578555,2.3296576309852823
1781556289264629248,0.7479214668273926,-0.9131253957748413,0.2185896337032318,0.13055236637592316,0.33727583289146423,-0.0898473709821701,-0.93710857629776,0.03670182824134827,0.043948933482170105,-0.03811115026473999,-0.37949460203813457,0.14049993793460472,-0.10819189634021159,-0.9080407818490402,0.0899686963711181,0.3454769297939057,2.3341560638330403
1781556289274664448,0.7579565048217773,-0.7936897873878479,0.17754127085208893,0.15595227479934692,0.33904504776000977,-0.08229948580265045,-0.9371634125709534,0.051290035247802734,0.04236723482608795,-0.03064054250717163,-0.3781490621572757,0.14296194311644736,-0.10478634867595797,-0.9086171014445862,0.08239267692433556,0.34712864761985046,2.338384741112465
1781556289284699392,0.7679915428161621,-0.8485746383666992,0.2780207395553589,0.10370423644781113,0.340824156999588,-0.07522668689489365,-0.9371125102043152,0.010036438703536987,-0.00025854259729385376,0.008203208446502686,-0.3769170648102661,0.1453163268667322,-0.1016214253627876,-0.9091148418967347,0.07529781859766209,0.3488237581947933,2.342264845218019
1781556289294735360,0.7780275344848633,-0.8267934322357178,0.21506601572036743,0.13935118913650513,0.3432261645793915,-0.0675162672996521,-0.9368230104446411,0.02675369381904602,0.0036887526512145996,0.023309826850891113,-0.37557464411963554,0.14809712814461878,-0.09826360828023108,-0.9095906592023181,0.06756766845606818,0.3511854466871047,2.346436879049447
1781556289304770560,0.788062572479248,-0.6203965544700623,0.09243196994066238,0.11267296224832535,0.3445627987384796,-0.061114318668842316,-0.9367718696594238,0.12018939852714539,0.08166790753602982,-0.008693218231201172,-0.3743886954846585,0.15009211576835477,-0.09532276749713198,-0.9100653783057734,0.061152425414085484,0.3524604880170979,2.3501320548916844
1781556289314805504,0.7980976104736328,-0.466373473405838,0.12624692916870117,0.10636446624994278,0.3454667031764984,-0.056476619094610214,-0.9367300271987915,0.04547873139381409,0.043460868299007416,-0.028128981590270996,-0.3734256201067446,0.15151320256223857,-0.09315970957217715,-0.9104496038673612,0.05650668433442875,0.3533246423727464,2.3530422607691577
1781556289324840192,0.8081324100494385,-0.3544725179672241,0.20437434315681458,0.08380217105150223,0.346995085477829,-0.0529397651553154,-0.9363716244697571,0.02109268307685852,0.019767161458730698,-0.04089277982711792,-0.37257848116625075,0.15300965216517412,-0.0916637227083859,-0.9106981976910974,0.052964526083888276,0.3548848141301408,2.3554172450319713
1781556289334875392,0.8181674480438232,-0.2879331707954407,0.12858371436595917,0.0800929144024849,0.34860867261886597,-0.05022379010915756,-0.9359217882156372,0.05251437425613403,0.03281351551413536,-0.04337203502655029,-0.37196572064193234,0.15436574207815446,-0.0906108772049517,-0.9108250883959866,0.05024492982002594,0.35655626139879054,2.357112339551362
1781556289344911360,0.8282034397125244,-0.2957572638988495,0.0949968546628952,0.1138780489563942,0.34950482845306396,-0.04786594584584236,-0.9357110857963562,0.06358110904693604,0.05059726536273956,-0.0234716534614563,-0.3711810673189775,0.1553240552121795,-0.08954829399248945,-0.9110873834952828,0.047884241421919535,0.35747066080719,2.3591937893934345
1781556289354946304,0.8382384777069092,-0.32422247529029846,0.14467066526412964,0.04571070894598961,0.3506353795528412,-0.04521317407488823,-0.935420036315918,0.022594600915908813,0.006577923893928528,-0.014988899230957031,-0.370536628150421,0.15643648176332306,-0.08841732668800566,-0.9112697407623093,0.04522859434755739,0.35863277456562975,2.360999830826581
1781556289364981504,0.848273515701294,-0.3143131136894226,0.1102750152349472,0.0677289292216301,0.35180550813674927,-0.04232649505138397,-0.9351156949996948,0.04473990201950073,0.01986556127667427,0.005672335624694824,-0.3699815480010202,0.15760281309570923,-0.08719810159760685,-0.9114118252460028,0.04233914476704655,0.35983635259237706,2.3626518760728894
1781556289375016448,0.8583085536956787,-0.3011744022369385,0.07520437985658646,0.07076279819011688,0.35259073972702026,-0.039829712361097336,-0.934929609298706,0.042764484882354736,0.034824829548597336,0.033699750900268555,-0.3693736883195202,0.15851338214620359,-0.0860738202287536,-0.9116073644552198,0.03984025013205924,0.36063744967956346,2.364384924618624
1781556289385051392,0.8683435916900635,-0.40393778681755066,0.14562487602233887,0.07573065906763077,0.3536444306373596,-0.036769889295101166,-0.9346569180488586,0.01741880178451538,0.022686026990413666,0.05802422761917114,-0.368717043382098,0.15966382004428967,-0.0847289546408728,-0.9117982919972971,0.03677817960321744,0.36172029385969856,2.366305975211296
1781556289395086336,0.8783783912658691,-0.6372618079185486,0.12599551677703857,0.1254095435142517,0.3548930585384369,-0.03238898515701294,-0.9343457221984863,0.04017224907875061,-0.01639336720108986,0.07031679153442383,-0.36777340891198995,0.16118319717659277,-0.08274736725303482,-0.9120941070672894,0.03239464992274299,0.3629989421390589,2.3690910922228636
1781556289405122560,0.8884146213531494,-1.0903990268707275,0.0733775869011879,0.013483265414834023,0.35581332445144653,-0.02462567389011383,-0.9342325329780579,0.07128015160560608,-0.009538756683468819,0.05598247051239014,-0.36671007092906865,0.16318926730273312,-0.0790758177690685,-0.9124911602870496,0.024628163450545443,0.3638996959385356,2.3728128198887313
1781556289415157248,0.8984494209289551,-1.2357772588729858,0.042126987129449844,-0.01289294846355915,0.35631057620048523,-0.013492385856807232,-0.9342701435089111,0.04371383786201477,0.03223017603158951,0.03490185737609863,-0.3657356159359811,0.1656121103479582,-0.07373973183210475,-0.9128923940922196,0.01349279569735187,0.3643510302674517,2.3770015892308316
1781556289425192448,0.9084844589233398,-1.0111292600631714,0.020687341690063477,-0.005917597096413374,0.3566321134567261,-0.002728052204474807,-0.9342409372329712,0.035411953926086426,0.07748086005449295,-0.05828225612640381,-0.36478635889328526,0.16787162514227974,-0.06854676993531399,-0.9132641116068235,0.0027280554865095506,0.36466189512665603,2.3810574253887236
1781556289435227392,0.9185194969177246,-0.7299984097480774,0.05709941312670708,0.04621537774801254,0.3569440245628357,0.005275161936879158,-0.9341108798980713,0.015614569187164307,0.11662730574607849,-0.10023665428161621,-0.36399771055735225,0.16958900370814858,-0.06468487994701162,-0.9135431383310919,-0.005275186178129278,0.36499969026315476,2.3842339831500157
1781556289445262336,0.9285545349121094,-0.6348332762718201,0.11260367929935455,0.12277060747146606,0.3577320873737335,0.011220680549740791,-0.9337568283081055,-0.03130084276199341,0.04538942128419876,-0.056660592555999756,-0.36299096412817067,0.17116180881242687,-0.061848276195520815,-0.913846809152341,-0.011220915767262704,0.36586223766597753,2.3874672127056473
1781556289455297536,0.9385895729064941,-0.6945008635520935,0.2006688266992569,0.13016274571418762,0.35920020937919617,0.016930438578128815,-0.9331069588661194,-0.05631324648857117,-0.09714589267969131,-0.0014328360557556152,-0.3617896103184285,0.17303050124131336,-0.05921970421367437,-0.9141453731012127,-0.01693124695493738,0.3674659431325041,2.3910332407766473
1781556289465333504,0.9486255645751953,-0.9053489565849304,0.2084810733795166,0.1333225965499878,0.3612113296985626,0.023872362449765205,-0.9321783781051636,-0.04555276036262512,-0.16037748754024506,0.06613528728485107,-0.3604317041840311,0.1754010024279355,-0.056083051097098546,-0.9144278005702757,-0.023874630330574104,0.3696770237641127,2.3951316354757712
1781556289475368448,0.9586606025695801,-1.0831890106201172,0.1904599964618683,0.1462373286485672,0.3631032407283783,0.032630063593387604,-0.9311773777008057,-0.013570159673690796,-0.162268728017807,0.08358216285705566,-0.3588599319451728,0.1780604913320884,-0.05201704267737553,-0.9147721715375592,-0.032635858525508786,0.3718039220992226,2.4000391368176777
1781556289485403392,0.9686954021453857,-1.2996011972427368,0.20078201591968536,0.15181265771389008,0.36502906680107117,0.043253667652606964,-0.929990828037262,-0.016030043363571167,-0.13941454887390137,0.06580930948257446,-0.3570657093962214,0.18108933024837595,-0.047023941090629226,-0.9151499384513704,-0.04326716518390596,0.3740313241146894,2.405770759957074
1781556289495438336,0.9787304401397705,-1.4406076669692993,0.2002941220998764,0.19756150245666504,0.3669699728488922,0.055336739867925644,-0.928585410118103,-0.026042848825454712,-0.12781599164009094,0.05474507808685303,-0.3549901201767716,0.18440040034004687,-0.041276805192843,-0.9155735121117018,-0.05536502215655533,0.3763550860163609,2.412379903944057
1781556289505473280,0.9887654781341553,-1.6895002126693726,0.18805170059204102,0.2156400978565216,0.3689417243003845,0.06915996968746185,-0.9268758893013,-0.03137153387069702,-0.14281414449214935,0.07529813051223755,-0.3525010487186301,0.18805296678838418,-0.03461410483733737,-0.9160682462431502,-0.06921522359075094,0.37882306862036486,2.420201564555394
1781556289515509248,0.9988014698028564,-1.8793681859970093,0.26071926951408386,0.19371215999126434,0.3711385130882263,0.08501920849084854,-0.9246771931648254,-0.03106588125228882,-0.13613615930080414,0.05333930253982544,-0.34981255198424877,0.192182204834622,-0.026970186965889403,-0.916498707132601,-0.08512197024927985,0.38168760713788114,2.4288126641378858
1781556289525544448,1.0088365077972412,-2.012117385864258,0.29091429710388184,0.20742930471897125,0.3738807439804077,0.10236629098653793,-0.9218103289604187,-0.047190070152282715,-0.07401546090841293,0.0846368670463562,-0.34696728134595906,0.1968409342889001,-0.018667378258662354,-0.9167981599166547,-0.10254592021139737,0.3853194732039838,2.4380207589093703
1781556289535579392,1.018871545791626,-2.1845333576202393,0.3257385790348053,0.22754763066768646,0.3769659399986267,0.1209116280078888,-0.9183011651039124,-0.02999633550643921,0.005370102822780609,0.07474952936172485,-0.3438528752358553,0.2018760493493011,-0.009770667946065029,-0.91701466016071,-0.12120819749327008,0.3895282766577574,2.448042463091264
1781556289545614592,1.0289065837860107,-2.209156036376953,0.3258930742740631,0.23056179285049438,0.3802857995033264,0.14030015468597412,-0.9141654968261719,-0.028448641300201416,-0.01708543300628662,0.049358367919921875,-0.3405116240395302,0.20716433320189193,-0.00042718759810619054,-0.9171339166161548,-0.1407645572587686,0.3942163579155908,2.4587410844932385
1781556289555649536,1.0389416217803955,-2.25138521194458,0.3065316081047058,0.24403952062129974,0.38352078199386597,0.15978191792964935,-0.9096051454544067,-0.013327330350875854,-0.05220745503902435,0.0008832812309265137,-0.3370963290649843,0.21240461176930367,0.009039003075654048,-0.9171524042388746,-0.16046972728593012,0.39901645484394926,2.4696656031531456
1781556289565685504,1.0489776134490967,-2.382446050643921,0.36884477734565735,0.2724013924598694,0.38704872131347656,0.17973116040229797,-0.9043727517127991,-0.0045871734619140625,-0.031186848878860474,-0.015701711177825928,-0.33342947381193533,0.21785497777283908,0.01878414204743174,-0.9170667016741673,-0.18071315775069235,0.4043876110680143,2.4812879322390513
1781556289575720192,1.0590124130249023,-2.54227614402771,0.3490851819515228,0.3051508069038391,0.39086347818374634,0.20104865729808807,-0.898223340511322,-0.022836744785308838,-0.09216195344924927,-0.009811937808990479,-0.32939448337017174,0.22367593237791766,0.02928151731605832,-0.9168483772464971,-0.202428321701563,0.41043778326631775,2.4940509098709103
1781556289585755392,1.069047451019287,-2.702026128768921,0.35264742374420166,0.31568413972854614,0.3946545422077179,0.22339244186878204,-0.8912595510482788,-0.009965211153030396,-0.17901988327503204,-0.04909384250640869,-0.3250495615145,0.22964300840291924,0.04042645988624266,-0.9165002573353215,-0.22529348518731582,0.41685480288976284,2.5077881316668256
1781556289595790336,1.0790824890136719,-2.73553729057312,0.3166540265083313,0.3335062861442566,0.3983911871910095,0.24637307226657867,-0.8835070729255676,0.0035710930824279785,-0.15010537207126617,-0.027930915355682373,-0.3204519829397579,0.23566612580815305,0.05203780742093147,-0.9160043865614662,-0.2489361834480678,0.42361888307999884,2.522329038460432
1781556289605825536,1.0891175270080566,-2.6143429279327393,0.2872961163520813,0.34557414054870605,0.40194278955459595,0.26877379417419434,-0.8753300309181213,0.005512654781341553,-0.06880736351013184,-0.009145677089691162,-0.31576018689506585,0.24145469566616687,0.06351868788948774,-0.915401823136267,-0.27211976639928565,0.43047000079990994,2.5371130833872515
1781556289615860480,1.0991525650024414,-2.3645522594451904,0.2745710015296936,0.3438848853111267,0.40536385774612427,0.2891514003276825,-0.8672206401824951,-0.0025013089179992676,-0.010541170835494995,-0.002133607864379883,-0.3112163186970647,0.24677982893826453,0.07409052993114314,-0.9147429514362939,-0.29334025187058754,0.43725277953167274,2.5513378585649584
1781556289625896448,1.1091885566711426,-2.089977741241455,0.26993709802627563,0.3399157226085663,0.4087536334991455,0.3070353865623474,-0.8594473600387573,-0.011368989944458008,0.027513563632965088,0.007549166679382324,-0.3069754772429155,0.2516199789455883,0.08344884670472133,-0.9140512993486379,-0.31207637576312663,0.44393822184751686,2.5645612974226126
1781556289635931392,1.1192235946655273,-1.8262096643447876,0.2678353488445282,0.3394041061401367,0.4121420681476593,0.32241570949554443,-0.8521660566329956,-0.01660376787185669,0.04736575484275818,0.02588742971420288,-0.30304401646958884,0.25599483471988627,0.09156203688992555,-0.9133714230279051,-0.328280364077321,0.4504746128103651,2.5767414413461736
1781556289645966336,1.129258394241333,-1.6963105201721191,0.25392258167266846,0.3368554711341858,0.41549763083457947,0.33593666553497314,-0.845285952091217,-0.022904247045516968,0.042603373527526855,0.044275760650634766,-0.2993593919976311,0.2600094353576687,0.09875288510866649,-0.9127031032476575,-0.3425995095232004,0.4568622470999817,2.58811681429302
1781556289656001280,1.1392934322357178,-1.651180624961853,0.23425675928592682,0.33227217197418213,0.418700248003006,0.3486393392086029,-0.8385348916053772,-0.03022673726081848,0.023247867822647095,0.05961942672729492,-0.2957499926872554,0.2637847230480339,0.10559444484710809,-0.9120303515145015,-0.35611896085430517,0.4631063298826088,2.5992523765596607
1781556289666036480,1.1493284702301025,-1.583594560623169,0.21844570338726044,0.2988140881061554,0.42170676589012146,0.3609200119972229,-0.8318053483963013,-0.03961142897605896,0.005153626203536987,0.05238640308380127,-0.2922708398488793,0.2673814260980405,0.11226975123429365,-0.9113069649353542,-0.3692541986140224,0.46921417336031007,2.6101000587362666
1781556289676072448,1.1593644618988037,-1.423523187637329,0.21343602240085602,0.29786041378974915,0.42458367347717285,0.3722076416015625,-0.8253424763679504,-0.04814937710762024,0.05078125,0.01137763261795044,-0.2889994271255605,0.27073493176723223,0.11845409690327041,-0.9105769787306951,-0.3813864156686045,0.47512748531501775,2.6203579059782696
1781556289686107392,1.1693994998931885,-1.1639022827148438,0.19930702447891235,0.297684907913208,0.4274273216724396,0.3816397786140442,-0.8195468187332153,-0.050870925188064575,0.10378807783126831,-0.030123591423034668,-0.285993393404227,0.2737370794259201,0.12367138999495206,-0.9099346777864221,-0.3915696885427398,0.4807315930324216,2.6296874173330225
1781556289696142336,1.1794345378875732,-0.9375407099723816,0.18203748762607574,0.2867603600025177,0.43012163043022156,0.38894888758659363,-0.8146865367889404,-0.04602739214897156,0.11218023300170898,-0.05425572395324707,-0.28333495667408715,0.2762839085861244,0.12776512380399122,-0.9094309598017154,-0.39949037589876624,0.48576433428354393,2.637787824438694
1781556289706177536,1.189469575881958,-0.7757052183151245,0.1553395688533783,0.27334707975387573,0.43258774280548096,0.39471563696861267,-0.8105969429016113,-0.03856003284454346,0.10523858666419983,-0.05811643600463867,-0.28097600406374224,0.27844106367099913,0.13104238152655107,-0.9090384611019182,-0.40575834592002874,0.49021601608049786,2.6448600408465044
1781556289716212480,1.1995046138763428,-0.6537255048751831,0.13384784758090973,0.2547941505908966,0.4348236918449402,0.39932912588119507,-0.8071335554122925,-0.028711020946502686,0.08821970224380493,-0.05776512622833252,-0.2788644330999606,0.28027739595421336,0.1337078563065655,-0.9087361733438764,-0.4107849789478296,0.4941462109100902,2.651092675925192
1781556289726247424,1.2095394134521484,-0.5325782895088196,0.09986471384763718,0.24679455161094666,0.4367711544036865,0.4030570089817047,-0.8042238354682922,-0.02052667737007141,0.0775795578956604,-0.04950535297393799,-0.27696044051936236,0.28180830976334376,0.13591228491912188,-0.9085179540045747,-0.41485475412858835,0.4975275777762341,2.6566143442528225
1781556289736283392,1.2195754051208496,-0.3867100775241852,0.06447157263755798,0.23084595799446106,0.43840858340263367,0.40572038292884827,-0.8019906282424927,-0.010704725980758667,0.07487043738365173,-0.045238375663757324,-0.2752681640711296,0.28298704087040666,0.13756101412184887,-0.9084177660600983,-0.417766862295762,0.5002679913539542,2.661350841229805
1781556289746318336,1.2296104431152344,-0.2363828867673874,0.046471402049064636,0.2205384522676468,0.43976789712905884,0.4071976840496063,-0.8004962205886841,-0.007638990879058838,0.08195331692695618,-0.03354918956756592,-0.27383423497670334,0.28381474181592964,0.1385679681922937,-0.9084397656219668,-0.4193837564443174,0.5023587051543288,2.6651600895015486
1781556289756353280,1.2396454811096191,-0.11078021675348282,0.04072483256459236,0.2064599245786667,0.4409934878349304,0.40760743618011475,-0.7996129393577576,-0.00347822904586792,0.08631956577301025,-0.016762733459472656,-0.272647632312968,0.28439418925240556,0.13897288176447514,-0.9085536477662631,-0.41983243109533647,0.5040007782357003,2.6681166417219857
1781556289766388480,1.249680519104004,-0.005023161415010691,0.02377794124186039,0.19410204887390137,0.4420732855796814,0.40719982981681824,-0.799224317073822,0.0023542046546936035,0.07401657104492188,0.0006251335144042969,-0.2716727792741704,0.28476393967170593,0.1389148560575198,-0.9087387372134896,-0.4193861138457109,0.5052415017017482,2.670358698061846
1781556289776423424,1.2597155570983887,0.05022038519382477,0.01818503625690937,0.19018959999084473,0.44302451610565186,0.4061252474784851,-0.7992443442344666,0.008238881826400757,0.056139737367630005,0.009251117706298828,-0.27085954705854737,0.2849565375217621,0.13848320474718934,-0.9089868944860539,-0.4182098493523067,0.5061417923539998,2.6720382948623023
1781556289786459392,1.2697515487670898,0.12420033663511276,0.011341378092765808,0.19388340413570404,0.4439029395580292,0.4045808017253876,-0.7995402216911316,0.009878218173980713,0.03829029202461243,0.022013366222381592,-0.2701184619690924,0.2850287440181221,0.13779876162956153,-0.9092888305529075,-0.4165203943539832,0.5068250351595435,2.6734160579240087
1781556289796494592,1.2797865867614746,0.1792697161436081,0.02290482446551323,0.18890808522701263,0.4448114335536957,0.4025110900402069,-0.8000797629356384,0.009793668985366821,0.01826527714729309,0.022430837154388428,-0.2694756183579618,0.28503168632687886,0.13681029384666757,-0.9096278195533458,-0.41425830070540265,0.5074066303189041,2.6744386471168857
1781556289806529280,1.2898213863372803,0.27717897295951843,0.023259956389665604,0.18935257196426392,0.445766419172287,0.39986559748649597,-0.8008744120597839,0.011661559343338013,0.02399304509162903,0.023423850536346436,-0.26894394530066773,0.28496735680845314,0.13548580942428248,-0.9100034965642888,-0.41137022041000465,0.5078959908878257,2.6750672593646287
1781556289816564224,1.299856424331665,0.38812437653541565,0.025921784341335297,0.18647156655788422,0.446723073720932,0.39635229110717773,-0.8020868897438049,0.021538645029067993,0.039072513580322266,0.01978403329849243,-0.26857721094932624,0.2847631160381589,0.13366572115626635,-0.9104448003611283,-0.4075403068033394,0.5081641748197768,2.6750968694808708
1781556289826599424,1.3098914623260498,0.43901926279067993,0.03335786238312721,0.1844739317893982,0.44770774245262146,0.39210444688796997,-0.803624153137207,0.027893394231796265,0.05825868248939514,0.019429266452789307,-0.2683407091473818,0.284455589734073,0.1314265266282813,-0.9109364518507878,-0.40291813093592027,0.508286210246542,2.6746466067382255
1781556289836635392,1.319927453994751,0.4247617721557617,0.03158366680145264,0.17979608476161957,0.4486806094646454,0.3877890706062317,-0.8051740527153015,0.03264260292053223,0.04987874627113342,0.02093338966369629,-0.2681457416603981,0.2841388780456702,0.12914356582304146,-0.9114190891830541,-0.3982317656145044,0.5083898702408693,2.6740856987751815
1781556289846670336,1.3299624919891357,0.3626139760017395,0.03106807731091976,0.1475483924150467,0.44955748319625854,0.38385677337646484,-0.8065680861473083,0.03397831320762634,0.012764960527420044,0.00722116231918335,-0.2679846242977081,0.2838509910569888,0.1270612742859095,-0.9118488619931047,-0.39396941597786367,0.5084845242812817,2.6735374865224557
1781556289856705536,1.3399975299835205,0.3069171607494354,0.021263649687170982,0.126693457365036,0.45029181241989136,0.3805348873138428,-0.8077316880226135,0.04148370027542114,0.009540766477584839,-0.010368287563323975,-0.26785495680950505,0.2836078924914258,0.1253024833812184,-0.912205939539269,-0.39037464257626453,0.5085655608617647,2.6730596350881637
1781556289866740480,1.3500325679779053,0.28637033700942993,0.0055564590729773045,0.11422266066074371,0.4508515000343323,0.3776019215583801,-0.8087952136993408,0.048232972621917725,0.034019142389297485,-0.02305293083190918,-0.2677351487107342,0.2833454723636944,0.1237648288041778,-0.912532465729903,-0.38720513014626545,0.5085342276480712,2.6726348119743726
1781556289876775424,1.36006760597229,0.29172009229660034,-0.006884231232106686,0.09465242177248001,0.4512467086315155,0.3747703731060028,-0.8098911046981812,0.0543074905872345,0.04167249798774719,-0.03335535526275635,-0.2676596194363998,0.28301902896314485,0.1222893559082244,-0.9128547658036054,-0.3841490846499562,0.5083310345181936,2.6721134541786515
1781556289886811392,1.3701035976409912,0.31611278653144836,-0.01757895201444626,0.05196034908294678,0.4514220654964447,0.3719843626022339,-0.8110768795013428,0.06153261661529541,0.035867780447006226,-0.04109591245651245,-0.26774525143548006,0.28260263374266487,0.1208192991978161,-0.9131543793414746,-0.38114588743619315,0.5078743095465541,2.671216716676009
1781556289896846336,1.3801383972167969,0.3477247655391693,-0.02793944999575615,0.014595135115087032,0.45135998725891113,0.36906173825263977,-0.8124454617500305,0.07766222953796387,0.04072833061218262,-0.05068320035934448,-0.268062179159323,0.28206087921095585,0.11924316525557965,-0.9134360704860633,-0.3779992736653921,0.5070998307750414,2.669741876568075
1781556289906881280,1.3901734352111816,0.33810728788375854,-0.0803399384021759,-0.015190190635621548,0.4509369730949402,0.36629509925842285,-0.8139311075210571,0.09169608354568481,0.05036139488220215,-0.04014909267425537,-0.268508738198491,0.2813666143141922,0.1177594328856558,-0.9137115273443445,-0.3750242477812996,0.5059270343297809,2.6679711302356846
1781556289916916480,1.4002084732055664,0.3411339819431305,-0.11953820288181305,-0.02570062316954136,0.45001572370529175,0.36359095573425293,-0.8156515955924988,0.07859450578689575,0.04598546028137207,-0.02391749620437622,-0.26902958120790443,0.2804194824672773,0.11635773502147545,-0.914028992108865,-0.37211979234557363,0.5041669597413386,2.6659817601871234
1781556289926951424,1.4102435111999512,0.3326494097709656,-0.11953660845756531,-0.020374834537506104,0.44893917441368103,0.36096471548080444,-0.817409336566925,0.03764832019805908,0.04755881428718567,-0.008930325508117676,-0.2695327444614443,0.27940018709783887,0.11502549297233801,-0.9143613160077626,-0.36930215149375245,0.5022456810151117,2.6640346663232792
1781556289936987392,1.4202795028686523,0.3488464951515198,-0.10301701724529266,-0.03203468397259712,0.4479258060455322,0.3582521378993988,-0.81915682554245,0.0032155513763427734,0.033425718545913696,-0.003291904926300049,-0.27007449912666565,0.2784054587905923,0.11363092053935979,-0.9146793084999534,-0.36639508990257835,0.5003932679606162,2.661998835175423
1781556289947022336,1.430314540863037,0.32162392139434814,-0.09270752966403961,-0.037476588040590286,0.4470045268535614,0.35570111870765686,-0.8207701444625854,-0.006803750991821289,0.017940819263458252,-0.006897032260894775,-0.2706434529103276,0.2774956874710651,0.11229896459443402,-0.9149520230183987,-0.36366413351412435,0.4987001833316743,2.659966016136355
1781556289957057536,1.4403495788574219,0.33850330114364624,-0.10609763860702515,-0.03309249132871628,0.4460524916648865,0.35310742259025574,-0.8224064111709595,-0.004066407680511475,-0.0011787116527557373,-0.024929404258728027,-0.27121819987181667,0.27656250487813705,0.11095030548107866,-0.9152288741107681,-0.36089039971399833,0.49697006621118434,2.657912071551986
1781556289967092480,1.4503846168518066,0.3631002604961395,-0.12537717819213867,-0.018526067957282066,0.44498956203460693,0.3503418266773224,-0.8241631388664246,-0.007336974143981934,-0.0023651421070098877,-0.02511054277420044,-0.2717488020783069,0.2755322331665152,0.10954640949140351,-0.9155512812295071,-0.3579360282718406,0.49507827641941127,2.655902405211894
1781556289977127424,1.4604194164276123,0.38353443145751953,-0.14053696393966675,-0.01721259579062462,0.44380873441696167,0.3473455011844635,-0.8260658979415894,-0.008933275938034058,-0.010507762432098389,-0.01801973581314087,-0.2722713397348391,0.2743951067580404,0.10804799355370999,-0.915915505229692,-0.3547388765230961,0.49300619234250875,2.653844098725201
1781556289987163392,1.4704554080963135,0.4207260012626648,-0.13829684257507324,-0.006611084099858999,0.44260287284851074,0.3440742492675781,-0.8280795216560364,-0.016348600387573242,-0.017398834228515625,0.004700005054473877,-0.27280641786360893,0.2731966618890189,0.1064135012911441,-0.9163059201702691,-0.35125265478430384,0.4908599041351615,2.6516965735729627
1781556289997198336,1.4804904460906982,0.47317856550216675,-0.13362911343574524,0.013727744109928608,0.4414694607257843,0.34034398198127747,-0.8302232623100281,-0.027818948030471802,-0.006283313035964966,0.028297603130340576,-0.2733334377188818,0.27195439539008137,0.10454264598056215,-0.9167336187754253,-0.34728268801175427,0.48872216542814306,2.6494746881741644
1781556290007234560,1.4905266761779785,0.5556716322898865,-0.11546330899000168,0.03254270926117897,0.44051191210746765,0.33598971366882324,-0.8325023651123047,-0.03868696093559265,0.00266382098197937,0.03848075866699219,-0.27385333257927064,0.27069506327774395,0.10233769209563315,-0.917199877304127,-0.3426558495814579,0.48668846111599035,2.647152649615322
1781556290017269504,1.5005617141723633,0.5883315205574036,-0.07199705392122269,0.029486466199159622,0.4398355484008789,0.33097150921821594,-0.8348667621612549,-0.050156593322753906,-0.006813794374465942,0.03548932075500488,-0.2744535784139355,0.2694789088099634,0.09973827992257386,-0.9176647924716036,-0.33733293127924424,0.4848830330251808,2.6445457161735257
1781556290027304704,1.510596752166748,0.5071426630020142,-0.05479609966278076,0.030211111530661583,0.4394221305847168,0.32621315121650696,-0.8369547128677368,-0.0703272819519043,0.007740706205368042,0.06516516208648682,-0.2750435351240735,0.2684537093721263,0.09723810522590834,-0.9180569064923227,-0.33229479090486524,0.48346659115319823,2.642069767746654
1781556290037340672,1.5206327438354492,0.45359286665916443,-0.030602077022194862,0.06816275417804718,0.4392015337944031,0.3220078647136688,-0.8386971950531006,-0.07602709531784058,0.005186349153518677,0.06852507591247559,-0.27544604444107534,0.2676150935927075,0.09504507498519738,-0.9184106615628428,-0.3278495440522469,0.4824047147436282,2.6401667759668537
1781556290047375616,1.530667781829834,0.42145171761512756,0.015224132686853409,0.12081744521856308,0.43946030735969543,0.31786420941352844,-0.8401410579681396,-0.08371686935424805,-0.029701977968215942,0.06301093101501465,-0.27560085423925607,0.26702348768103734,0.09288656560060404,-0.9187572464026271,-0.3234760181325077,0.4819400096084308,2.638881861944632
1781556290057410816,1.5407028198242188,0.40188175439834595,0.05704215168952942,0.1471337378025055,0.4402032196521759,0.313822478055954,-0.8412708044052124,-0.0760979950428009,-0.04178878664970398,0.0743335485458374,-0.27553690449679286,0.26669256618781406,0.09077256470036986,-0.9190837647076271,-0.3192162167749869,0.48208185356885325,2.638156636902707
1781556290067445760,1.5507378578186035,0.4492362141609192,0.09217897057533264,0.1479814350605011,0.4413102865219116,0.30960866808891296,-0.8422515988349915,-0.05443897843360901,-0.04267144203186035,0.07000428438186646,-0.27546062376003744,0.26652921883886777,0.08852337600847153,-0.9193732872910301,-0.31478144670582175,0.4826352266149105,2.6374588217983286
1781556290077480448,1.5607726573944092,0.47965162992477417,0.11019179224967957,0.13369809091091156,0.44259169697761536,0.30504095554351807,-0.843245267868042,-0.042902976274490356,-0.019075989723205566,0.07653689384460449,-0.2754716472741491,0.2664079751985038,0.08604738807145147,-0.9196401502227459,-0.30998143186694116,0.4833428180098687,2.636504645966014
1781556290087516672,1.5708086490631104,0.426011860370636,0.1385364830493927,0.11650285869836807,0.44404739141464233,0.3005744516849518,-0.8440834879875183,-0.040757596492767334,0.0030296742916107178,0.08399742841720581,-0.27556951960948195,0.26640936410222965,0.0835721813795975,-0.9198386806023993,-0.30529489944109284,0.48428579538296646,2.6354004874452404
1781556290097551616,1.5808436870574951,0.26970478892326355,0.15862230956554413,0.10601985454559326,0.4456370770931244,0.297070175409317,-0.8444861769676208,-0.03709825873374939,-0.012707382440567017,0.07945626974105835,-0.27558168710944664,0.2666479756395319,0.08158296011179215,-0.9199443947896304,-0.3016228364455414,0.4855628677015305,2.6347181559914907
1781556290107586560,1.5908787250518799,-0.0035469711292535067,0.17976048588752747,0.09418130666017532,0.44737479090690613,0.2954655885696411,-0.844130277633667,-0.03360217809677124,-0.05108082294464111,0.07203555107116699,-0.27537657053646303,0.267285027049519,0.08058268715091735,-0.919909263480213,-0.2999428293619666,0.4873453753401957,2.6349670017758937
1781556290117621760,1.6009137630462646,-0.30164897441864014,0.1884293407201767,0.09360633045434952,0.44921985268592834,0.29637226462364197,-0.842831552028656,-0.035996586084365845,-0.07208332419395447,0.0700806975364685,-0.2748078653422479,0.26839389429575616,0.08092557548497988,-0.9197262479134309,-0.3008920094206918,0.4896891261970865,2.6366105958871473
1781556290127656704,1.6109488010406494,-0.5340462327003479,0.20522135496139526,0.07741989940404892,0.4511362612247467,0.29954811930656433,-0.8406824469566345,-0.025385528802871704,-0.07083413004875183,0.04247993230819702,-0.2739164950199031,0.2699158849010926,0.08248748186864942,-0.9194079504153391,-0.30421898986740353,0.49252118605515,2.6395112241389516
1781556290137692672,1.6209847927093506,-0.5856068730354309,0.2147381603717804,0.06409264355897903,0.4531213939189911,0.30405738949775696,-0.8379917144775391,-0.01888677477836609,-0.011973649263381958,0.0061893463134765625,-0.2728950821720485,0.27170157484695273,0.08474904529494512,-0.9189799496588053,-0.30894881985488437,0.4956928779683148,2.643038462121427
1781556290147727616,1.6310198307037354,-0.5084487199783325,0.20955845713615417,0.04958587512373924,0.4550836384296417,0.308445006608963,-0.8353206515312195,-0.011998951435089111,0.0536765456199646,-0.03423196077346802,-0.2719663153770035,0.2734639168967428,0.08693200652373471,-0.9185284917581391,-0.3135578908749405,0.4988430168542268,2.6463513376799948
1781556290157762816,1.6410548686981201,-0.3659859001636505,0.19677501916885376,0.04036228358745575,0.45693784952163696,0.31190627813339233,-0.8330199718475342,-0.004179060459136963,0.08889633417129517,-0.05528569221496582,-0.2712400855484771,0.2750236606098578,0.08861145957966914,-0.9181170346925673,-0.31719872821734135,0.501715203724701,2.648999947509536
1781556290167797504,1.6510896682739258,-0.2217126041650772,0.1714913547039032,0.03067743219435215,0.4585973024368286,0.31419840455055237,-0.8312447667121887,0.005178332328796387,0.08854207396507263,-0.06304234266281128,-0.2707589159111452,0.2762937212195623,0.08966268722846411,-0.9177755354296168,-0.3196121946729134,0.5041470462492346,2.650812622961177
1781556290177832704,1.6611247062683105,-0.10879802703857422,0.13812914490699768,0.01930520124733448,0.45997151732444763,0.3154447376728058,-0.8300125598907471,0.019749552011489868,0.07707235217094421,-0.06467127799987793,-0.2704854147156577,0.2772420901141545,0.09016956530705458,-0.9175205467747356,-0.32092528715196184,0.5060423074921057,2.651883298261112
1781556290187868672,1.6711606979370117,-0.03363803029060364,0.10075421631336212,0.008547362871468067,0.4610009789466858,0.3159550726413727,-0.8292469382286072,0.03254455327987671,0.06548413634300232,-0.06078296899795532,-0.270387044345521,0.2778876799018149,0.09030482579323443,-0.9173409430883052,-0.321463137104679,0.5073824952670375,2.652348337976384
1781556290197903616,1.6811957359313965,0.02568202093243599,0.05023990944027901,0.0016433836426585913,0.4616425931453705,0.31597819924354553,-0.8288810849189758,0.04905381798744202,0.04824909567832947,-0.054465413093566895,-0.2703895374564227,0.2782436011415819,0.09022163710594643,-0.9172404644812799,-0.3214874895763217,0.5081609282226852,2.6524248472075254
1781556290207938560,1.6912307739257812,0.08438634872436523,0.014978323131799698,-0.016482090577483177,0.4618983864784241,0.31553971767425537,-0.8289056420326233,0.05528301000595093,0.02514326572418213,-0.05293029546737671,-0.27050833543594166,0.27831665065568334,0.08992781272292272,-0.9172121494826672,-0.32102536999634845,0.5083838243174202,2.652085306135865
1781556290217973760,1.701265811920166,0.13841894268989563,-0.015110069885849953,-0.018638186156749725,0.46181607246398926,0.3146986663341522,-0.8292711973190308,0.05156588554382324,0.01687481999397278,-0.04733097553253174,-0.2707487297084463,0.2781440075166084,0.08944454768687095,-0.9172408276603793,-0.32013916226687894,0.5081206472799046,2.6513389437619987
1781556290228008704,1.7113008499145508,0.16627614200115204,-0.035647571086883545,-0.02142784744501114,0.46152549982070923,0.31350186467170715,-0.8298860192298889,0.050162702798843384,0.006123960018157959,-0.039849698543548584,-0.2710475651452092,0.2777990402752719,0.08879580833153264,-0.9173201014123242,-0.3188785750293812,0.5075382925990088,2.6503515444891934
1781556290238044672,1.721336841583252,0.1657070368528366,-0.05848950147628784,-0.020638486370444298,0.4610743224620819,0.31220749020576477,-0.8306244015693665,0.0507817268371582,-0.015195190906524658,-0.02858269214630127,-0.2713418502513826,0.2773482133144272,0.08812355618225065,-0.9174343201408829,-0.3175158027959596,0.5067454542155501,2.649332062107834
1781556290248079616,1.7313716411590576,0.12667573988437653,-0.06626992672681808,-0.032534562051296234,0.46045511960983276,0.3111003041267395,-0.8313829898834229,0.044122517108917236,-0.033130943775177,-0.01743292808532715,-0.2716445077240738,0.27683996893604274,0.08756795038310525,-0.9175514449213578,-0.3163505780195285,0.505788425717624,2.6483234032034715
1781556290258114560,1.7414066791534424,0.03562519699335098,-0.07100103050470352,-0.037422262132167816,0.4597609043121338,0.3106040060520172,-0.8319525718688965,0.03199934959411621,-0.03503027558326721,0.0037055015563964844,-0.2718994620931733,0.2763957854299984,0.08734461291713992,-0.9176312314221373,-0.3158284164458115,0.5048591960618489,2.6475642323909754
1781556290268149504,1.7514417171478271,-0.024409642443060875,-0.07294274121522903,-0.04232913628220558,0.4590274691581726,0.31074681878089905,-0.8323041200637817,0.013781338930130005,-0.050126731395721436,0.018720805644989014,-0.27205367406918646,0.2760353653062048,0.0874780640802625,-0.9176812161118887,-0.31597865365568434,0.5040049413820294,2.647179677816928
1781556290278184704,1.761476755142212,-0.0878400132060051,-0.05101693794131279,-0.040897153317928314,0.4583684206008911,0.31142690777778625,-0.8324131369590759,-0.006570965051651001,-0.05642205476760864,0.028259754180908203,-0.2721453544045693,0.2758060722621441,0.08788879627318574,-0.9176836819147433,-0.31669424824359754,0.5033422184448044,2.647073428253987
1781556290288220672,1.771512746810913,-0.11631186306476593,-0.022285426035523415,-0.02944236434996128,0.4579678475856781,0.31245774030685425,-0.8322473168373108,-0.0184994637966156,-0.03808945417404175,0.03846985101699829,-0.27214539207214433,0.27577221095252374,0.08846481809644385,-0.917638587634947,-0.31777921030840506,0.5030570498653252,2.6472836073539514
1781556290298255616,1.7815477848052979,-0.12291650474071503,-0.009897198528051376,-0.025904089212417603,0.45775508880615234,0.3135874271392822,-0.8319393992424011,-0.017462730407714844,-0.020328760147094727,0.04363983869552612,-0.27209224015706235,0.2758536959599879,0.08907879097274041,-0.9175704372859793,-0.31896868265569267,0.5030170766625612,2.6476557519631743
1781556290308290816,1.7915828227996826,-0.14421088993549347,0.02328525483608246,-0.01980598270893097,0.45772644877433777,0.3147762417793274,-0.8315061330795288,-0.02626892924308777,-0.00813564658164978,0.04798257350921631,-0.2720256283472499,0.2760451830352334,0.08969946018363956,-0.9174721929770248,-0.3202209111450649,0.5032107000537615,2.6480937164886464
1781556290318325760,1.8016178607940674,-0.1855149120092392,0.04628271982073784,-0.016644278541207314,0.45796042680740356,0.3162359893321991,-0.8308231234550476,-0.034010231494903564,-0.017087429761886597,0.04638403654098511,-0.2718931452893023,0.2764226941155364,0.09043744269934535,-0.9173253025822851,-0.3217592131742927,0.5037739401611435,2.6487742885929646
1781556290328360448,1.811652660369873,-0.2490275800228119,0.0633181631565094,-0.010629527270793915,0.45837897062301636,0.3181084990501404,-0.8298769593238831,-0.03360477089881897,-0.03650754690170288,0.04017359018325806,-0.2716853841567619,0.27696836660585006,0.09137863164526422,-0.917128985712577,-0.3237336763936028,0.5046423464988304,2.649745780109683
1781556290338396672,1.8216886520385742,-0.31473734974861145,0.07604008167982101,0.0008510933257639408,0.4589439928531647,0.3204805254936218,-0.8286511301994324,-0.029805809259414673,-0.029007136821746826,0.03627747297286987,-0.27135418278088574,0.27767250590723874,0.09258732429489672,-0.9168929225654474,-0.3262367164063031,0.5057901632518131,2.6511323988765336
1781556290348431616,1.831723690032959,-0.3210676908493042,0.08312582224607468,0.007915128022432327,0.459626704454422,0.3231232464313507,-0.8272452354431152,-0.02232503890991211,-0.020617753267288208,0.026357173919677734,-0.27091236838974125,0.27847948393115424,0.09394971759497586,-0.916640192379906,-0.3290279209533339,0.5071409922884795,2.652847290552155
1781556290358466560,1.8417587280273438,-0.2690390944480896,0.08722016215324402,-0.004871240817010403,0.46036872267723083,0.32561570405960083,-0.8258541822433472,-0.008937448263168335,-0.01612168550491333,-0.004956364631652832,-0.2705196895791137,0.2792975344482707,0.09521451667247416,-0.9163767309874942,-0.331662843146474,0.5085415776328409,2.654429471950658
1781556290368501760,1.8517937660217285,-0.117454893887043,0.05739728361368179,-0.014368605799973011,0.46091049909591675,0.3273014724254608,-0.8248849511146545,0.005550652742385864,0.009032726287841797,-0.017842650413513184,-0.2703286581724038,0.2798810587091012,0.09604222333753143,-0.9161685134971144,-0.3334463219373738,0.5095417931079956,2.655344599888984
1781556290378537728,1.8618297576904297,0.058144886046648026,0.06220349296927452,-0.0057306429371237755,0.461372047662735,0.3276110589504242,-0.8245039582252502,0.011360466480255127,0.04287230968475342,-0.02016150951385498,-0.27036431387139576,0.2801945781148564,0.0961197811631299,-0.9160540861590718,-0.33377398970543354,0.5101649547613356,2.6554046898717747
1781556290388572672,1.8718647956848145,0.2044251263141632,0.05403917655348778,0.006882087793201208,0.4618508219718933,0.3264733850955963,-0.8246871829032898,0.007540017366409302,0.055408328771591187,-0.022496044635772705,-0.27058118547868376,0.2802734903210487,0.09541063488184327,-0.916040045478309,-0.33257011295438815,0.5105123453133805,2.654700807574565
1781556290398607616,1.8818998336791992,0.29432573914527893,0.05092380940914154,0.0019722841680049896,0.4623125493526459,0.3243464231491089,-0.8252675533294678,0.001371532678604126,0.04456532001495361,-0.016666650772094727,-0.2709302073278787,0.2801767802355798,0.09416581425422972,-0.9160953076286775,-0.3303207211054594,0.5106384067976859,2.653452990777281
1781556290408642816,1.891934871673584,0.27836886048316956,0.054803233593702316,0.008150817826390266,0.4627414643764496,0.3219181001186371,-0.825977623462677,-0.004306405782699585,0.036602407693862915,-0.016872107982635498,-0.27135110194115447,0.28001447089288395,0.09275279404440726,-0.9161644552824882,-0.3277547338419246,0.5106670973549255,2.6519673121204703
1781556290418677504,1.9019696712493896,0.2457166463136673,0.033206064254045486,0.018796004354953766,0.4631595313549042,0.3196900486946106,-0.826608419418335,-0.005395859479904175,0.039791762828826904,-0.013784646987915039,-0.2716708618521214,0.2798720634688175,0.09147360990403407,-0.9162418108086091,-0.3254023648496826,0.5107266619516296,2.6507525298312715
1781556290428713472,1.9120056629180908,0.1997416913509369,0.025829507037997246,0.02309168316423893,0.4634552597999573,0.31773877143859863,-0.8271948099136353,-0.006668180227279663,0.03846240043640137,-0.018874526023864746,-0.2719020811069297,0.2797038079492903,0.09037906193691023,-0.9163332239125024,-0.32334371545659435,0.5106964514110597,2.6497869813027517
1781556290438748672,1.9220407009124756,0.17525365948677063,0.008206570520997047,0.012374059297144413,0.46363815665245056,0.3161010444164276,-0.8277196288108826,-0.010345309972763062,0.025268584489822388,-0.01763254404067993,-0.2720907047930585,0.279526274287806,0.08947205492018895,-0.9164204492322443,-0.321616980093484,0.5105942372411968,2.64898106185658
1781556290448783616,1.9320757389068604,0.1680937558412552,0.00539520476013422,0.00010088083217851818,0.46370139718055725,0.3146674633026123,-0.8282302618026733,-0.011415630578994751,0.015654802322387695,-0.01533663272857666,-0.27229690728415684,0.2793218340697928,0.0886801920276439,-0.9164984858821973,-0.3201063042001858,0.5103894518979283,2.6481748840786135
1781556290458818560,1.9421107769012451,0.13702665269374847,0.0018334933556616306,-0.008862785995006561,0.4637104272842407,0.3134128749370575,-0.8287007808685303,-0.013667702674865723,0.020281583070755005,-0.0059397220611572266,-0.27253797977806005,0.2791233623156442,0.08797584332772328,-0.9165552326659433,-0.31878485885651126,0.5101557095664226,2.647332253544561
1781556290468853760,1.9521458148956299,0.12921878695487976,-0.006258388049900532,-0.017175311222672462,0.46365439891815186,0.3123701810836792,-0.829125702381134,-0.014283061027526855,0.0159837007522583,0.012170135974884033,-0.27278097370230525,0.2789276458071988,0.08738712385731792,-0.9165987850865822,-0.3176870349064064,0.5098858001747377,2.646531853684107
1781556290478889728,1.962181806564331,0.11723218113183975,-0.002276163548231125,-0.022056087851524353,0.46355390548706055,0.311453640460968,-0.8295266032218933,-0.016135692596435547,0.0006954073905944824,0.02290123701095581,-0.2730496363176846,0.278732686577618,0.08686069594059244,-0.9166281928400332,-0.31672237932858394,0.5095876003052766,2.6457028126583717
1781556290488924672,1.9722168445587158,0.10526127368211746,0.010308204218745232,-0.023151446133852005,0.4634958505630493,0.31062600016593933,-0.8298693299293518,-0.021418213844299316,-0.007922142744064331,0.03311640024185181,-0.27331196920016654,0.2785763117566579,0.08637465754825893,-0.9166434629889444,-0.315851551725388,0.509358406236751,2.6449151471788723
1781556290498959616,1.9822516441345215,0.0858265832066536,0.01294659823179245,-0.013646090403199196,0.4635378420352936,0.3099169135093689,-0.8301109671592712,-0.022070586681365967,-0.019145458936691284,0.04310840368270874,-0.27353149938017374,0.27849194717104664,0.08594628688427197,-0.9166438763444926,-0.31510564342450276,0.5092730387756441,2.6442623276608215
1781556290508994560,1.9922866821289062,0.04571697860956192,0.015911228954792023,-0.013589630834758282,0.4636175334453583,0.30943572521209717,-0.8302459716796875,-0.018503397703170776,-0.03561675548553467,0.0372467041015625,-0.27369258586127115,0.2784637703541174,0.08564433036502495,-0.9166326442683027,-0.31459956765156205,0.5092769811711851,2.643798762581212
1781556290519030528,2.0023226737976074,0.005563436541706324,0.02227112278342247,-0.008211643435060978,0.4637362062931061,0.3092857599258423,-0.8302355408668518,-0.01639425754547119,-0.032323479652404785,0.024663031101226807,-0.27378836038687815,0.2785105812524501,0.08552239486553967,-0.9166011968358866,-0.31444188550648816,0.509391261123537,2.643565389928984
1781556290529065728,2.012357711791992,-0.0037080924957990646,0.02752886898815632,0.0064716944471001625,0.4639342427253723,0.30930426716804504,-0.8301180005073547,-0.014440834522247314,-0.017312079668045044,0.005273640155792236,-0.27379836284428943,0.27862324289687473,0.08549906747074495,-0.9165661071975658,-0.3144613400682031,0.5096333567124997,2.6435704300484457
1781556290539100672,2.022392749786377,0.006006054114550352,0.03134438022971153,0.01797441951930523,0.4642293155193329,0.3092372417449951,-0.8299779891967773,-0.006938666105270386,0.0012638568878173828,-0.011590003967285156,-0.2737591947602669,0.27876899939076283,0.08543334307443239,-0.9165396020340802,-0.31439085205057143,0.5099760596865758,2.6436721470307174
1781556290549135616,2.0324277877807617,0.019177516922354698,0.032596200704574585,0.03062283620238304,0.46456632018089294,0.3090110719203949,-0.8298736214637756,0.0033749639987945557,0.021677404642105103,-0.02162778377532959,-0.27367305082577514,0.2789046103072379,0.08529592189479346,-0.9165368692124545,-0.3141530314870254,0.5103388613688771,2.6438409203858932
1781556290559170816,2.0424628257751465,0.009905453771352768,0.02859773114323616,0.03050086461007595,0.46491867303848267,0.3087630569934845,-0.8297685980796814,0.010056912899017334,0.028196781873703003,-0.026615619659423828,-0.2735725662602504,0.27904340757714885,0.08514965166305721,-0.9165381933184237,-0.3138922724434506,0.5107160326249698,2.644037057700182
1781556290569206784,2.0524988174438477,0.009638604708015919,0.014328778721392155,0.03680909425020218,0.46520325541496277,0.3085133731365204,-0.8297019600868225,0.02558043599128723,0.032352715730667114,-0.027490973472595215,-0.27343569275004453,0.2791414854879334,0.08502375721718658,-0.9165608639699913,-0.31362978744823505,0.5110112931003526,2.6443045304006905
1781556290579241728,2.0625338554382324,0.028781674802303314,0.0013698367401957512,0.03477630391716957,0.4653652012348175,0.3081963360309601,-0.8297290205955505,0.03391766548156738,0.04147407412528992,-0.024198532104492188,-0.27330475480948957,0.2791608109470747,0.08488060710506967,-0.9166074091405383,-0.31329649984951236,0.5111458464979158,2.644528365314297
1781556290589276672,2.072568655014038,0.05027764290571213,-0.009541134350001812,0.029801784083247185,0.46541374921798706,0.3077086806297302,-0.8298827409744263,0.03573065996170044,0.046600401401519775,-0.01984870433807373,-0.27321736932096624,0.27909146930173406,0.08465560018631117,-0.9166752845470493,-0.31278391527735777,0.5111113272914977,2.6446011162511875
1781556290599311616,2.082603693008423,0.09961749613285065,-0.019434776157140732,0.02496388554573059,0.4653754234313965,0.30695465207099915,-0.8301835060119629,0.034945011138916016,0.038855284452438354,-0.01652669906616211,-0.27318784243889754,0.27893195424081607,0.08429249414470945,-0.9167662195702182,-0.31199156028100705,0.5109216467378157,2.644471052006737
1781556290609346560,2.0926387310028076,0.1321629136800766,-0.029440272599458694,0.02244000881910324,0.465239554643631,0.30586934089660645,-0.8306600451469421,0.03233429789543152,0.023979902267456055,-0.009427845478057861,-0.2732282882632408,0.2786660822492652,0.08375673382847228,-0.916884055173784,-0.3108513981517816,0.5105524076641507,2.6440940378806803
1781556290619382528,2.102674722671509,0.16618266701698303,-0.04199947416782379,0.02207249216735363,0.4650104343891144,0.3045254647731781,-0.831281840801239,0.027726352214813232,0.01714503765106201,-0.003312826156616211,-0.2733176734986995,0.2783074036339198,0.08309069714599641,-0.9170268958863677,-0.30944019997815686,0.510023537651773,2.6435356209311056
1781556290629417728,2.1127097606658936,0.1821880042552948,-0.04679835960268974,0.02297530323266983,0.46471527218818665,0.3029458820819855,-0.8320237398147583,0.022146910429000854,0.006944864988327026,0.0006181001663208008,-0.2734395223422599,0.2778735384291796,0.08230693418593757,-0.9171927947771464,-0.3077822699708561,0.509373196676855,2.642841135795364
1781556290639452672,2.1227447986602783,0.18877053260803223,-0.05984784662723541,0.023361727595329285,0.4643382728099823,0.3013007342815399,-0.8328312039375305,0.0154133141040802,0.005019456148147583,0.006842434406280518,-0.2735738895271398,0.2773847062139396,0.08149919517983549,-0.9173728374046939,-0.3060564738555395,0.5086150822579114,2.642095662425023
1781556290649487616,2.132779836654663,0.20366133749485016,-0.06539148092269897,0.018246861174702644,0.46386730670928955,0.2995670437812805,-0.8337185978889465,0.01329028606414795,0.009728610515594482,0.004159271717071533,-0.2737288660648917,0.27683099690639174,0.08065544949870126,-0.9175683907781297,-0.30423883330689544,0.5077309796182838,2.6412748557082972
1781556290659523840,2.1428158283233643,0.20896342396736145,-0.07368189841508865,0.006913246586918831,0.4633214771747589,0.2977876663208008,-0.8346589803695679,0.010784327983856201,0.013339012861251831,-0.0003781914710998535,-0.27393355252867785,0.27623315423070616,0.0797855887744925,-0.9177634512540427,-0.30237432741228387,0.5067524035487755,2.6403285282428137
1781556290669558784,2.152850866317749,0.22474372386932373,-0.08027882128953934,-0.00213138060644269,0.46267715096473694,0.2959458827972412,-0.8356708884239197,0.0057676732540130615,0.011823892593383789,-0.008338451385498047,-0.27418693467119104,0.27557512264417344,0.07888532345261703,-0.9179634845069313,-0.300445614486186,0.5056484734700875,2.6392529940196607
1781556290679593472,2.1628856658935547,0.23401737213134766,-0.08947604894638062,-0.016240276396274567,0.46193385124206543,0.29405584931373596,-0.8367486596107483,0.0024216175079345703,0.003414243459701538,-0.009869992733001709,-0.27451858722090455,0.2748617624905867,0.07795311448342576,-0.9181578973256016,-0.2984675562531702,0.5044219251748954,2.6379876694739437
1781556290689628672,2.1729207038879395,0.2355034202337265,-0.0920322835445404,-0.029604284092783928,0.46110302209854126,0.2921704053878784,-0.8378666043281555,-0.00535351037979126,-0.006388574838638306,-0.00035965442657470703,-0.27491811522898724,0.2741077578651373,0.07701701701472678,-0.9183427855400704,-0.29649549804577513,0.5030964188501558,2.636569980368942
1781556290699663616,2.182955741882324,0.2346232533454895,-0.09100589901208878,-0.0339399091899395,0.4602260887622833,0.2903566360473633,-0.8389785289764404,-0.013708144426345825,-0.014019966125488281,0.01378321647644043,-0.27535328800870723,0.27334479554078583,0.07611407964549877,-0.9185150632319155,-0.29459950650293587,0.5017333375176748,2.635090915822419
1781556290709699584,2.1929917335510254,0.23961959779262543,-0.07619646191596985,-0.032171305269002914,0.4594009816646576,0.2885092794895172,-0.8400673270225525,-0.024296611547470093,-0.020854860544204712,0.025537967681884766,-0.2758065766338342,0.27260583402100924,0.0751823329285605,-0.91867538846284,-0.2926695483652612,0.5004308653911722,2.6335726296080813
1781556290719734784,2.20302677154541,0.25312289595603943,-0.06769591569900513,-0.02991986833512783,0.4587037265300751,0.2865769863128662,-0.8411090970039368,-0.03676769137382507,-0.02379012107849121,0.04089242219924927,-0.27625494209359935,0.27192108220804573,0.0741915113151789,-0.9188240876984478,-0.29065204357715985,0.49927063083263923,2.6320599461431264
1781556290729769728,2.213061809539795,0.26681047677993774,-0.047318074852228165,-0.025069721043109894,0.45813363790512085,0.2845330834388733,-0.8421131372451782,-0.05130380392074585,-0.02833801507949829,0.04757273197174072,-0.27671797627439093,0.2712867857390812,0.07312261535071743,-0.9189579817045809,-0.28851934409565644,0.49824709037919684,2.6305035945822386
1781556290739804672,2.2230968475341797,0.3515480160713196,-0.016088249161839485,-0.021566597744822502,0.45776641368865967,0.2820706367492676,-0.8431406021118164,-0.06254851818084717,-0.029186725616455078,0.055878639221191406,-0.27722899259183653,0.2706921480542383,0.07180153305522034,-0.9190834547891596,-0.2859516909409451,0.497399069819127,2.6287637480864214
1781556290749840640,2.233132839202881,0.4832719564437866,-0.004600037820637226,-0.01090356707572937,0.45764437317848206,0.2786126136779785,-0.8443557620048523,-0.07026949524879456,-0.018282413482666016,0.055476367473602295,-0.2778749315837297,0.27006440245114605,0.06990955550144738,-0.9192188975669083,-0.28234922959958036,0.49668369883164704,2.626516799428507
1781556290759875584,2.2431676387786865,0.5415054559707642,0.02867615967988968,-0.0049274335615336895,0.4577133059501648,0.27424725890159607,-0.8457463979721069,-0.060404956340789795,-0.004502385854721069,0.057370543479919434,-0.27861285786642903,0.26938606852533115,0.06751247564877436,-0.9193737940921122,-0.2778068497056882,0.49605760838587354,2.6238733232435996
1781556290769910528,2.2532026767730713,0.5119217038154602,0.061268988996744156,-0.0068502360954880714,0.4580721855163574,0.2697656750679016,-0.846992552280426,-0.05194425582885742,-0.009710133075714111,0.07556921243667603,-0.2793739395366899,0.2688448656266232,0.06500900697916749,-0.9194816549837042,-0.2731496785310367,0.4957694671611283,2.621179865719613
1781556290779945728,2.263237714767456,0.39704224467277527,0.07506789267063141,-0.006415608339011669,0.45862290263175964,0.2659415006637573,-0.8479033708572388,-0.050663918256759644,-0.022045016288757324,0.07471001148223877,-0.2800391001272755,0.2685151998233829,0.06283230856271023,-0.9195269070660488,-0.26918046847388133,0.4958224750199579,2.6188685721335583
1781556290789980672,2.273272752761841,0.296271950006485,0.09963582456111908,-0.013834109529852867,0.45933857560157776,0.2629847526550293,-0.848438024520874,-0.05330219864845276,-0.0614466667175293,0.04869437217712402,-0.2805749606562977,0.26841737670663,0.06109912301534412,-0.9195088928944892,-0.2661145651743091,0.49621128638577655,2.617057334847927
1781556290800016640,2.283308744430542,0.17186371982097626,0.11880925297737122,-0.021158868446946144,0.46021753549575806,0.2610974609851837,-0.8485445976257324,-0.05048853158950806,-0.07893803715705872,0.018542766571044922,-0.28101517980690843,0.26858857313767803,0.0598989026703203,-0.9194035054110687,-0.26415891887520676,0.49695947138682195,2.6157194924279277
1781556290810051584,2.2933437824249268,0.04896150901913643,0.12739408016204834,-0.01602402701973915,0.4612104594707489,0.26024308800697327,-0.8482679128646851,-0.0342085063457489,-0.06898942589759827,0.009187102317810059,-0.28128988794436793,0.26899173552411504,0.05924092991931232,-0.9192442628154239,-0.2632739492462621,0.4980000497612168,2.6149943676950023
1781556290820086784,2.3033788204193115,-0.016179675236344337,0.13646002113819122,-0.021960480138659477,0.4622895419597626,0.260220468044281,-0.8476872444152832,-0.021905630826950073,-0.049084603786468506,-0.007873058319091797,-0.2814323354196721,0.26957934548002077,0.05901999152105439,-0.9190426221906712,-0.2632505271719382,0.4992691598608779,2.6147607530678805
1781556290830121728,2.3134138584136963,-0.03672702983021736,0.14207568764686584,-0.025869201868772507,0.46341603994369507,0.26058894395828247,-0.8469586968421936,-0.008337914943695068,-0.02680903673171997,-0.027644574642181396,-0.2815506952790134,0.27026021307824133,0.05899219483270126,-0.9188082445560923,-0.26363216034168085,0.5006548381503316,2.614676818906446
1781556290840157696,2.3234498500823975,-0.03346306085586548,0.1305426061153412,-0.010968814603984356,0.4645262658596039,0.2610137164592743,-0.8462193608283997,0.002285867929458618,-0.000393599271774292,-0.028994262218475342,-0.28162428366551223,0.2709398722520037,0.05900776041012936,-0.918584433903835,-0.26407217154883006,0.5020314040338638,2.6147027525328443
1781556290850192640,2.333484649658203,-0.005795211531221867,0.11951432377099991,-0.009142684750258923,0.46556976437568665,0.2612365782260895,-0.8455768823623657,0.014837950468063354,0.020776361227035522,-0.030537009239196777,-0.28167669337314816,0.27154681926930235,0.058939749601272295,-0.9183935076269762,-0.264303053801823,0.5032993399963552,2.614721548521319
1781556290860227584,2.343519687652588,0.05088750645518303,0.1009472981095314,-0.0005587841151282191,0.46649864315986633,0.26108667254447937,-0.845111072063446,0.02393406629562378,0.04169344902038574,-0.03304743766784668,-0.28175626813770993,0.2720278767113374,0.0586966889951257,-0.9182422411740114,-0.26414775434992044,0.5043750155259009,2.614582349291612
1781556290870262528,2.3535547256469727,0.1416616141796112,0.08125268667936325,0.012861417606472969,0.46729227900505066,0.2602834701538086,-0.8449203968048096,0.03266194462776184,0.05851837992668152,-0.03220057487487793,-0.2818866549255842,0.2723234104181015,0.05813579957569857,-0.918150385360958,-0.26331579517096865,0.5051900578681003,2.6141638140313304
1781556290880298496,2.363590717315674,0.23133637011051178,0.07107514888048172,0.026623034849762917,0.4679899513721466,0.25855571031570435,-0.8450646996498108,0.033841103315353394,0.06969138979911804,-0.03780883550643921,-0.2820788835438954,0.27240727143088317,0.05711334801762396,-0.9181305886296153,-0.2615267645567919,0.5057497772451518,2.6133782017973957
1781556290890333696,2.3736257553100586,0.28567230701446533,0.04731988534331322,0.05691675841808319,0.46860471367836,0.25616151094436646,-0.8454530835151672,0.030556052923202515,0.07974547147750854,-0.027258098125457764,-0.28225836597097986,0.2723275819784413,0.05577767255170369,-0.9181812357790449,-0.2590491058429515,0.5061114875744519,2.612451732134664
1781556290900368640,2.3836607933044434,0.31450796127319336,0.03812532126903534,0.05668745934963226,0.4691047966480255,0.25332924723625183,-0.8460289239883423,0.0311850905418396,0.06792929768562317,-0.02253180742263794,-0.28242408049247575,0.2721079417893971,0.05424750787107638,-0.9182870358872257,-0.25612021070607915,0.506275024004562,2.611439870679078
1781556290910403840,2.393695831298828,0.346101850271225,0.024343863129615784,0.06254641711711884,0.4695330560207367,0.25024351477622986,-0.8467094898223877,0.039194971323013306,0.05418458580970764,-0.023377180099487305,-0.2826147958133084,0.2718067272521617,0.052596299719009906,-0.9184136686409519,-0.25293177651310417,0.5063210261158674,2.6103068203310524
1781556290920438784,2.403730869293213,0.3764466941356659,0.003562417346984148,0.07083017379045486,0.4698103964328766,0.24686986207962036,-0.8475455641746521,0.05092629790306091,0.06106775999069214,-0.0208321213722229,-0.28280877102855395,0.2713741240049118,0.050826133841130244,-0.9185815741235559,-0.24944880813886094,0.5061528856333842,2.6090868780956313
1781556290930474752,2.413766860961914,0.3932743966579437,-0.013923099264502525,0.0725436583161354,0.4699285924434662,0.2432461977005005,-0.848527193069458,0.051082760095596313,0.06354701519012451,-0.016447782516479492,-0.28300527038288165,0.27081277931647757,0.048957596345459355,-0.9187880952733694,-0.24571117526222694,0.5057688426823819,2.607791423444169
1781556290940509440,2.4238016605377197,0.3828848898410797,-0.02310195006430149,0.07189144939184189,0.4699473977088928,0.23957335948944092,-0.8495610952377319,0.05135387182235718,0.04990112781524658,-0.014345765113830566,-0.28319441214804786,0.27018988712337666,0.04708366600727202,-0.9190111763572893,-0.24192639318984038,0.5052698335015513,2.6064957252088483
1781556290950544640,2.4338366985321045,0.3560261130332947,-0.03508058190345764,0.06545831263065338,0.46986985206604004,0.2361137866973877,-0.8505719304084778,0.05281996726989746,0.033570051193237305,-0.009627044200897217,-0.2833776702831252,0.2695532216373357,0.04533310100648282,-0.9192296464984901,-0.238364605779502,0.5046964818354788,2.6052602497472948
1781556290960579584,2.4438717365264893,0.3330984115600586,-0.046244554221630096,0.05867177993059158,0.4696555435657501,0.23289243876934052,-0.8515778183937073,0.05501791834831238,0.017839983105659485,-0.006713807582855225,-0.28355201490227855,0.2688850548261882,0.04372542764017313,-0.91944940530311,-0.23505084738951287,0.5040034492401483,2.6040956117303122
1781556290970615552,2.4539077281951904,0.31061363220214844,-0.051315080374479294,0.060922153294086456,0.46938198804855347,0.22986790537834167,-0.8525499105453491,0.04880648851394653,0.005468398332595825,-0.0001112222671508789,-0.28368863367550234,0.2682184971645739,0.04223617793353071,-0.9196715334234636,-0.2319419449597127,0.5032749604956557,2.603059205926578
1781556290980650752,2.463942766189575,0.29845309257507324,-0.047960828989744186,0.05383361876010895,0.46909084916114807,0.22699284553527832,-0.8534799218177795,0.03509005904197693,-0.01178288459777832,0.004999756813049316,-0.28382750593482303,0.2675695460719627,0.040823550478661666,-0.9198814696280945,-0.22898881374168728,0.5025524888043753,2.602054869099933
1781556290990685696,2.47397780418396,0.26417821645736694,-0.0486479252576828,0.05334386229515076,0.4687950313091278,0.22430898249149323,-0.8543516397476196,0.021195203065872192,-0.027699485421180725,0.013592362403869629,-0.28395324521369275,0.26695152691926277,0.03951043327475761,-0.9200794909575987,-0.2262338928193581,0.5018556359771026,2.601126422129818
1781556291000720640,2.4840128421783447,0.19807322323322296,-0.03424501419067383,0.046105656772851944,0.4685560464859009,0.2220647931098938,-0.8550686836242676,0.006450057029724121,-0.0439794659614563,0.026867389678955078,-0.28402801355898355,0.2664386213866497,0.038420340130019624,-0.9202512718334488,-0.22393163436113211,0.50128699597119,2.600418033792321
1781556291010755840,2.4940478801727295,0.1077318862080574,-0.027239836752414703,0.051229577511548996,0.4683980941772461,0.22053037583827972,-0.8555521965026855,-0.0058279335498809814,-0.05642211437225342,0.03868824243545532,-0.28400331471228085,0.2660881156715649,0.03769627024877658,-0.9203902803305395,-0.2223581996739101,0.5009067482133169,2.6000994297831754
1781556291020791808,2.5040838718414307,0.025843674317002296,-0.019710281863808632,0.047604482620954514,0.46831774711608887,0.21973009407520294,-0.855802059173584,-0.016581296920776367,-0.060016363859176636,0.038556575775146484,-0.28385877584550734,0.26590122779649045,0.0373563827660672,-0.9205027679672377,-0.22153780201107381,0.5007115160797108,2.6002196496983974
1781556291030826752,2.5141189098358154,-0.0355222150683403,-0.010302266106009483,0.05029720440506935,0.4683115482330322,0.21954259276390076,-0.8558535575866699,-0.025944024324417114,-0.05877600610256195,0.0394931435585022,-0.2836172851840184,0.2658558571134256,0.037334683868022925,-0.9205910972626614,-0.22134559522421343,0.5006805933865597,2.6006993708127175
1781556291040861952,2.5241539478302,-0.08281249552965164,0.0034649453591555357,0.0475861057639122,0.46838369965553284,0.21985846757888794,-0.8557330369949341,-0.03428640961647034,-0.05211859941482544,0.03928101062774658,-0.2833114877351594,0.2659364552950204,0.03756724441405674,-0.9206525522023981,-0.2216693826236884,0.5008047912735565,2.6014422112221443
1781556291050896896,2.534188985824585,-0.10730744898319244,0.010921530425548553,0.04564439505338669,0.4685365557670593,0.22047880291938782,-0.8554896712303162,-0.036911189556121826,-0.03992155194282532,0.03778642416000366,-0.2829731789087154,0.2661112834307867,0.03794656547313448,-0.920690533670077,-0.22230532180336973,0.5010620451942034,2.6023319242413163
1781556291060932864,2.544224977493286,-0.119715116918087,0.02269456721842289,0.03887197747826576,0.4687667787075043,0.2212744951248169,-0.8551580905914307,-0.03891143202781677,-0.02457346022129059,0.033289194107055664,-0.28263084075090533,0.26635744996318245,0.03840143548516494,-0.9207057017798486,-0.22312117435592158,0.5014324435301152,2.6032761503017015
1781556291070967552,2.554259777069092,-0.10752316564321518,0.03033357858657837,0.027386829257011414,0.4690554141998291,0.22209307551383972,-0.8547874689102173,-0.04019191861152649,-0.01838824152946472,0.024831414222717285,-0.28233117300003446,0.26664063396334586,0.0388461958391448,-0.9206969023521057,-0.22396063021936863,0.5018747321192,2.6041361295500836
1781556291081002752,2.5642948150634766,-0.09626811742782593,0.0409231036901474,0.02086634561419487,0.4694041609764099,0.2228616327047348,-0.8543959259986877,-0.04372972249984741,-0.019034728407859802,0.013102591037750244,-0.28208985480894466,0.2669498858913157,0.03924008811748523,-0.9206646198089625,-0.22474894761771205,0.5023815741870824,2.604861103342069
1781556291091037696,2.5743298530578613,-0.08753720670938492,0.04853508621454239,0.011498144827783108,0.4698220491409302,0.22356028854846954,-0.8539836406707764,-0.048313260078430176,-0.017566651105880737,0.004175901412963867,-0.28190969605953137,0.2672869550697982,0.039570985073891486,-0.9206078543764166,-0.22546568801664774,0.502961019698399,2.6054403696912067
1781556291101073664,2.5843658447265625,-0.11053626984357834,0.054043833166360855,0.009571614675223827,0.47028136253356934,0.22435958683490753,-0.8535211086273193,-0.050176382064819336,-0.016595929861068726,0.00023436546325683594,-0.2817426806445506,0.267664245385604,0.039941358854833825,-0.9205333579670394,-0.22628582336736666,0.5036027747143049,2.606017732115955
1781556291111108864,2.5944008827209473,-0.12118598073720932,0.05628994479775429,0.011235024780035019,0.4707886874675751,0.22532542049884796,-0.8529868125915527,-0.04740306735038757,-0.011671856045722961,-0.0025429725646972656,-0.2815556271409241,0.2680952313586055,0.0403923839824732,-0.9204454773384482,-0.2272770290323362,0.504323475578709,2.6066816466098577
1781556291121143808,2.604435920715332,-0.13718998432159424,0.05420468747615814,0.009580402635037899,0.47127777338027954,0.22638139128684998,-0.8524369597434998,-0.04058319330215454,-7.829070091247559e-05,-0.004496634006500244,-0.281349856000952,0.26853119197316927,0.04089652019049697,-0.9203590741416013,-0.22836101281795076,0.5050358758887781,2.6074078059348165
1781556291131178752,2.614470958709717,-0.1352730542421341,0.057015255093574524,0.012155679985880852,0.4717811346054077,0.22749018669128418,-0.8518631458282471,-0.032450079917907715,0.010287538170814514,-0.0018661022186279297,-0.2811267826713774,0.2689832779524273,0.041429831045451795,-0.9202713515836088,-0.22949950544257153,0.5057733673914078,2.608185854309724
1781556291141213952,2.6245059967041016,-0.12044215947389603,0.05326685681939125,0.010468300431966782,0.47227156162261963,0.2285427302122116,-0.8513094782829285,-0.02450239658355713,0.01703222095966339,-0.004952728748321533,-0.2809102652485521,0.2694190979363975,0.04193579473406409,-0.9201870815332903,-0.23058053618890864,0.5064895757202184,2.6089363861293258
1781556291151249920,2.6345419883728027,-0.09361827373504639,0.04983164370059967,0.011429169215261936,0.47274067997932434,0.229396790266037,-0.8508192300796509,-0.01546528935432434,0.029911071062088013,-0.006205916404724121,-0.2807268326295689,0.26981086892322625,0.04233760305463605,-0.9201098610914463,-0.23145790454634016,0.5071553740066324,2.609566679649388
1781556291161284608,2.6445767879486084,-0.056312981992959976,0.039401374757289886,0.009921020828187466,0.47314876317977905,0.22998583316802979,-0.8504332900047302,-0.0009350180625915527,0.04174269735813141,-0.003997862339019775,-0.28058617202923536,0.27012610698998174,0.042605678080672026,-0.9200478560803078,-0.23206311863008489,0.5077145383761134,2.6100370846032033
1781556291171319808,2.654611825942993,-0.02335183508694172,0.028147388249635696,0.008365735411643982,0.47344735264778137,0.2302790731191635,-0.8501877188682556,0.013308018445968628,0.04730880260467529,-0.005799829959869385,-0.28049980845670686,0.2703338272123429,0.04272894860239679,-0.9200074346815993,-0.2323644547843456,0.5081053438450744,2.610312131745064
1781556291181354752,2.664646863937378,0.0027759058866649866,0.01614292338490486,0.0015381888952106237,0.4736444652080536,0.23034784197807312,-0.8500592708587646,0.02249506115913391,0.04533270001411438,-0.0075914859771728516,-0.28046982310808866,0.2704507278738474,0.04274069137760385,-0.9199816588613995,-0.23243512015304305,0.5083465490551257,2.610404745985383
1781556291191390720,2.674682855606079,0.011745697818696499,0.00400956254452467,-0.0023122092243283987,0.47372689843177795,0.2302919179201126,-0.8500285148620605,0.026730865240097046,0.03475324809551239,-0.011589527130126953,-0.2804830322158866,0.27048621717593957,0.042696173363219,-0.9199692338238764,-0.2323776558263235,0.5084359364261849,2.6103669227457678
1781556291201425664,2.684717893600464,0.034435030072927475,-0.004188446328043938,-0.005970327649265528,0.47371983528137207,0.23011526465415955,-0.8500802516937256,0.02759242057800293,0.025652557611465454,-0.011293649673461914,-0.28053546482223857,0.27045437147925155,0.04259454223157665,-0.9199673866336467,-0.23219612486748845,0.5084037027981073,2.6102097827094943
1781556291211460864,2.6947529315948486,0.04905019327998161,-0.009233404882252216,-0.009898755699396133,0.473650187253952,0.22982890903949738,-0.8501965403556824,0.028592854738235474,0.020689889788627625,-0.008766472339630127,-0.2806193757668604,0.27037127623691276,0.04243930781188272,-0.9199734243974939,-0.2319018814911063,0.5082830285105427,2.6099541618037545
1781556291221495808,2.7047879695892334,0.08300203830003738,-0.009588937275111675,-0.02865966223180294,0.4735349416732788,0.22935457527637482,-0.8503888249397278,0.02190268039703369,0.012649819254875183,-0.010740935802459717,-0.2807890428385013,0.27023511054918953,0.04217318568181049,-0.919973859145516,-0.23141452744297833,0.5080834554569315,2.6094640298451695
1781556291231531776,2.7148239612579346,0.09417186677455902,-0.011085500940680504,-0.033199019730091095,0.4733735918998718,0.22872807085514069,-0.8506473302841187,0.016494542360305786,0.01666375994682312,-0.007110178470611572,-0.2810619721193835,0.2700524672518464,0.04180891043340303,-0.9199608176516727,-0.23077092234758434,0.5078094396975079,2.6087103264173686
1781556291241566720,2.7248587608337402,0.010965125635266304,-0.025461778044700623,-0.04093417152762413,0.4731428027153015,0.22847269475460052,-0.8508443236351013,0.017656147480010986,0.036068931221961975,0.004225671291351318,-0.28129500178906514,0.2698944969516779,0.04165080737797581,-0.9199430692143152,-0.23050858808325175,0.507503922769014,2.608129527912799
1781556291251601664,2.734893798828125,-0.022833317518234253,-0.03178705275058746,-0.07006089389324188,0.4727432131767273,0.22879020869731903,-0.8509811758995056,0.014881908893585205,0.034484922885894775,-0.0036330819129943848,-0.2815286967029123,0.26974429558679114,0.04180234535414914,-0.9199088333033404,-0.23083475145000443,0.5070768550687829,2.6076770184066578
1781556291261636608,2.7449288368225098,-0.013290679082274437,-0.040331270545721054,-0.07394138723611832,0.4722897708415985,0.22936087846755981,-0.8510792851448059,0.005707055330276489,0.03516547381877899,-0.014231383800506592,-0.28182528213266056,0.26961183551285756,0.042069069902273104,-0.9198446819468047,-0.23142101111780594,0.5066206582316196,2.6071456948569085
1781556291271672832,2.754964828491211,0.03170768916606903,-0.05201096087694168,-0.0776253417134285,0.47171732783317566,0.22963272035121918,-0.8513234257698059,-0.0009379088878631592,0.024609223008155823,-0.016733825206756592,-0.2821708050444291,0.2693660195979738,0.04219278045917521,-0.9198050583206876,-0.23170030084238283,0.5059846529701959,2.6064291002326208
1781556291281707776,2.7649998664855957,0.053085945546627045,-0.054684776812791824,-0.05568994581699371,0.4711056053638458,0.22959505021572113,-0.8516722321510315,-0.005727797746658325,0.0020333677530288696,3.349781036376953e-05,-0.28253403804003113,0.2690464595876694,0.0421648528919747,-0.9197883904805886,-0.2316615974196307,0.5052612065336304,2.6055973131978063
1781556291291742720,2.7750349044799805,0.06688272207975388,-0.04567290470004082,-0.045466870069503784,0.4705742597579956,0.229312926530838,-0.8520419001579285,-0.007500559091567993,-0.025821730494499207,0.009176969528198242,-0.2828256816686616,0.2687247138889289,0.042024621025682975,-0.9197991613118626,-0.2313717372812655,0.504599683720246,2.604866729269263
1781556291301777920,2.7850699424743652,0.07130809873342514,-0.03948798030614853,-0.04256881773471832,0.47010836005210876,0.22889798879623413,-0.852410614490509,-0.004059165716171265,-0.04449552297592163,0.015054047107696533,-0.28312399531112187,0.2684155328239369,0.04180669061656501,-0.9198076537671209,-0.23094545999486787,0.503997639043098,2.6040937292129174
1781556291311812864,2.79510498046875,0.05295944586396217,-0.037536948919296265,-0.024586889892816544,0.46969854831695557,0.22851791977882385,-0.8527384400367737,-0.0009790658950805664,-0.05183640122413635,0.03015238046646118,-0.283345856594485,0.2681391191710618,0.04161955262623988,-0.9198284985062375,-0.23055504598901722,0.503466395121293,2.6034985855963964
1781556291321848832,2.805140972137451,0.013931887224316597,-0.019683916121721268,-0.016939355060458183,0.4693955183029175,0.22831563651561737,-0.8529594540596008,-0.0075882673263549805,-0.055982887744903564,0.034722208976745605,-0.28348768440794203,0.26794738779501837,0.04152660100626724,-0.9198448895888497,-0.23034726747614573,0.5030842257663702,2.603125791559324
1781556291331883776,2.815175771713257,0.0033940256107598543,0.0090076494961977,0.006059969775378704,0.46934038400650024,0.22828568518161774,-0.8529977798461914,-0.013743460178375244,-0.03811539709568024,0.034134864807128906,-0.2835250242173791,0.2679142464709103,0.04150971489054096,-0.9198437273926029,-0.23031651093677258,0.5030156492261036,2.603034433565681
1781556291341918720,2.8252108097076416,-0.008479679003357887,0.045133695006370544,0.022148657590150833,0.4696090519428253,0.228188157081604,-0.8528760075569153,-0.012547284364700317,-0.014748215675354004,0.03251773118972778,-0.2834604241227326,0.26803900828271393,0.041437660340872574,-0.9198305232162537,-0.23021633007462808,0.503317703368836,2.603165751521521
1781556291351953664,2.8352458477020264,-0.05490097403526306,0.07301459461450577,0.018565375357866287,0.4701753854751587,0.2283293604850769,-0.8525261282920837,-0.007818818092346191,0.00867016613483429,0.04370349645614624,-0.28333845011184555,0.2683628307237548,0.04145280755114195,-0.9197729468234221,-0.23036136639839058,0.5040006284906863,2.6034946275023825
1781556291361989632,2.8452818393707275,-0.1319584846496582,0.07262285053730011,0.0008060858817771077,0.47080904245376587,0.22916914522647858,-0.8519509434700012,-0.0016317963600158691,0.021486982703208923,0.05152064561843872,-0.2831693808897397,0.26884190371311395,0.04181590280955139,-0.9196687641664885,-0.2312240308738225,0.5048560240784233,2.6040975094995957
1781556291372024832,2.8553168773651123,-0.1599656045436859,0.09113061428070068,-0.02509448677301407,0.4714789390563965,0.23044992983341217,-0.8512346744537354,0.00020074844360351562,0.03866934776306152,0.02964043617248535,-0.28306465775067735,0.2694202332531223,0.04237232382654572,-0.9195062189841472,-0.23254002534898455,0.5058146078404161,2.6046691335841157
1781556291382059776,2.865351915359497,-0.11360742896795273,0.0722525343298912,-0.015127606689929962,0.47214365005493164,0.2317996621131897,-0.8504994511604309,-0.007376194000244141,0.04818384349346161,0.016728699207305908,-0.2829681489463079,0.27000849974320723,0.04296146675062789,-0.9193360890158039,-0.23392732957755527,0.506778565274278,2.6052407494867156
1781556291392094976,2.875386953353882,0.012301766313612461,0.0534527450799942,-0.023671826347708702,0.4726319909095764,0.23234914243221283,-0.8500781655311584,-0.003103792667388916,0.02885080873966217,-0.009159505367279053,-0.2829969654634202,0.27036876651900205,0.043146741790604126,-0.9192126730887032,-0.23449223284301388,0.5074277584236175,2.6053376923880776
1781556291402130944,2.885422945022583,0.1399713009595871,0.061668068170547485,-0.02438901551067829,0.4730554223060608,0.23178768157958984,-0.8499959111213684,-0.005098879337310791,0.030816078186035156,-0.017954528331756592,-0.2832367706897185,0.27051074658121566,0.04273153461807907,-0.9191163545191793,-0.2339150150443022,0.5078492850024506,2.604703307219551
1781556291412165888,2.8954579830169678,0.1942681074142456,0.05088639259338379,-0.02577332779765129,0.47348544001579285,0.23043560981750488,-0.8501240611076355,-0.016301631927490234,0.009157881140708923,-0.017200708389282227,-0.2835968607746305,0.27052401017717664,0.04188940257047895,-0.9190401579613926,-0.23252531301440646,0.5081713833279242,2.6036158949576054
1781556291422200576,2.9054927825927734,0.19087310135364532,0.027254030108451843,-0.03769603371620178,0.47374626994132996,0.2289612740278244,-0.850377082824707,-0.014395684003829956,-0.009799286723136902,-0.02501964569091797,-0.2840161961527744,0.2704269630979735,0.04099656731083967,-0.918979453858427,-0.2310104835658585,0.5082789936632027,2.60236044971062
1781556291432235776,2.915527820587158,0.22312770783901215,0.014300815761089325,-0.03895863890647888,0.4738135039806366,0.22737489640712738,-0.8507651686668396,-0.0022558867931365967,0.01144041121006012,-0.040027618408203125,-0.284487257739877,0.2702077780469351,0.04006442497748189,-0.9189394156875303,-0.2293811209185025,0.5081453551402155,2.6009553046877665
1781556291442271744,2.9255638122558594,0.1891830563545227,0.012208103202283382,-0.02173997089266777,0.47387251257896423,0.22572843730449677,-0.8511706590652466,-0.005381911993026733,0.003321245312690735,-0.03681457042694092,-0.2849228424964416,0.2699716510411478,0.039114757782318745,-0.9189147847587347,-0.2276907092712447,0.5079957347352824,2.5996125523765077
1781556291452306688,2.935598850250244,0.10479574650526047,0.00434099230915308,-0.011182399466633797,0.4739052951335907,0.22451548278331757,-0.8514732122421265,-0.005170553922653198,-0.028455302119255066,-0.009961724281311035,-0.28519590650238386,0.2697896428375352,0.03843112751747395,-0.9189124142423835,-0.22644579801873999,0.507874137464299,2.5987271276497363
1781556291462341888,2.945633888244629,0.017243262380361557,-0.01509475614875555,-0.015088191255927086,0.47383740544319153,0.22406630218029022,-0.8516292572021484,0.004907101392745972,-0.03597120940685272,-0.0011234283447265625,-0.2853346479945122,0.26968066615902064,0.038179847536706175,-0.9189117430107159,-0.22598486707444757,0.5077353667065048,2.5983133786742996
1781556291472376832,2.9556689262390137,-0.022182174026966095,-0.031490374356508255,-0.01620059460401535,0.4735763669013977,0.22420507669448853,-0.851737916469574,0.011408984661102295,-0.003974974155426025,0.00740814208984375,-0.2853972386797332,0.26956685461670876,0.038271916830391384,-0.9189218612802695,-0.22612726763395632,0.5074470820810592,2.598197850083926
1781556291482412800,2.965704917907715,-0.007916153408586979,-0.03352689370512962,-0.020560722798109055,0.4732525944709778,0.22443901002407074,-0.8518562912940979,0.004683196544647217,0.022234559059143066,0.0110359787940979,-0.28545721629774107,0.26943576584187223,0.038421769325550754,-0.9189354173385973,-0.2263673282069034,0.5070977052034092,2.598107804980191
1781556291492447744,2.9757399559020996,0.014756934717297554,-0.03561081737279892,-0.025200480595231056,0.4729076027870178,0.22450396418571472,-0.8520307540893555,8.046627044677734e-06,0.01887372136116028,0.011668205261230469,-0.28556144716278314,0.26926570411459144,0.038478766777462654,-0.9189504749114962,-0.22643398283756316,0.5067012726405226,2.5978796176095194
1781556291502482944,2.9857749938964844,0.012573675252497196,-0.02777872607111931,-0.024410322308540344,0.4725762903690338,0.2244972437620163,-0.8522163033485413,0.0008123815059661865,-0.008768483996391296,0.01650768518447876,-0.28568686927767695,0.2690914388100275,0.038492045348395,-0.9189620536973384,-0.22642707573657087,0.5063115966059003,2.597588852332972
1781556291512517632,2.99580979347229,-0.014732248149812222,-0.01665310561656952,-0.023145852610468864,0.4723278880119324,0.22462037205696106,-0.8523215651512146,-0.000877082347869873,-0.036113277077674866,0.0235099196434021,-0.2857954420468903,0.26898376675154884,0.038560947166299875,-0.9189569070683454,-0.22655342978345552,0.506036279347303,2.597369893059576
1781556291522553600,3.005845785140991,-0.05332092195749283,-0.005027076229453087,-0.008155717514455318,0.47219592332839966,0.22497904300689697,-0.8523001074790955,-0.005307495594024658,-0.047275200486183167,0.03339141607284546,-0.2858196645828315,0.26897628653268624,0.0387519030166656,-0.9189435321841022,-0.22692153005597338,0.505928497486601,2.5973968062573403
1781556291532588800,3.015880823135376,-0.0905497744679451,0.014141025952994823,0.005616020876914263,0.47224754095077515,0.2255997508764267,-0.8521074056625366,-0.0071291327476501465,-0.0459732860326767,0.03892076015472412,-0.28573084402936016,0.2691085263757836,0.03907556527843458,-0.9189187109913796,-0.22755861187599338,0.5060706866419614,2.597741743566072
1781556291542623744,3.0259158611297607,-0.12012232095003128,0.02877216599881649,0.023122576996684074,0.47246676683425903,0.22643078863620758,-0.8517653942108154,-0.005074799060821533,-0.03847302496433258,0.03682398796081543,-0.2855219228451311,0.2693625311101484,0.039511215790841304,-0.918890640926479,-0.22841172686011268,0.5064377815267525,2.5984072905595643
1781556291552658688,3.0359508991241455,-0.14313896000385284,0.03437332808971405,0.03921525925397873,0.47281649708747864,0.22738565504550934,-0.8513168096542358,-0.006217986345291138,-0.03393472731113434,0.02899014949798584,-0.2852077662748655,0.2697038417914671,0.04001801632997392,-0.9188660415083193,-0.2293921651136924,0.5069752822499852,2.5993385244631755
1781556291562694912,3.0459868907928467,-0.15974217653274536,0.04737754166126251,0.047672659158706665,0.4732661843299866,0.22847291827201843,-0.8507757186889648,-0.006682932376861572,-0.027896136045455933,0.023306846618652344,-0.28480883822215314,0.27011821373953104,0.040599335999259877,-0.9188426536079138,-0.23050881752111108,0.5076489324994283,2.6004923282320687
1781556291572729856,3.0560219287872314,-0.16326206922531128,0.06368207931518555,0.05696522817015648,0.4738607406616211,0.22960180044174194,-0.8501405715942383,-0.005782127380371094,-0.011446893215179443,0.010037422180175781,-0.28435492456897304,0.27061542160361785,0.041194649349261765,-0.9188104136563419,-0.23166853429984327,0.5084999852198652,2.601784255325872
1781556291582764800,3.066056966781616,-0.15281076729297638,0.06712687760591507,0.05913010984659195,0.47456416487693787,0.23067660629749298,-0.8494569659233093,-0.005478501319885254,0.008260756731033325,0.0008394718170166016,-0.28387797669803017,0.27116078954675943,0.04175326622504967,-0.9187718797538684,-0.23277298552429762,0.5094734858155445,2.6031202297953286
1781556291592799744,3.076091766357422,-0.11459705978631973,0.06741783022880554,0.05727894976735115,0.4752681851387024,0.23156151175498962,-0.8488223552703857,0.00019568204879760742,0.020895153284072876,-0.011208772659301758,-0.28343459319671116,0.2716748812321708,0.04220874269309639,-0.918736082900267,-0.23368251293799966,0.5104234540605292,2.60433828168678
1781556291602834688,3.0861268043518066,-0.06819174438714981,0.05450256168842316,0.04393225163221359,0.4758923649787903,0.23211327195167542,-0.848321795463562,0.005705535411834717,0.026553720235824585,-0.02162754535675049,-0.28308599962280084,0.2720921481443393,0.042484865760290653,-0.9187073474750991,-0.23424973045554393,0.5112347757937435,2.6052654237617854
1781556291612870656,3.096162796020508,-0.017778636887669563,0.03470342606306076,0.039313796907663345,0.47636276483535767,0.2322646975517273,-0.8480163216590881,0.008454740047454834,0.031010448932647705,-0.031805455684661865,-0.282845893865648,0.2723616107418358,0.04255585580991211,-0.9186982218433908,-0.23440541773982798,0.5118102206837934,2.605850817584447
1781556291622905856,3.1061978340148926,0.014303931035101414,0.03042958304286003,0.0392775759100914,0.4767301380634308,0.23208726942539215,-0.8478583693504333,0.007919520139694214,0.03205764293670654,-0.036952972412109375,-0.2826679150673645,0.2725210902797629,0.042462437569940156,-0.9187099686273729,-0.23422299436592825,0.512219033899095,2.6062148911706324
1781556291632940800,3.1162328720092773,0.01307887677103281,0.02019771933555603,0.022347329184412956,0.47703295946121216,0.23181822896003723,-0.8477616906166077,0.003679931163787842,0.02564331889152527,-0.035447537899017334,-0.2825452356286636,0.27263229861558724,0.042317680907992435,-0.9187214299926912,-0.2339464199274002,0.5125390922836961,2.606432709490573
1781556291642975744,3.126267910003662,0.009385870769619942,0.00043573323637247086,0.012227850966155529,0.4771746098995209,0.23165255784988403,-0.8477272391319275,0.007398754358291626,0.024939239025115967,-0.02174907922744751,-0.2824777240828666,0.2726769696170287,0.04223329170561185,-0.9187327901692682,-0.2337761085444949,0.5126833722239511,2.606546797874687
1781556291653011712,3.1363039016723633,0.021008705720305443,-0.016182657331228256,0.004946236032992601,0.4771210253238678,0.2314961552619934,-0.8478001356124878,0.007681220769882202,0.024241149425506592,-0.010445713996887207,-0.28246103368089426,0.27262002851871814,0.04216948691514263,-0.9187576922858204,-0.23361532978161711,0.512598621417879,2.6065418783193572
1781556291663046912,3.146338939666748,0.0445912629365921,-0.02157209813594818,0.003076697001233697,0.4769634008407593,0.23122601211071014,-0.8479625582695007,-0.0014690160751342773,0.019338563084602356,-0.0014789700508117676,-0.28248459692080197,0.272488863129388,0.04205411097979268,-0.9187947435862098,-0.23333765024683503,0.5123755414031737,2.606416127224514
1781556291673081856,3.156373977661133,0.07493745535612106,-0.02241605333983898,-0.0039079757407307625,0.47677746415138245,0.23071588575839996,-0.8482060432434082,-0.008012205362319946,0.01476752758026123,0.004532337188720703,-0.282570623590755,0.27230357468427685,0.04180616670219349,-0.9188345215250704,-0.23281334805309728,0.5120863204996283,2.60609416535435
1781556291683116800,3.1664087772369385,0.08046431094408035,-0.025213968008756638,0.0012343222042545676,0.4765782952308655,0.23006848990917206,-0.848493754863739,-0.00825551152229309,0.004626944661140442,0.012922465801239014,-0.2826782796028175,0.27208826507515266,0.04148617590731612,-0.9188796917296932,-0.23214806472658417,0.5117630309062077,2.605691105323899
1781556291693152768,3.1764447689056396,0.06340570002794266,-0.024741390720009804,-0.0009982057381421328,0.4763627052307129,0.22943086922168732,-0.8487874269485474,-0.007277011871337891,-0.011001303791999817,0.017274975776672363,-0.28276677352159973,0.2718649513575306,0.04117937263122628,-0.9189323800941125,-0.23149291290385965,0.5114221606291203,2.6053315359129163
1781556291703187712,3.1864798069000244,0.03983592242002487,-0.02027660235762596,0.004352617543190718,0.4761732220649719,0.2289876788854599,-0.8490133881568909,-0.007179081439971924,-0.013945549726486206,0.01977449655532837,-0.28282243058198736,0.27168809780915476,0.04097421496310597,-0.9189766971875729,-0.23103759687183578,0.511138794667579,2.6050923514543305
1781556291713222656,3.196514844894409,0.03284832090139389,-0.020147040486335754,0.006419762969017029,0.47600579261779785,0.22865518927574158,-0.8491968512535095,-0.0075304508209228516,-0.011934608221054077,0.02336066961288452,-0.2828480285663683,0.2715410834452003,0.04082913052974618,-0.9190186825282216,-0.23069604897499052,0.5108966055542341,2.604946812806358
1781556291723257856,3.206549882888794,0.021219627931714058,-0.014709663577377796,-3.627195837907493e-05,0.4758644998073578,0.2284197360277176,-0.8493394255638123,-0.007312864065170288,-0.00655694305896759,0.024083077907562256,-0.2828699752587742,0.2714248603411961,0.04072889410411446,-0.9190507840206426,-0.23045419167494732,0.5106984198366098,2.6048344522704454
1781556291733293824,3.216585874557495,0.0024246349930763245,-0.012801108881831169,-0.0035071696620434523,0.4757423996925354,0.22831664979457855,-0.8494355082511902,-0.0097847580909729,-0.006026610732078552,0.024148643016815186,-0.2828860233088028,0.27134175719974435,0.040692716637723676,-0.9190719532096391,-0.23034831306672116,0.5105407589538539,2.604768031527391
1781556291743328768,3.22662091255188,-0.0015690414002165198,-0.0064880866557359695,-0.010687850415706635,0.4756486713886261,0.22833095490932465,-0.8494841456413269,-0.014024525880813599,-0.010115012526512146,0.020550429821014404,-0.2829094519994546,0.2712946659149717,0.040707809576101074,-0.919077993440635,-0.2303630051410729,0.5104323449603998,2.604715667249344
1781556291753363968,3.2366559505462646,-0.019587455317378044,-0.004153159912675619,-0.010077720507979393,0.47558799386024475,0.22849607467651367,-0.8494737148284912,-0.013368755578994751,-0.009669780731201172,0.013810873031616211,-0.2829473638029104,0.2712922696397368,0.04078783133360646,-0.9190634488641377,-0.23053260925007674,0.5103832129947878,2.6046701163899124
1781556291763398912,3.2466909885406494,-0.03676697611808777,-0.0032580713741481304,-0.012834358029067516,0.4755345582962036,0.22881855070590973,-0.8494168519973755,-0.008020520210266113,-0.011045098304748535,0.007345318794250488,-0.28295963060692814,0.2713199596936996,0.04095197995403628,-0.9190441998616995,-0.23086386064065986,0.5103638563018947,2.60471905621577
1781556291773434880,3.2567269802093506,-0.05040209740400314,8.819065988063812e-05,-0.01619207300245762,0.47551167011260986,0.22925175726413727,-0.8493128418922424,-0.007372051477432251,-0.008594423532485962,-0.0007695555686950684,-0.2829626053202826,0.2713829935746831,0.04116869037749556,-0.9190149807921376,-0.2313089044875535,0.5103955418189382,2.6048167355782836
1781556291783469568,3.2667617797851562,-0.030078712850809097,-0.004839456174522638,-0.017853619530797005,0.47547751665115356,0.22965864837169647,-0.8492220044136047,0.0025650858879089355,0.005280911922454834,-0.0032712817192077637,-0.2829767395202623,0.27143588106410754,0.041370912529486846,-0.9189859398851599,-0.23172694914624284,0.5104104846964419,2.604883163766964
1781556291793504768,3.276796817779541,-0.014457942917943,-0.02101016975939274,-0.019437134265899658,0.47533896565437317,0.22992441058158875,-0.8492276668548584,0.012118309736251831,0.014506131410598755,-0.009628534317016602,-0.28302007882710806,0.27140921326244,0.04151145113562215,-0.9189741739773878,-0.23200001831849817,0.5102834370251385,2.604846186186991
1781556291803539712,3.286831855773926,-0.011005420237779617,-0.029899267479777336,-0.024158386513590813,0.47507357597351074,0.23012244701385498,-0.849322497844696,0.01116296648979187,0.015635594725608826,-0.00854182243347168,-0.28309145250285517,0.2713036001039692,0.04163048072578088,-0.9189779384984235,-0.23220350505501025,0.5099978711341359,2.6047247891560787
1781556291813575680,3.296867847442627,-0.012808380648493767,-0.03204071521759033,-0.023433474823832512,0.47476065158843994,0.23034356534481049,-0.8494375944137573,0.0031141042709350586,0.00984501838684082,-0.008228421211242676,-0.28318181670365544,0.2711771962925582,0.041762900979492854,-0.9189814674155021,-0.23243072837248585,0.509659493306971,2.6045652252752607
1781556291823610880,3.3069028854370117,-0.00042574640247039497,-0.04077029228210449,-0.025997566059231758,0.47439298033714294,0.23050911724567413,-0.8495980501174927,0.0018796026706695557,0.012258216738700867,-0.005153536796569824,-0.2832804161187254,0.2710120343997135,0.041874183561068805,-0.9189947084028268,-0.23260085012573423,0.5092492060125885,2.6043710899090087
1781556291833645824,3.3169379234313965,0.017649661749601364,-0.04083620384335518,-0.023350650444626808,0.4739687144756317,0.23052461445331573,-0.8498306274414062,0.003967076539993286,0.018041059374809265,0.00246429443359375,-0.28340356587034937,0.27079140331484763,0.04191318728042997,-0.9190199713006414,-0.23261678012479203,0.5087520229228653,2.604084043733119
1781556291843680768,3.3269729614257812,0.03231249004602432,-0.04191185534000397,-0.02504575252532959,0.47357654571533203,0.2303982675075531,-0.8500834703445435,-0.0022325515747070312,0.0153292715549469,0.010605931282043457,-0.2835379013306437,0.27056395429371416,0.04187379295001056,-0.9190473202809232,-0.2324869400160105,0.5082734679492305,2.603740073068282
1781556291853716736,3.3370089530944824,0.039680127054452896,-0.04083047807216644,-0.026294242590665817,0.473160058259964,0.23017719388008118,-0.850375235080719,-0.0038454830646514893,0.004960760474205017,0.012103140354156494,-0.2836968036861792,0.27030808454901856,0.041784341952358264,-0.9190776244414364,-0.23225975457921016,0.5077536899646096,2.603318489989228
1781556291863751936,3.347043991088867,0.026330767199397087,-0.03706929832696915,-0.02877364493906498,0.47277185320854187,0.2300402969121933,-0.850628137588501,-0.00539514422416687,-0.0016314834356307983,0.015285730361938477,-0.28385900038611234,0.270082292376619,0.04173104931130328,-0.9190964127444474,-0.23211908761134506,0.5072787556319767,2.602911830962906
1781556291873786624,3.357078790664673,0.014202730730175972,-0.0314544215798378,-0.03233082965016365,0.4724089801311493,0.2300490289926529,-0.8508273363113403,-0.010311812162399292,-0.008766070008277893,0.014050602912902832,-0.2840243651773458,0.269895723468034,0.041744722942596665,-0.9190994546422937,-0.23212806098605349,0.5068533944534419,2.602534648767094
1781556291883821824,3.3671138286590576,-0.00034318838152103126,-0.02941231243312359,-0.02944129891693592,0.4720878601074219,0.2301616668701172,-0.8509751558303833,-0.013713836669921875,-0.014204025268554688,0.0099107027053833,-0.28416728145168585,0.2697487447809328,0.0418096502329996,-0.9190955246327349,-0.23224379930420957,0.5064911766671181,2.602233714423754
1781556291893857792,3.377149820327759,-0.010891437530517578,-0.015327118337154388,-0.029455680400133133,0.47183138132095337,0.23038651049137115,-0.8510565757751465,-0.01864534616470337,-0.014123693108558655,0.007993221282958984,-0.2842893315954506,0.26965525092622616,0.0419257797171366,-0.9190799712523791,-0.2324748600120754,0.5062201086524409,2.602008607501767
1781556291903892736,3.3871848583221436,-0.017858531326055527,-0.012940660119056702,-0.026275333017110825,0.4716417193412781,0.23068003356456757,-0.8510821461677551,-0.013862788677215576,-0.010022684931755066,0.008415520191192627,-0.28439795827137965,0.2696092099621202,0.042069066538865746,-0.9190532307590026,-0.2327765150557646,0.5060368885055793,2.6018325579852095
1781556291913927680,3.3972198963165283,-0.021758465096354485,-0.010285353288054466,-0.023694196715950966,0.47149598598480225,0.2310132533311844,-0.8510724902153015,-0.006957411766052246,-0.005839303135871887,0.008100748062133789,-0.28449402897153314,0.26959318607105914,0.042228604770361326,-0.9190209370728017,-0.23311897125721748,0.5059106749012232,2.601695882565038
1781556291923962880,3.407254934310913,-0.0253987405449152,-0.011387903243303299,-0.023228943347930908,0.4713704586029053,0.2313641756772995,-0.8510467410087585,-0.0036427974700927734,-0.0006970614194869995,0.00831902027130127,-0.28457229215348034,0.26959038765629745,0.04239888279646607,-0.9189896686885903,-0.23347967551679172,0.5058106639474527,2.6016031529902928
1781556291933998848,3.4172909259796143,-0.02329963631927967,-0.008173733949661255,-0.027125680819153786,0.4712538719177246,0.23171649873256683,-0.8510154485702515,0.0006852149963378906,0.0067783743143081665,0.008379340171813965,-0.2846470785915498,0.26959252098414127,0.04256944006734106,-0.918957994365326,-0.23384183912941825,0.5057213958720607,2.601518779435232
1781556291944033792,3.427325963973999,-0.00417574355378747,-0.011015325784683228,-0.024888625368475914,0.4711286127567291,0.231954425573349,-0.8510199785232544,0.008851855993270874,0.013818889856338501,0.0029670000076293945,-0.28474455830531703,0.2695711051250602,0.042678277898828554,-0.9189290475079777,-0.23408643051040637,0.5056064938665631,2.6013570236447565
1781556291954068736,3.4373607635498047,0.0032033431343734264,-0.014639356173574924,-0.024096067994832993,0.4709669053554535,0.23206306993961334,-0.8510798811912537,0.011805921792984009,0.017585977911949158,0.002935349941253662,-0.2848556860271642,0.2695081174944507,0.04272515806844226,-0.9189109214932162,-0.23419811712673114,0.5054312040350303,2.6011324609280533
1781556291964104960,3.447396993637085,0.014067442156374454,-0.027969010174274445,-0.023942936211824417,0.4707178473472595,0.2320406138896942,-0.8512237668037415,0.01797538995742798,0.016555562615394592,0.004635632038116455,-0.28497099154109856,0.26937539446902425,0.04272012609919432,-0.9189143502065733,-0.23417503939024933,0.5051355397649891,2.6008625449147704
1781556291974139648,3.4574317932128906,0.019031841307878494,-0.03861699253320694,-0.02341669611632824,0.470350980758667,0.23199281096458435,-0.8514395356178284,0.018128633499145508,0.013521090149879456,0.003478109836578369,-0.2850946541601584,0.2691752380062972,0.04271901778165624,-0.9189346436452355,-0.2341258914229064,0.5046981414523363,2.6005618207932826
1781556291984174848,3.4674668312072754,0.03104349598288536,-0.04326287657022476,-0.02510567381978035,0.4699336290359497,0.23189260065555573,-0.8516972661018372,0.014838099479675293,0.012171730399131775,0.0010808110237121582,-0.28522505212284555,0.26893906326374095,0.042698220737358614,-0.918964346992937,-0.23402287018693907,0.5041944652160834,2.6002313004625024
1781556291994209792,3.47750186920166,0.046287961304187775,-0.04630393907427788,-0.02444813773036003,0.46950238943099976,0.23167678713798523,-0.85199373960495,0.008570700883865356,0.009869813919067383,-0.0010182857513427734,-0.28537576191295194,0.2686762742881859,0.04261673853065343,-0.9189980600621935,-0.2338010198486622,0.503659103681277,2.599827950308227
1781556292004245760,3.4875378608703613,0.0626126080751419,-0.04221891611814499,-0.022230524569749832,0.46908581256866455,0.23131375014781952,-0.8523218035697937,0.005386233329772949,0.004205673933029175,-0.002826511859893799,-0.2855548613157266,0.26839694722785257,0.04245209297133147,-0.919031722031629,-0.2334278359533016,0.5031213524132799,2.599328868701226
1781556292014280704,3.497572898864746,0.06462649255990982,-0.042111992835998535,-0.022917885333299637,0.46869125962257385,0.23090146481990814,-0.8526505827903748,0.0009742677211761475,0.004068642854690552,0.004490792751312256,-0.28573729451955615,0.2681210764975742,0.04225877632158066,-0.9190644240852965,-0.2330040755394508,0.5026031744486069,2.5988120955501604
1781556292024315904,3.507607936859131,0.06782468408346176,-0.03876200318336487,-0.017804617062211037,0.46832436323165894,0.23048466444015503,-0.8529648780822754,-0.0017716288566589355,0.0007165074348449707,0.007307529449462891,-0.2859111509263513,0.26785889359845305,0.04206142680825239,-0.9190958973058682,-0.23257572226880693,0.5021171375942595,2.5983147478752167
1781556292034350848,3.5176429748535156,0.05865168571472168,-0.03337935730814934,-0.014211478643119335,0.4680166244506836,0.2300572246313095,-0.8532491326332092,-0.005476951599121094,0.0008692890405654907,0.0051503777503967285,-0.28607084786677156,0.2676260499700758,0.0418535659270223,-0.9191235472020699,-0.23213647751611657,0.501699389362496,2.59784906066306
1781556292044386816,3.527678966522217,0.029748933389782906,-0.03157319873571396,-0.005437695421278477,0.46777665615081787,0.22976621985435486,-0.8534591794013977,-0.009890913963317871,0.0036627352237701416,0.009968578815460205,-0.2861711640195437,0.2674507577461383,0.04171945188140728,-0.9191494878034897,-0.23183746437052527,0.5013794156872395,2.597548855978628
1781556292054421760,3.5377137660980225,0.0182318277657032,-0.03020673245191574,-0.004843544214963913,0.46755632758140564,0.2296353280544281,-0.8536150455474854,-0.005825400352478027,-0.0010586827993392944,0.009361565113067627,-0.2862077533956696,0.2673111830224912,0.04167966448023016,-0.9191804440593897,-0.2317029848942752,0.5011039225515295,2.5974263493533423
1781556292064456704,3.5477488040924072,0.0378316268324852,-0.03370026499032974,-0.003277338808402419,0.46726760268211365,0.22941964864730835,-0.8538311123847961,-0.0053993165493011475,0.0018272846937179565,0.003962397575378418,-0.28625948721209127,0.2671207227134807,0.041604682668683834,-0.9192231188760723,-0.23148139207751686,0.5007371195558761,2.597247285302635
1781556292074491648,3.557783842086792,0.08246967196464539,-0.03242674469947815,-0.0037588386330753565,0.46698474884033203,0.22894831001758575,-0.8541123867034912,-0.004963874816894531,0.013407036662101746,0.002580404281616211,-0.2863421247185282,0.2668901813992189,0.0413938128103337,-0.9192738793979482,-0.23099715360275003,0.5003435253553717,2.596940756104919
1781556292084527616,3.567819833755493,0.12269645184278488,-0.0294802226126194,-0.006484583951532841,0.46670854091644287,0.22807921469211578,-0.8544957637786865,-0.005175948143005371,0.014978036284446716,0.0037724971771240234,-0.28649913031650914,0.26659713310588384,0.04096439197664097,-0.9193291873020933,-0.2301044440239603,0.49990568108414773,2.596378727059312
1781556292094562816,3.577854871749878,0.18429429829120636,-0.02801108919084072,-0.013858078047633171,0.46644094586372375,0.2267904132604599,-0.8549847602844238,2.0235776901245117e-05,0.0132303386926651,0.009129047393798828,-0.2867489379317965,0.2662395943250659,0.04030011222192338,-0.9193842345000179,-0.22878096134915193,0.4994238976248283,2.5955164547638816
1781556292104597760,3.5878899097442627,0.2156415730714798,-0.022800613194704056,-0.011283333413302898,0.46618664264678955,0.22513405978679657,-0.8555610179901123,0.0026396512985229492,0.01140768826007843,0.015061140060424805,-0.28707075477815197,0.2658281312337804,0.039432185407713614,-0.9194405170819766,-0.2270806287842828,0.4989115346573961,2.594412234746845
