time,seconds_elapsed,rotationRateX,rotationRateY,rotationRateZ,gravityX,gravityY,gravityZ,accelerationX,accelerationY,accelerationZ,quaternionW,quaternionX,quaternionY,quaternionZ,pitch,roll,yaw
1781552669431496960,0.10136103630065918,-0.08449987322092056,-0.060685813426971436,-0.03986011818051338,-0.0593201145529747,-0.31709906458854675,-0.9465354084968567,-0.001730300486087799,3.668665885925293e-05,0.01248389482498169,-0.5435246051165326,-0.11363282848954596,-0.11755794060967216,-0.8233156900546337,0.3226691306762298,-0.06258892527645307,1.9848056455569185
1781552669441531904,0.11139607429504395,-0.11399944126605988,-0.05257408693432808,-0.026264946907758713,-0.0597565695643425,-0.31619399785995483,-0.9468107223510742,0.00018625706434249878,-0.003050386905670166,0.015597343444824219,-0.5437543752920937,-0.11358387641163353,-0.11701858823583944,-0.8232476025236237,0.32171496626936236,-0.0630299327664357,1.9843819285920423
1781552669451566848,0.12143111228942871,-0.11684422940015793,-0.058937713503837585,-0.010578661225736141,-0.06021498516201973,-0.3150787353515625,-0.9471533894538879,-0.00680161640048027,0.000518798828125,0.02123481035232544,-0.5439387932534453,-0.11347554198063081,-0.11638986846158622,-0.8232298888654141,0.3205396141906503,-0.06348924908928578,1.9840866016370144
1781552669461602048,0.13146615028381348,-0.08714252710342407,-0.05388729274272919,0.0019142271485179663,-0.060753583908081055,-0.3141019344329834,-0.9474433660507202,-0.006247751414775848,0.006240636110305786,0.02848285436630249,-0.5440376400182055,-0.11343017337519919,-0.11580977979705734,-0.823252485089194,0.31951057739721034,-0.0640360382398657,1.9839991302259155
1781552669471636736,0.14150094985961914,-0.07117528468370438,-0.05158006399869919,-0.010060143657028675,-0.06124494969844818,-0.313375324010849,-0.9476523399353027,0.005947094410657883,0.014547199010848999,0.023976802825927734,-0.5441262251152956,-0.11343712075984803,-0.11535096970965661,-0.8232575123440624,0.31874532286197677,-0.064538321953239,1.9839108143174962
1781552669481671936,0.1515359878540039,-0.10172093659639359,-0.0604955293238163,-0.03111296519637108,-0.061699990183115005,-0.3125861585140228,-0.9478834271430969,0.006035931408405304,0.020563453435897827,0.015342533588409424,-0.5442985094629211,-0.11342182456164945,-0.11486417347396258,-0.8232136508473473,0.31791441975896645,-0.06500068446450812,1.9836169884012953
1781552669491706880,0.16157102584838867,-0.1314181238412857,-0.060785144567489624,-0.0351383350789547,-0.06217454373836517,-0.31145766377449036,-0.9482238292694092,0.006251081824302673,0.010096579790115356,0.01472163200378418,-0.5445395285564657,-0.11332398257916222,-0.11421803111594521,-0.8231576677759694,0.31672661966066873,-0.06547575399772418,1.983183414402858
1781552669501741824,0.17160606384277344,-0.149945467710495,-0.05066779628396034,-0.03576178103685379,-0.06259229779243469,-0.3101488947868347,-0.9486252665519714,0.007355481386184692,0.002531707286834717,0.015062034130096436,-0.5448058419300592,-0.11315201471166415,-0.11350769428597313,-0.8231033597160882,0.31534963746862515,-0.06588660678367707,1.9826918081940903
1781552669511777024,0.1816411018371582,-0.2251555323600769,-0.09548919647932053,0.020886054262518883,-0.06297978013753891,-0.3081299066543579,-0.9492573142051697,0.002631276845932007,3.972649574279785e-05,0.006096363067626953,-0.5448184538443651,-0.1127225772880993,-0.11253865878775679,-0.82328695672572,0.31322666067493105,-0.06624927784007116,1.9828613747151624
1781552669521810688,0.19167494773864746,-0.18710535764694214,-0.06352753937244415,-0.08782684803009033,-0.0637885108590126,-0.30612578988075256,-0.9498515725135803,0.0003119558095932007,-0.0029562413692474365,-0.006523489952087402,-0.5451842197837551,-0.11252511751149394,-0.11141053692835898,-0.8232252795188986,0.31112075538050904,-0.0670556059517061,1.9822296813272056
1781552669531845888,0.20170998573303223,-0.06250056624412537,0.0032826527021825314,-0.0775475725531578,-0.06371673941612244,-0.3050523102283478,-0.950201690196991,-0.03212369978427887,0.031035006046295166,-0.023797273635864258,-0.5456065111986066,-0.11223492469642268,-0.11091653777063891,-0.8230517920927937,0.3099933692660584,-0.06695578227429756,1.9812681871030753
1781552669541880832,0.211745023727417,-0.07134892046451569,-0.009896265342831612,-0.1030513346195221,-0.06347598135471344,-0.30449777841567993,-0.9503956437110901,0.002334021031856537,0.02541452646255493,-0.027662217617034912,-0.5460141954059534,-0.11202380653464616,-0.11069256655510493,-0.8228403211412653,0.30941113870609704,-0.06668996511653147,1.980281879387801
1781552669551915776,0.22178006172180176,-0.10279686003923416,-0.026331432163715363,-0.11311595886945724,-0.06332745403051376,-0.3037309944629669,-0.9506508708000183,0.01544538140296936,0.015782415866851807,-0.010530710220336914,-0.5465270158643484,-0.11180316098355267,-0.11033860902427894,-0.822577427722612,0.30860621702878643,-0.066516560831861,1.9790677438009043
1781552669561950976,0.23181509971618652,-0.12464410066604614,-0.04528088867664337,-0.143349751830101,-0.06328797340393066,-0.3027247488498688,-0.9509744048118591,0.014169938862323761,0.015874803066253662,-0.015074729919433594,-0.5471365429851932,-0.1115707103800411,-0.10983971381639204,-0.8222705256226004,0.30755024972237627,-0.06645266421586854,1.9776499202082911
1781552669571985920,0.2418501377105713,-0.14798139035701752,-0.050438232719898224,-0.17459101974964142,-0.0632546916604042,-0.3015346825122833,-0.9513546824455261,0.023291930556297302,0.0327969491481781,-0.026001274585723877,-0.547898327655171,-0.11130628493953133,-0.10924094749140278,-0.8218788206435037,0.30630186142046184,-0.06639135651842856,1.9758745018284085
1781552669582020864,0.25188493728637695,-0.25929486751556396,-0.057549141347408295,-0.057264938950538635,-0.06327848136425018,-0.29980146884918213,-0.9519006609916687,0.02639799565076828,0.03814378380775452,-0.03500723838806152,-0.5485806372201671,-0.11089406865646742,-0.10840738622704033,-0.8215897661645533,0.30448455101623717,-0.06637826273347366,1.9743368327945159
1781552669592055808,0.2619199752807617,-0.30932021141052246,-0.13201259076595306,-0.12891435623168945,-0.06410149484872818,-0.29726094007492065,-0.9526420831680298,0.06063774228096008,0.009846389293670654,-0.027765631675720215,-0.5492230869415489,-0.11057562451393253,-0.10701396179118047,-0.8213861292863406,0.3018226295769763,-0.06718683807268001,1.9730591456630773
1781552669602090752,0.2719550132751465,-0.3911202549934387,-0.13046182692050934,-0.06711943447589874,-0.06504040211439133,-0.29391855001449585,-0.9536150097846985,0.004752926528453827,-0.0023918449878692627,-0.04759037494659424,-0.549906960832461,-0.11007318006590294,-0.10524436766482347,-0.8212246603040358,0.2983239033370946,-0.06809857826859016,1.9717439830691055
1781552669612124928,0.28198909759521484,-0.46981000900268555,-0.2010466605424881,0.0009802565909922123,-0.06654804199934006,-0.289827436208725,-0.9547625184059143,-0.0022691041231155396,0.025194257497787476,-0.05247014760971069,-0.550374632586402,-0.10956160973725626,-0.10302914510726761,-0.8212607379284311,0.29404653932063723,-0.0695885996301489,1.9710705284225685
1781552669622159872,0.2920241355895996,-0.43859750032424927,-0.27509555220603943,0.1751967966556549,-0.0690712034702301,-0.2852802574634552,-0.9559520483016968,0.017481230199337006,0.0303669273853302,-0.06443369388580322,-0.5504102768782879,-0.10929204465919261,-0.10039531222176971,-0.8215987903922048,0.2892988302909028,-0.07212848851349166,1.9715927017337613
1781552669632194816,0.3020589351654053,-0.37422358989715576,-0.2726569175720215,0.3688914477825165,-0.07243173569440842,-0.2812090516090393,-0.9569091200828552,0.009855449199676514,0.043904393911361694,-0.0817413330078125,-0.5496558380753814,-0.10942546741843709,-0.09783403534250519,-0.8223946238177502,0.28505378197273884,-0.07554936327456123,1.974090656644079
1781552669642229760,0.31209397315979004,-0.35306262969970703,-0.2730816900730133,0.48350802063941956,-0.07620403915643692,-0.2774525582790375,-0.9577124118804932,-0.019026070833206177,0.059434980154037476,-0.08040404319763184,-0.5481794569979441,-0.10974911700167524,-0.09538833496116093,-0.8236234336392524,0.2811415474714704,-0.0794015255570647,1.9783474906833627
1781552669652264960,0.3221290111541748,-0.4784466624259949,-0.4001609683036804,0.10986252874135971,-0.08044283837080002,-0.2733210027217865,-0.9585533738136292,0.03228609263896942,0.019185870885849,-0.08859628438949585,-0.5472094790467585,-0.11022972922186292,-0.0925889636971128,-0.8245232646791174,0.2768438215117083,-0.08372489691955712,1.9814163422577826
1781552669662299904,0.33216404914855957,-0.7889187335968018,-0.5503171682357788,-0.020612653344869614,-0.08488554507493973,-0.2673362195491791,-0.959857165813446,0.08366484194993973,-0.09950032830238342,-0.07746583223342896,-0.5477316562522452,-0.11042780987229867,-0.08875310388426491,-0.8245717925484957,0.2706275788192361,-0.08820612878857045,1.9809373259733993
1781552669672334848,0.34219908714294434,-1.1602928638458252,-0.757937490940094,0.046947214752435684,-0.09127645194530487,-0.25781646370887756,-0.9618728160858154,0.14069965481758118,-0.08062347769737244,-0.03956151008605957,-0.548467907977257,-0.11044504685525196,-0.08285824999120761,-0.8246935281345731,0.26076157180727294,-0.09461119871436308,1.9802333854479008
1781552669682370048,0.3522341251373291,-1.3296678066253662,-0.8515713214874268,0.011912000365555286,-0.09919682145118713,-0.24565748870372772,-0.9642677903175354,0.11567632108926773,-0.03720994293689728,-0.0355338454246521,-0.5493626068117267,-0.1103591740006549,-0.0754118995188222,-0.8248239340413904,0.24819790505909967,-0.10251208219674977,1.9792589356197783
1781552669692404736,0.36226892471313477,-1.4946743249893188,-0.8686350584030151,-0.0014027399010956287,-0.1074935644865036,-0.23201894760131836,-0.9667534828186035,0.0532028004527092,0.0008330494165420532,-0.05640929937362671,-0.5503608713540105,-0.11001219301106681,-0.06723513515433162,-0.8249119231894734,0.2341527529178579,-0.11073539431937009,1.9779205453901434
1781552669702438912,0.3723030090332031,-1.6860655546188354,-0.983937680721283,0.037801388651132584,-0.11652975529432297,-0.21657809615135193,-0.9692856669425964,0.08640891313552856,0.03185521066188812,-0.015104532241821289,-0.5515576168430282,-0.10947033408661447,-0.058080995885843846,-0.8248800325421641,0.21830800790436702,-0.11964806396422684,1.9759688383174057
1781552669712473856,0.3823380470275879,-1.895759105682373,-1.0640960931777954,-0.01223061978816986,-0.12663522362709045,-0.19914032518863678,-0.9717544317245483,0.09515634179115295,0.02749420702457428,-0.00250399112701416,-0.5527001828309313,-0.1087973468425708,-0.047811363425173795,-0.8248634749421279,0.20048059378120114,-0.12958580796968772,1.9739609723976297
1781552669722508800,0.39237308502197266,-2.1845638751983643,-1.138108491897583,-0.0679793730378151,-0.13726834952831268,-0.1792968511581421,-0.9741714596748352,0.08576993644237518,0.00398862361907959,-0.010569751262664795,-0.5542147023800703,-0.1076692966689785,-0.036353691082730386,-0.8245797654475676,0.1802716729661534,-0.13998616825211793,1.9707313393294688
1781552669732544000,0.4024081230163574,-2.42431902885437,-1.2499834299087524,-0.13668838143348694,-0.14883314073085785,-0.15681958198547363,-0.9763484597206116,0.11144910752773285,0.022343873977661133,0.0035853981971740723,-0.556045366723759,-0.10617478339585691,-0.023509253250507196,-0.8240071377446355,0.1574695578707011,-0.15127397260058287,1.966317068783227
1781552669742578688,0.4124429225921631,-2.532024621963501,-1.296489953994751,-0.2016197144985199,-0.1611209362745285,-0.13272054493427277,-0.9779700040817261,0.1108890026807785,0.048354700207710266,0.019992709159851074,-0.5581462818375311,-0.10449734960696418,-0.009762703878851673,-0.8230781235366961,0.1331133113401665,-0.16328360897048125,1.9607195060546243
1781552669752613888,0.42247796058654785,-2.57460880279541,-1.293985366821289,-0.29753053188323975,-0.17351651191711426,-0.1080627515912056,-0.9788842797279358,0.08197903633117676,0.0807495191693306,0.01716858148574829,-0.5605289033621232,-0.10266239976600347,0.004276152674397214,-0.8217356299321984,0.10827418181123803,-0.17543715895573633,1.9538631850380945
1781552669762648832,0.4325129985809326,-2.5883564949035645,-1.293915033340454,-0.361095130443573,-0.18590328097343445,-0.08325936645269394,-0.9790341258049011,0.06531307101249695,0.12009408324956894,0.030578315258026123,-0.563129396100077,-0.10071920509535937,0.01840028728053536,-0.8200014950744893,0.08335585944694311,-0.18765034445945028,1.9458963776656126
1781552669772683776,0.4425480365753174,-2.6470234394073486,-1.2773995399475098,-0.45836734771728516,-0.1982145756483078,-0.058330174535512924,-0.9784214496612549,0.052676260471343994,0.14846384525299072,0.03248339891433716,-0.5659528999704718,-0.09862684755841,0.03258846324799432,-0.81786807084166,0.05836330157751187,-0.19988093275133328,1.936793024389288
1781552669782718976,0.45258307456970215,-2.699718713760376,-1.2515949010849,-0.5537277460098267,-0.21038269996643066,-0.03310015797615051,-0.9770585894584656,0.034418344497680664,0.151737242937088,0.035148799419403076,-0.5690898558162953,-0.09628231222328212,0.046908608517162546,-0.8152705877143216,0.033106203875234184,-0.21208439182899505,1.926300982309847
1781552669792753920,0.4626181125640869,-2.788651943206787,-1.203521728515625,-0.6236159801483154,-0.22226668894290924,-0.007496221456676722,-0.9749571084976196,0.007911235094070435,0.12366138398647308,0.02404463291168213,-0.5724812907123638,-0.0935851733392884,0.061345509081983884,-0.8122460917161118,0.007496291865341917,-0.2241451113017358,1.9145391014759574
1781552669802787840,0.47265195846557617,-2.829158067703247,-1.1513171195983887,-0.6875531673431396,-0.23378434777259827,0.018554281443357468,-0.9721114039421082,-0.022899001836776733,0.08050578087568283,0.017430007457733154,-0.5760423257912904,-0.09046514495015978,0.07589693520788719,-0.808845485752189,-0.018555346602433388,-0.2360094731104023,1.9016873262191507
1781552669812822784,0.48268699645996094,-2.8557486534118652,-1.09934401512146,-0.732423722743988,-0.24496817588806152,0.04445934295654297,-0.9685112237930298,-0.03652596473693848,0.02997303009033203,0.014058709144592285,-0.5797131129291153,-0.08709656508206881,0.09032488326117012,-0.8051014318203346,-0.044474003626496464,-0.24773696264475958,1.8879428030840544
1781552669822857984,0.4927220344543457,-2.9533402919769287,-1.0656603574752808,-0.7796476483345032,-0.2559385597705841,0.07071306556463242,-0.9641032814979553,-0.03815937042236328,0.0020408406853675842,0.006782114505767822,-0.5834554835383348,-0.08337326158110318,0.10486783303624468,-0.8010189428718542,-0.07077213276148499,-0.2594829519411896,1.873299500208484
1781552669832892928,0.5027570724487305,-3.0083048343658447,-1.0453262329101562,-0.8397970199584961,-0.26683375239372253,0.09732571989297867,-0.9588156342506409,-0.035503894090652466,-0.008000768721103668,-0.006714761257171631,-0.5873155727068886,-0.07932423490480979,0.11958193894190332,-0.7965351501024716,-0.09748002677781108,-0.27142710430410005,1.857575106237181
1781552669842927872,0.5127921104431152,-3.0649003982543945,-1.0201492309570312,-0.9226221442222595,-0.27773281931877136,0.12401134520769119,-0.9526204466819763,-0.03353121876716614,-0.0036042332649230957,-0.01802164316177368,-0.5913269832492297,-0.0750397521591649,0.13438311725477434,-0.7916076350862306,-0.12433142070695552,-0.28368302806534795,1.840665338018702
1781552669852963072,0.5228271484375,-3.010972023010254,-0.9863839745521545,-1.001770257949829,-0.2886424660682678,0.15029510855674744,-0.9455670118331909,-0.04261058568954468,0.03479401767253876,-0.026097416877746582,-0.5955424426997472,-0.0706344301708802,0.14908818237947324,-0.786201496894634,-0.15086675868035815,-0.2962742048280622,1.8224777062808626
1781552669862997760,0.5328619480133057,-2.8565263748168945,-0.9320405721664429,-1.038393497467041,-0.29938164353370667,0.17502497136592865,-0.9379429221153259,-0.04952585697174072,0.07280828058719635,-0.03724628686904907,-0.599821972447712,-0.06640260648159739,0.16315403674351261,-0.7805030732944137,-0.1759311289836597,-0.30896765550766936,1.8036453333942206
1781552669873032704,0.5428969860076904,-2.726839303970337,-0.8670387864112854,-1.0691359043121338,-0.3097577691078186,0.19795532524585724,-0.9299805760383606,-0.052623212337493896,0.10436706244945526,-0.032116591930389404,-0.6040720173487584,-0.06237136867096289,0.17640730518469008,-0.7746530602047459,-0.1992715213971336,-0.321522396753939,1.7845742945328789
1781552669883067904,0.5529320240020752,-2.635481595993042,-0.8293638229370117,-1.0939733982086182,-0.3198623061180115,0.21950691938400269,-0.9216858744621277,-0.05312350392341614,0.12093193829059601,-0.011831581592559814,-0.6083024944514646,-0.05845550639094242,0.18905031878229872,-0.7686423779300235,-0.2213090276127933,-0.3340358624276638,1.7651857063072744
1781552669893102848,0.56296706199646,-2.413891077041626,-0.767200231552124,-1.1734397411346436,-0.3297758400440216,0.23914207518100739,-0.9132682681083679,-0.045544564723968506,0.11597572267055511,-0.02389603853225708,-0.6125930175985406,-0.05485282296311658,0.2008905909139001,-0.7624722149598835,-0.24148219280317526,-0.3465238805534938,1.7454711949797876
1781552669903137024,0.5730011463165283,-2.2758829593658447,-0.7407539486885071,-1.217287540435791,-0.3395898640155792,0.25639137625694275,-0.9049542546272278,-0.037149637937545776,0.10446372628211975,-0.016462981700897217,-0.6170051160597727,-0.05175470022233912,0.2117648034158703,-0.7561625100531859,-0.2592869279918304,-0.35899543331519634,1.7254831878880144
1781552669913171712,0.583035945892334,-2.342737913131714,-0.6945738196372986,-1.2865790128707886,-0.3493765592575073,0.2729526460170746,-0.8963441848754883,-0.011982083320617676,0.12572899460792542,0.02781391143798828,-0.6215342538561536,-0.04863863397982759,0.2224009791711475,-0.7495780972583512,-0.2764608976891808,-0.3716646487784545,1.7047332202465748
1781552669923206912,0.5930709838867188,-2.2570550441741943,-0.6602802872657776,-1.360735297203064,-0.3591669797897339,0.2889247238636017,-0.8874241709709167,-0.0014897584915161133,0.12042281031608582,0.025150001049041748,-0.6262580814941255,-0.04545349141039249,0.23285598156459503,-0.7426391776874989,-0.2931034619647456,-0.3845771012758862,1.682962988057589
1781552669933241856,0.6031060218811035,-2.159900188446045,-0.5624223351478577,-1.4509475231170654,-0.36872634291648865,0.3034324049949646,-0.878618061542511,-0.0057395994663238525,0.0847664475440979,-0.007154643535614014,-0.631233922521564,-0.04238991734061674,0.2426809943581547,-0.7354269885787873,-0.30829283077541064,-0.39734423787552375,1.660436446791656
1781552669943276800,0.6131410598754883,-1.904473066329956,-0.5061262845993042,-1.5100352764129639,-0.3780233860015869,0.3158034682273865,-0.8702680468559265,-0.011838644742965698,0.11022192239761353,-0.005967915058135986,-0.6364261155686185,-0.039697246995533335,0.2515752380082831,-0.7280768327078587,-0.3213033462877518,-0.40978516754530037,1.6376059706429564
1781552669953312000,0.623176097869873,-1.5345062017440796,-0.4262133240699768,-1.565622091293335,-0.38705873489379883,0.32486915588378906,-0.8629285097122192,-0.002467632293701172,0.15320396423339844,0.006635785102844238,-0.6417509360882317,-0.03785703720500249,0.2590416853005115,-0.7208467795833448,-0.3308733715017985,-0.42163988347312964,1.6153323968403877
1781552669963346944,0.6332111358642578,-1.1580501794815063,-0.3338617980480194,-1.5995361804962158,-0.39553216099739075,0.33028241991996765,-0.8570110201835632,0.002557307481765747,0.19581010937690735,0.029557406902313232,-0.6472028457239322,-0.036943968550889245,0.26482002186444514,-0.7138865718050901,-0.3366027832393492,-0.43239682088122633,1.5941040868769503
1781552669973381632,0.6432459354400635,-0.8096820712089539,-0.25126802921295166,-1.6144559383392334,-0.403388649225235,0.332232266664505,-0.8525839447975159,0.008414894342422485,0.205426424741745,0.05334383249282837,-0.6527274478460158,-0.03694831887703947,0.26896627771307546,-0.707275731357722,-0.3386693044318087,-0.44192685479480365,1.5741978225455564
1781552669983416832,0.6532809734344482,-0.6421516537666321,-0.15665654838085175,-1.6101232767105103,-0.4105024039745331,0.331707626581192,-0.8493867516517639,0.006358116865158081,0.14938673377037048,0.08203750848770142,-0.6582799520991207,-0.03752269058889645,0.27184310516531535,-0.7009714417990816,-0.3381131223333582,-0.4501926446903636,1.5554655991472537
1781552669993451776,0.663316011428833,-0.6678375601768494,-0.08406756073236465,-1.6078002452850342,-0.4168589413166046,0.3305492401123047,-0.846738338470459,0.006580650806427002,0.06407356262207031,0.13577032089233398,-0.6638672539587739,-0.03799320928096094,0.274203105445205,-0.6947297880601419,-0.33688546353147636,-0.45747784479405146,1.5370810466320313
1781552670003485952,0.6733500957489014,-0.7693620920181274,-0.02892575040459633,-1.6305828094482422,-0.4226831793785095,0.329815149307251,-0.844133198261261,0.02313181757926941,-0.013622552156448364,0.15348994731903076,-0.669540864170653,-0.03802096067980056,0.276564272310301,-0.6883180053592575,-0.33610777578025836,-0.4642317797344513,1.5182901399644768
1781552670013520896,0.6833851337432861,-0.8247606158256531,-0.012636260129511356,-1.6310604810714722,-0.4282444715499878,0.3296266198158264,-0.8413993716239929,0.05184069275856018,-0.051947206258773804,0.1479485034942627,-0.675280821442273,-0.037654848607514564,0.2790742139818819,-0.681685725218089,-0.335908066633904,-0.47079540240031426,1.4989491706455023
1781552670023555840,0.6934199333190918,-0.9018332958221436,-0.007945899851620197,-1.5821353197097778,-0.43363988399505615,0.3299046754837036,-0.8385220766067505,0.07795757055282593,-0.0614568293094635,0.14462870359420776,-0.6809011765724492,-0.03702839240117249,0.28172299881006035,-0.6750070534835405,-0.3362025905167762,-0.4772715853279731,1.4795814775120208
1781552670033590784,0.7034549713134766,-0.9907634258270264,0.009527898393571377,-1.5234073400497437,-0.4387938976287842,0.3311128318309784,-0.8353586792945862,0.07766416668891907,-0.0667085349559784,0.14122116565704346,-0.6863022506058415,-0.03596942938462687,0.2846521521537971,-0.6683326112164227,-0.33748268928288455,-0.48366337117138797,1.4602742701970803
1781552670043625728,0.7134900093078613,-1.0150583982467651,0.04076544567942619,-1.45786452293396,-0.4435531497001648,0.33288511633872986,-0.8321346640586853,0.05100557208061218,-0.08540281653404236,0.1165890097618103,-0.691494318862396,-0.034566083129269135,0.28764190125579064,-0.6617422961659438,-0.33936155180801164,-0.4897215395099163,1.4412627485247889
1781552670053660928,0.7235250473022461,-1.0777479410171509,0.06378314644098282,-1.3631504774093628,-0.4478518068790436,0.3352995216846466,-0.8288564682006836,0.03450646996498108,-0.1231870949268341,0.0912618637084961,-0.6964102873520108,-0.032795942113232286,0.290682309356651,-0.6553174800864949,-0.34192315111251526,-0.4953848105405842,1.4227503999445243
1781552670063695872,0.7335600852966309,-1.090815782546997,0.053474314510822296,-1.292646050453186,-0.45184996724128723,0.3383292257785797,-0.8254483342170715,0.03221800923347473,-0.1589163839817047,0.08797580003738403,-0.701006278114639,-0.03074268769313335,0.2938208915093195,-0.6490873657262263,-0.34514084830192604,-0.5008444270407312,1.4048105807805256
1781552670073731072,0.7435951232910156,-1.138094425201416,0.04550880193710327,-1.2421993017196655,-0.4557778835296631,0.34175387024879456,-0.8218703269958496,0.037793874740600586,-0.18680086731910706,0.07682943344116211,-0.7053539711825398,-0.028538936636192305,0.29706963192420494,-0.6429704094604978,-0.34878249345968665,-0.5063387913143973,1.3872271006471888
1781552670083765760,0.7536299228668213,-1.1464431285858154,0.03989991918206215,-1.172526478767395,-0.4595972001552582,0.3456461429595947,-0.8181070685386658,0.04089602828025818,-0.18310952186584473,0.07913917303085327,-0.7094519638294473,-0.026142889921948787,0.30043802703001576,-0.6369706023466715,-0.3529272710010575,-0.5118432816930851,1.3699854693461586
1781552670093800704,0.763664960861206,-1.15782630443573,0.06415092945098877,-1.0964468717575073,-0.46312063932418823,0.349822461605072,-0.8143362402915955,0.03750723600387573,-0.17248481512069702,0.07802337408065796,-0.7132865975346463,-0.023584174347236076,0.3037690950378041,-0.6311817425580185,-0.357381585373187,-0.517093848902408,1.3533487960699864
1781552670103835904,0.7736999988555908,-1.1284446716308594,0.09113754332065582,-1.0171986818313599,-0.4662174582481384,0.3542519509792328,-0.8106459379196167,0.030685871839523315,-0.1623574197292328,0.0748213529586792,-0.7168649625786688,-0.02084025009064886,0.30698975863298067,-0.6256417983084507,-0.36211403055464436,-0.5219233194051806,1.3374091780266522
1781552670113869824,0.7837340831756592,-1.1044732332229614,0.09440910071134567,-0.9508865475654602,-0.4689676761627197,0.35869377851486206,-0.8070985674858093,0.03418374061584473,-0.17056816816329956,0.055465877056121826,-0.7201956159984496,-0.018043859272020662,0.31004054891026256,-0.6203769309990913,-0.3668681905556849,-0.5263719640135168,1.3222630040259982
1781552670123905024,0.793769121170044,-1.0297417640686035,0.06466292589902878,-0.8890817761421204,-0.4716451168060303,0.3630332946777344,-0.8035905361175537,0.03869223594665527,-0.16277694702148438,0.05616927146911621,-0.7232551693542258,-0.015345526994777816,0.3130004177749469,-0.615383783889413,-0.37152123227121936,-0.5307479782253569,1.3079154678808824
1781552670133939968,0.8038041591644287,-0.8814222812652588,0.04418906942009926,-0.8588234186172485,-0.47441330552101135,0.3665923476219177,-0.8003387451171875,0.04258957505226135,-0.12950128316879272,0.0126190185546875,-0.7260917894146347,-0.013079027314918473,0.3156890493236629,-0.6107045696550957,-0.3753437197926418,-0.5350831363370008,1.2945727342391817
1781552670143974656,0.8138389587402344,-0.6968745589256287,0.039182327687740326,-0.805353581905365,-0.4771408438682556,0.36894097924232483,-0.7976334691047668,0.035887181758880615,-0.07977166771888733,-0.041523635387420654,-0.7287507807160273,-0.011392362557065775,0.31788909600682475,-0.6064148907020688,-0.37786935745488404,-0.5390916942443551,1.2824988356509237
1781552670154009856,0.8238739967346191,-0.5424069762229919,0.024589670822024345,-0.7511510252952576,-0.4797666370868683,0.37016263604164124,-0.795489490032196,0.027190953493118286,-0.048293739557266235,-0.08079218864440918,-0.7311974900964119,-0.010266125923888583,0.319608896789092,-0.6025736051905213,-0.37918409009638754,-0.5427021646403366,1.2718431557950791
1781552670164044800,0.8339090347290039,-0.42221319675445557,0.009317774325609207,-0.7049715518951416,-0.48234573006629944,0.3704507648944855,-0.7937939763069153,0.015197932720184326,-0.059629231691360474,-0.10256838798522949,-0.7334392468760276,-0.009637421423071382,0.3209519337849939,-0.5991359401506148,-0.3794942511908841,-0.5460226182315605,1.2624552941671032
1781552670174080000,0.8439440727233887,-0.4178847670555115,-0.00823418702930212,-0.6586714386940002,-0.4848451018333435,0.3704405128955841,-0.7922745943069458,0.011242836713790894,-0.0881071388721466,-0.1074446439743042,-0.7355030648432137,-0.00920052754715191,0.32214601219624034,-0.5959635198993412,-0.3794832261227294,-0.5491716033270756,1.2538586505544056
1781552670184114944,0.8539791107177734,-0.4687524735927582,-0.07066453993320465,-0.6188793182373047,-0.48749586939811707,0.3708949685096741,-0.7904332876205444,0.024574726819992065,-0.08416706323623657,-0.08450567722320557,-0.7373702510559942,-0.008678153099722528,0.3235862370891613,-0.5928759556541562,-0.37997254764487387,-0.5526411890937883,1.2454423328562834
1781552670194149888,0.8640141487121582,-0.4442974627017975,-0.12704192101955414,-0.5737330913543701,-0.4905470609664917,0.37161871790885925,-0.7882024645805359,0.05370315909385681,-0.05917975306510925,-0.07362920045852661,-0.7389879770316963,-0.008253301758035922,0.32531624401622977,-0.5899135237691051,-0.3807520020242304,-0.5566998963314318,1.2373432470916397
1781552670204184832,0.8740489482879639,-0.3322311341762543,-0.1197027936577797,-0.5299009680747986,-0.493557870388031,0.3720257878303528,-0.7861281037330627,0.069363534450531,-0.04126101732254028,-0.08258521556854248,-0.7404417842294334,-0.00803768338203887,0.32691181303843236,-0.5872052526070957,-0.38119051369551604,-0.560634568093435,1.229995615384939
1781552670214219776,0.8840839862823486,-0.25316187739372253,-0.15394264459609985,-0.4978170096874237,-0.49659574031829834,0.3717099130153656,-0.7843623757362366,0.05731049180030823,-0.02049839496612549,-0.08291661739349365,-0.7417283565067193,-0.008245953211520317,0.32825418737622464,-0.5848248680191143,-0.38085022481638553,-0.5644173385371097,1.2236673509580847
1781552670224253952,0.894118070602417,-0.20532271265983582,-0.10702414810657501,-0.46364814043045044,-0.4994265139102936,0.3711267411708832,-0.7828397750854492,0.03209558129310608,-0.0004144608974456787,-0.06470966339111328,-0.742924695601322,-0.008566331597875839,0.3294036063320499,-0.58265150130002,-0.38022211750850377,-0.5678701367124112,1.2179530178110174
1781552670234288896,0.9041531085968018,-0.19239120185375214,-0.07565837353467941,-0.4424650967121124,-0.5018067359924316,0.37035244703292847,-0.7816834449768066,0.01741647720336914,-0.04004544019699097,-0.05974721908569336,-0.7441072287967917,-0.008861577415315871,0.3302722213233818,-0.580642800917026,-0.37938842034361403,-0.570699882753102,1.2127207869036196
1781552670244324096,0.9141881465911865,-0.2780030369758606,-0.04337126761674881,-0.40325990319252014,-0.5038598775863647,0.3700403571128845,-0.7805096507072449,0.025374770164489746,-0.09196418523788452,-0.03060173988342285,-0.7452479094079231,-0.008872391703548428,0.3311592429885392,-0.5786711599088127,-0.3790524466833651,-0.5732422274754808,1.2075121834496017
1781552670254358784,0.9242229461669922,-0.4639587998390198,-0.04433906078338623,-0.37529003620147705,-0.505600094795227,0.37094563245773315,-0.7789530754089355,0.05041515827178955,-0.10467979311943054,-0.0022358298301696777,-0.7463195878199087,-0.00825880262929097,0.3323480955190598,-0.5766138891474297,-0.38002710794613687,-0.5757256786073404,1.2018579915417342
1781552670264393728,0.934257984161377,-0.5584298968315125,-0.05355439707636833,-0.3155848979949951,-0.507327675819397,0.37320777773857117,-0.7767461538314819,0.06994974613189697,-0.10135719180107117,0.021466612815856934,-0.7472535310623311,-0.007063595903120378,0.33403145897377917,-0.5744434481208333,-0.38246421709567374,-0.5785827271218302,1.195656013503601
1781552670274428928,0.9442930221557617,-0.5605143308639526,-0.015403151512145996,-0.24933770298957825,-0.508621096611023,0.37620264291763306,-0.7744521498680115,0.07632434368133545,-0.09293848276138306,0.026924073696136475,-0.7480313904192233,-0.005487959094638562,0.33577343991612757,-0.5724291108105773,-0.3856944398947686,-0.5811054241768713,1.1897293115099137
1781552670284463872,0.9543280601501465,-0.5366867780685425,0.02705243043601513,-0.204789936542511,-0.509466290473938,0.3792897164821625,-0.7723881006240845,0.06479471921920776,-0.06402787566184998,0.026248574256896973,-0.7487061985034191,-0.003806516007098745,0.3373299163571924,-0.5706426120784615,-0.3890285413351393,-0.5830935545483052,1.1843867082792245
1781552670294498816,0.9643630981445312,-0.5142866373062134,0.07950618118047714,-0.1554330438375473,-0.5097112059593201,0.38242578506469727,-0.7706782221794128,0.048987388610839844,-0.04331448674201965,0.03373980522155762,-0.7493239328494149,-0.001980014009486496,0.33861033520009814,-0.5690805586491863,-0.39242021004058836,-0.58433371845779,1.1796282979105197
1781552670304534016,0.974398136138916,-0.5187186598777771,0.10633247345685959,-0.11436071991920471,-0.5095109343528748,0.38571953773498535,-0.7691677808761597,0.041417062282562256,-0.04380059242248535,0.04548919200897217,-0.7498676857596854,-5.847157304943004e-06,0.33972947853992463,-0.5676992040637143,-0.39598758648904026,-0.5850557948359693,1.1753207003323003
1781552670314568704,0.9844329357147217,-0.5241949558258057,0.1551266312599182,-0.06187114492058754,-0.5088577270507812,0.3892863988876343,-0.7678020000457764,0.04390716552734375,-0.05749928951263428,0.05753588676452637,-0.7503385111917515,0.0021732044891554767,0.34072611656556284,-0.5664742354532898,-0.3998567657162904,-0.5852834122565891,1.1713800725703456
1781552670324603904,0.9944679737091064,-0.501755952835083,0.21123197674751282,-0.0032222114969044924,-0.5075801610946655,0.3930869996547699,-0.7667104601860046,0.0486111044883728,-0.059163689613342285,0.057390451431274414,-0.7507341335633151,0.004575614680679722,0.3415023011761573,-0.5654674133520882,-0.40398643274524904,-0.5847810191663774,1.1679836333872895
1781552670334637824,1.0045020580291748,-0.3844703435897827,0.3064333498477936,0.08698491007089615,-0.5054116249084473,0.3968214690685272,-0.7662191390991211,0.04932647943496704,-0.05041646957397461,0.05342012643814087,-0.7510561779077052,0.007115484472315338,0.3418183750522923,-0.5648221837910814,-0.408051387520683,-0.5831065994497615,1.1655801188741828
1781552670344673024,1.0145370960235596,0.23535402119159698,0.4637654423713684,0.29772138595581055,-0.5017661452293396,0.3986010253429413,-0.7676900625228882,0.0654258131980896,-0.036891430616378784,-0.009867310523986816,-0.7511423856739962,0.008897701670241013,0.34069899643897167,-0.5653585121960127,-0.40999095998923457,-0.5789053878224981,1.1667251518419137
1781552670354707968,1.0245721340179443,0.6943109631538391,0.4641270935535431,0.365416020154953,-0.4966943860054016,0.39638185501098633,-0.7721244096755981,0.10173588991165161,0.021495342254638672,-0.15788352489471436,-0.7509970874235904,0.008917798883143457,0.33742889406078014,-0.5675082579049013,-0.4075725051466182,-0.5716386267425411,1.1729355088285192
1781552670364742656,1.03460693359375,0.8051964640617371,0.2810339629650116,0.29640260338783264,-0.4924682676792145,0.39226311445236206,-0.776919960975647,0.07413333654403687,0.13868167996406555,-0.13065749406814575,-0.7507181384117979,0.007754878160804971,0.33388602993095307,-0.5699843916158761,-0.4030905974014163,-0.564954187147718,1.1803286566429276
1781552670374777856,1.0446419715881348,1.1866692304611206,0.17446571588516235,0.24548907577991486,-0.4896545112133026,0.3858594596385956,-0.7818893194198608,0.04327389597892761,0.22369864583015442,-0.21695101261138916,-0.7503376513271687,0.005118123821681368,0.33019559673507576,-0.5726587829471833,-0.3961392461405931,-0.5594942853382289,1.1886057370580654
1781552670384812800,1.0546770095825195,1.1511220932006836,0.09972783178091049,0.16292361915111542,-0.48778435587882996,0.37739506363868713,-0.7871717810630798,0.025641411542892456,0.21429499983787537,-0.38506942987442017,-0.7499792620261311,0.001317078561773822,0.32620909244205704,-0.5754277191911638,-0.3869817396719761,-0.554755119447476,1.197449665003782
1781552670394847744,1.0647120475769043,0.9044485092163086,0.004999059718102217,0.059176184237003326,-0.48693162202835083,0.3698521852493286,-0.7912691831588745,0.007408946752548218,0.159963458776474,-0.3639279007911682,-0.7497583457575037,-0.0021768482018711915,0.3230490117325606,-0.577491964148824,-0.37884993148527346,-0.5516519767255146,1.204230717726765
1781552670404882944,1.074747085571289,0.5791548490524292,-0.128470316529274,0.02531941793859005,-0.48718419671058655,0.3640156686306,-0.7938162088394165,0.02758944034576416,0.06623637676239014,-0.3052438497543335,-0.7495493500121423,-0.0051096702118988415,0.32103862416119716,-0.5788642783574014,-0.3725757619429639,-0.550449746458203,1.208874771524535
1781552670414917888,1.0847821235656738,0.22783751785755157,-0.2826988995075226,0.0003794474760070443,-0.4888259768486023,0.3609936237335205,-0.7941868901252747,0.0682174563407898,-0.007691621780395508,-0.19761914014816284,-0.7491720078933223,-0.0071533571310525845,0.3207107666061184,-0.5795125363098064,-0.3693331506305304,-0.5517422866988981,1.2111305082717043
1781552670424952832,1.0948169231414795,0.09183600544929504,-0.38119643926620483,0.010864312760531902,-0.4914884865283966,0.35977649688720703,-0.7930951714515686,0.0843687355518341,-0.06013968586921692,-0.0650896430015564,-0.7486215937923526,-0.008703012804811023,0.3215224433304318,-0.5797527430154159,-0.36802835344850077,-0.5547857515373837,1.2120138131500156
1781552670434987776,1.1048519611358643,0.018904808908700943,-0.456754595041275,0.06729482859373093,-0.4947502613067627,0.35953009128570557,-0.7911764979362488,0.09741142392158508,-0.06769052147865295,0.020088911056518555,-0.7478337286862214,-0.010081533229441213,0.32297075059154795,-0.5799421519577008,-0.3677642542927976,-0.5588400763437168,1.2126139951502168
1781552670445021952,1.1148860454559326,-0.01860181987285614,-0.45997196435928345,0.1597462147474289,-0.4979880452156067,0.3601137697696686,-0.7888763546943665,0.11291727423667908,-0.03597134351730347,0.06916511058807373,-0.746743269758102,-0.011234759084188398,0.32470848114988105,-0.5803555512281731,-0.36838985073563696,-0.563090006474233,1.213677732036734
1781552670455056896,1.1249210834503174,-0.010852821171283722,-0.4587246775627136,0.16956394910812378,-0.5009488463401794,0.3611392676830292,-0.7865294814109802,0.10917943716049194,-0.011896103620529175,0.05975341796875,-0.7455072994249076,-0.01219458113266279,0.32647593718360973,-0.58093342745663,-0.36948932851624083,-0.56711832781248,1.215106442115766
1781552670465091840,1.1349561214447021,0.028714029118418694,-0.4252716302871704,0.16623367369174957,-0.5039154291152954,0.3618447184562683,-0.7843071222305298,0.07468569278717041,0.007997781038284302,0.03136223554611206,-0.7442999870378985,-0.013292698533562687,0.3281306890407804,-0.5815247211300142,-0.37024592559511554,-0.5710830007546487,1.216634140157795
1781552670475127040,1.144991159439087,0.07416567206382751,-0.39272329211235046,0.19179388880729675,-0.5064777731895447,0.3623819947242737,-0.782406210899353,0.05040788650512695,0.04394426941871643,0.009045064449310303,-0.7430927832576903,-0.014370305005652203,0.3295305488773856,-0.5822509327356501,-0.3708223392851041,-0.5744984494628229,1.2185524223870847
1781552670485161728,1.1550259590148926,0.07999106496572495,-0.3193771541118622,0.25033947825431824,-0.5084298253059387,0.3628973364830017,-0.7808998227119446,0.02045375108718872,0.07435852289199829,-0.015425801277160645,-0.7418549070289627,-0.01532364887128072,0.3306285877103231,-0.5831818682668561,-0.37137532938171175,-0.5771354732158617,1.2210178818644293
1781552670495196928,1.1650609970092773,0.07854736596345901,-0.30632448196411133,0.24724836647510529,-0.5099484324455261,0.3635846674442291,-0.7795888781547546,-0.008590996265411377,0.07093986868858337,-0.02194005250930786,-0.7405817920545531,-0.01610856022227678,0.3315811821315915,-0.5842371157534072,-0.3721130249728774,-0.5792694387917677,1.2237832845449472
1781552670505231872,1.175096035003662,0.11211305111646652,-0.23163798451423645,0.24623049795627594,-0.5111497044563293,0.3640872538089752,-0.7785668969154358,-0.03955519199371338,0.04318505525588989,-0.023007750511169434,-0.7394067749606493,-0.0168454458677164,0.33231429389701733,-0.585287074284326,-0.37265259963983377,-0.5809495367237582,1.2265651187398439
1781552670515266816,1.1851310729980469,0.1614968329668045,-0.16474804282188416,0.2412426620721817,-0.5117794871330261,0.3643244206905365,-0.7780420780181885,-0.05944854021072388,0.0172368586063385,-0.03129935264587402,-0.7383429778240183,-0.01749878871156359,0.3326751510813579,-0.5864048535480682,-0.3729072739980646,-0.5818241019836877,1.229567000137255
1781552670525302016,1.1951661109924316,0.17250262200832367,-0.07869543880224228,0.2097635716199875,-0.5118616223335266,0.36417365074157715,-0.7780585885047913,-0.07865345478057861,-0.008064061403274536,-0.019945502281188965,-0.7374643881796433,-0.018088274404181735,0.33263120487936904,-0.5875164017495556,-0.3727453820793813,-0.5818880742577887,1.2326092552985157
1781552670535336960,1.2052011489868164,0.1630750298500061,0.018337368965148926,0.18274900317192078,-0.511507511138916,0.36380070447921753,-0.7784658670425415,-0.09420537948608398,-0.03779670596122742,-0.007407486438751221,-0.7368234981293101,-0.01853376276325134,0.3323004166861722,-0.588492998471189,-0.37234496786968063,-0.5813301273975097,1.2353141447939218
1781552670545371648,1.215235948562622,0.14512744545936584,0.055754780769348145,0.16582487523555756,-0.5106083750724792,0.3634839951992035,-0.7792037725448608,-0.08916884660720825,-0.060215532779693604,-0.00607454776763916,-0.7363438411095194,-0.018719921555283684,0.3317343458599572,-0.5894062274880163,-0.37200495767210445,-0.5800885594067262,1.2378208119366954
1781552670555406848,1.2252709865570068,0.11753151565790176,0.10555869340896606,0.15921729803085327,-0.5093613266944885,0.36327365040779114,-0.7801174521446228,-0.0865706205368042,-0.07411962747573853,-0.007358074188232422,-0.7360014830210692,-0.018687335073551952,0.33104691796393726,-0.5902206606286614,-0.3717791925263362,-0.5784315574868617,1.2400298154352398
1781552670565440768,1.2353050708770752,0.035878729075193405,0.12622295320034027,0.16364453732967377,-0.507961630821228,0.36334729194641113,-0.7809953689575195,-0.08545267581939697,-0.08865857124328613,-0.013468742370605469,-0.735689886777177,-0.018464138761820494,0.33039582443813664,-0.5909806152671344,-0.37185824033318476,-0.5766583925512777,1.24203722273541
1781552670575475968,1.24534010887146,-0.1354229897260666,0.27643269300460815,0.19518889486789703,-0.5056988596916199,0.36470192670822144,-0.7818319201469421,-0.08199340105056763,-0.11113137006759644,-0.012052297592163086,-0.7355120565693586,-0.01734524377222281,0.32982293774081534,-0.5915555997329525,-0.3733126749867063,-0.574131337755141,1.2432951647933288
1781552670585510912,1.2553751468658447,-0.25377145409584045,0.304869681596756,0.25662562251091003,-0.5025420784950256,0.36736592650413513,-0.7826197743415833,-0.056326329708099365,-0.14387044310569763,-0.004367530345916748,-0.7353428141616205,-0.01537884581057473,0.32932293657763934,-0.5920987081591226,-0.3761753232723496,-0.5708213985026495,1.244226093999788
1781552670595545856,1.2654099464416504,-0.35674577951431274,0.27614161372184753,0.28664717078208923,-0.4992472231388092,0.3711671233177185,-0.7829349637031555,-0.016225188970565796,-0.130001962184906,0.0023105740547180176,-0.7350314409344504,-0.012924459481584171,0.3291891127870621,-0.5926181596819577,-0.38026561573179474,-0.5676522169613725,1.2449165631934764
1781552670605580800,1.2754449844360352,-0.4050230383872986,0.24427050352096558,0.30256515741348267,-0.49609798192977905,0.3756764233112335,-0.7827860713005066,0.0035290122032165527,-0.07790115475654602,0.011454343795776367,-0.7346012625537157,-0.010241103115209689,0.32939652746813486,-0.5930886250557447,-0.3851265419181117,-0.564873361067286,1.2453837898743796
1781552670615615744,1.28548002243042,-0.40654635429382324,0.23760314285755157,0.3014053404331207,-0.4930669665336609,0.38038769364356995,-0.7824258208274841,0.008005291223526001,-0.032288938760757446,0.005494058132171631,-0.7341040220203233,-0.007527291808120697,0.32974296727969377,-0.5935521814475789,-0.3902154573035878,-0.5623136214819333,1.2458272807113349
1781552670625650944,1.2955150604248047,-0.3826085329055786,0.2334938943386078,0.29356685280799866,-0.49006614089012146,0.3849761188030243,-0.7820668816566467,0.006225168704986572,-0.002255171537399292,0.011543810367584229,-0.7336235927383693,-0.004864682073414746,0.3300649947957827,-0.5939948270542049,-0.3951819351101548,-0.5597701922061538,1.2462600288939432
1781552670635685888,1.3055500984191895,-0.3187893331050873,0.21964359283447266,0.26817786693573,-0.4871945381164551,0.3891315460205078,-0.7818043828010559,0.013973712921142578,0.029615402221679688,0.024434387683868408,-0.7331589582354676,-0.0024252666929499415,0.33029065554480225,-0.5944578774980278,-0.3996886510890079,-0.5572799695025907,1.2468427830438624
1781552670645720832,1.3155851364135742,-0.24662061035633087,0.16697345674037933,0.24187995493412018,-0.48469147086143494,0.3925890028476715,-0.7816316485404968,0.022884219884872437,0.06580027937889099,0.019272029399871826,-0.7327171423147962,-0.0003932818971797783,0.33043005161054484,-0.5949297332130363,-0.4034449084271405,-0.555069517997618,1.247580901830802
1781552670655755776,1.3256199359893799,-0.17565135657787323,0.1187736913561821,0.2147841602563858,-0.4826495349407196,0.39537447690963745,-0.7814911603927612,0.027556151151657104,0.08005887269973755,0.01624763011932373,-0.7322600527690297,0.0011963679958697277,0.3305343872968549,-0.5954332980964568,-0.4064754990766207,-0.5532608085278025,1.2485247456321598
1781552670665790720,1.3356549739837646,-0.09158627688884735,0.09730595350265503,0.1862931251525879,-0.48097795248031616,0.39738407731056213,-0.7815024256706238,0.022573411464691162,0.06559810042381287,0.016289472579956055,-0.7318467840334925,0.0023504980013495363,0.33051966334476185,-0.5959458960098811,-0.40866441786679475,-0.551704522374832,1.2496214761068183
1781552670675825920,1.3456900119781494,-0.023103628307580948,0.06182652339339256,0.1465425193309784,-0.4797237515449524,0.39863598346710205,-0.7816357612609863,0.02238735556602478,0.05339038372039795,0.017261981964111328,-0.7314724499568748,0.003061568341945205,0.3304129731424027,-0.596461267748356,-0.4100290688608937,-0.550463658209457,1.2508454392138113
1781552670685859840,1.3557240962982178,0.05048004165291786,0.02768373116850853,0.11146549135446548,-0.4788246750831604,0.3992021679878235,-0.7818980813026428,0.0265389084815979,0.061903178691864014,0.019950449466705322,-0.7311552260491163,0.0033894440354031896,0.3302112665143273,-0.5969598823166156,-0.41064651503229166,-0.54947825875802,1.2521284230354457
1781552670695895040,1.3657591342926025,0.15105831623077393,-0.03355498984456062,0.0702328309416771,-0.47850358486175537,0.398876428604126,-0.7822607755661011,0.03341996669769287,0.07136893272399902,0.016239047050476074,-0.730874787785124,0.003166997222857767,0.3299387650074791,-0.5974549116430784,-0.4102912562406679,-0.5489730911157696,1.2535336613002679
1781552670705929728,1.3757939338684082,0.17117317020893097,-0.04438153654336929,0.050626903772354126,-0.47855135798454285,0.3978480398654938,-0.7827550768852234,0.029668331146240234,0.06067854166030884,0.006494700908660889,-0.7306301814737133,0.002538148673309116,0.3295694624574184,-0.5979606451974288,-0.4091700570934693,-0.5487363952549555,1.2550720170673926
1781552670715964672,1.385828971862793,0.18897001445293427,-0.04550539329648018,0.05065566673874855,-0.47870588302612305,0.39666420221328735,-0.783261239528656,0.017310619354248047,0.04051533341407776,0.004742562770843506,-0.7304071838600745,0.0018210764348294659,0.3291900196835851,-0.5984445728739382,-0.40788008554434946,-0.5485923877572942,1.256573880390282
1781552670725999872,1.3958640098571777,0.1873401552438736,-0.017856720834970474,0.06701040267944336,-0.47874921560287476,0.3954489827156067,-0.7838490009307861,0.0013322234153747559,0.0020882487297058105,0.0006306171417236328,-0.7301799685982662,0.0011177411487042718,0.3287464788537137,-0.5989671308222494,-0.40655661913738284,-0.5482989137278539,1.2581868218632613
1781552670736034816,1.4058990478515625,0.18604399263858795,-0.011429313570261002,0.07964630424976349,-0.4785677492618561,0.39439842104911804,-0.7844889163970947,-0.006051391363143921,-0.03307029604911804,-0.0035207271575927734,-0.7299323571303129,0.0005411353574593957,0.3282609642086736,-0.5995358439209769,-0.40541310531050373,-0.5477674323555172,1.2599020458596775
1781552670746070016,1.4159340858459473,0.04638516530394554,0.008722558617591858,0.10077502578496933,-0.47827261686325073,0.3938838243484497,-0.784927248954773,-0.006850063800811768,-0.045144230127334595,-0.004257321357727051,-0.7296652733804893,0.00023474961799756864,0.32792731217868754,-0.600043435402627,-0.40485320796239993,-0.5472449741995105,1.2613698790004195
1781552670756104960,1.425969123840332,0.0037455628626048565,0.001956797670572996,0.10919647663831711,-0.4777977168560028,0.3942664861679077,-0.7850243449211121,-0.005249738693237305,-0.0338691771030426,0.011296987533569336,-0.7293419613402965,0.0003633829046518726,0.3278531479230287,-0.6004767882663086,-0.4052695296208562,-0.5467486807944335,1.2625014335570615
1781552670766139648,1.4360039234161377,-0.054506827145814896,0.010436834767460823,0.09340952336788177,-0.4773993492126465,0.3948870003223419,-0.784954845905304,-0.0008721649646759033,-0.02641773223876953,-0.008151233196258545,-0.7290472411009477,0.0005977721342486588,0.32790579220157584,-0.6008057604044709,-0.4059448365432329,-0.5464176070257735,1.2633123769846248
1781552670776174848,1.4460389614105225,-0.056486885994672775,-0.027487510815262794,0.07214338332414627,-0.477123498916626,0.3957553505897522,-0.7846851944923401,0.0074884891510009766,-0.011523783206939697,0.0006886124610900879,-0.728781124636359,0.0009301485305956167,0.3281105561964289,-0.6010163341482558,-0.4068902151836683,-0.5463135627769703,1.2637625265037657
1781552670786209792,1.4560739994049072,-0.015727203339338303,-0.05122879147529602,0.03879980742931366,-0.4772319197654724,0.3962530195713043,-0.7843680381774902,0.017332017421722412,0.004580110311508179,0.005864620208740234,-0.7285545186349298,0.0010085137385585114,0.3283518688389954,-0.6011592193889786,-0.407432186064574,-0.5465939211969278,1.2640813014895538
1781552670796244736,1.466109037399292,-0.015052360482513905,-0.07728635519742966,-0.0017721204785630107,-0.47767460346221924,0.3965311646461487,-0.7839579582214355,0.02532780170440674,0.014235436916351318,0.006644725799560547,-0.7283911053826253,0.0009294739490960372,0.3286642202193081,-0.6011867017319436,-0.4077351411260792,-0.547238102974706,1.2641150407821282
1781552670806279936,1.4761440753936768,0.06530746072530746,-0.07472679018974304,-0.033388901501894,-0.4784175455570221,0.3962585926055908,-0.7836426496505737,0.022484958171844482,0.03484797477722168,0.0072754621505737305,-0.7283236416159257,0.0005661688232692862,0.32890477440954724,-0.6011373408439725,-0.40743825315809534,-0.5481077894345713,1.2640187862245527
1781552670816314880,1.4861791133880615,0.0762205645442009,-0.09659214317798615,-0.05483720451593399,-0.4792492389678955,0.3954032361507416,-0.7835664749145508,0.019196748733520508,0.025418907403945923,-0.0024595260620117188,-0.7283075532402256,-6.36664641180282e-05,0.32896314622945233,-0.6011250606051396,-0.40650683141510446,-0.5489238249212645,1.2641114620330107
1781552670826348800,1.4962129592895508,0.1044900193810463,-0.09750933945178986,-0.07814358919858932,-0.4802553951740265,0.39436256885528564,-0.7834749221801758,0.01716640591621399,0.029358744621276855,0.0015840530395507812,-0.7283490347410689,-0.0007948114664341687,0.3290317892371088,-0.6010367178972493,-0.4053741044041199,-0.5499098713309509,1.2640245882284267
1781552670836383744,1.5062479972839355,0.15633483231067657,-0.1298953741788864,-0.10217276215553284,-0.48150232434272766,0.3929254710674286,-0.7834315896034241,0.01697903871536255,0.01700189709663391,-0.008667349815368652,-0.7284358501873784,-0.001749586703925168,0.32906098427733593,-0.6009135133501078,-0.4038107733930708,-0.5510905629425603,1.2639042772908486
1781552670846418944,1.5162830352783203,0.08422096818685532,-0.17330409586429596,-0.125775545835495,-0.4831237196922302,0.39147913455963135,-0.7831574082374573,0.025649964809417725,-0.012435555458068848,-0.009857118129730225,-0.7285225240441614,-0.002808663308780423,0.3292619088295066,-0.600694281147461,-0.4022384808124373,-0.5527477585721097,1.2635269961389288
1781552670856453888,1.526318073272705,0.07402265816926956,-0.21540693938732147,-0.16535279154777527,-0.4852016270160675,0.3901621997356415,-0.7825297713279724,0.029986202716827393,-0.01909896731376648,0.005933701992034912,-0.7286421976235516,-0.0039112885776165255,0.3297268817136867,-0.6002878334689905,-0.40080775967217713,-0.5550263539990403,1.2626240663442467
1781552670866488832,1.5363531112670898,-0.004772824235260487,-0.25646623969078064,-0.20054753124713898,-0.48775336146354675,0.3890521228313446,-0.7814954519271851,0.030645817518234253,-0.026625365018844604,0.007020354270935059,-0.7288024979618325,-0.005021106703473452,0.33049518814932183,-0.5996621516017651,-0.3996024253327403,-0.5579721863634655,1.2610979722052638
1781552670876524032,1.5463881492614746,0.004210284445434809,-0.27405866980552673,-0.2372341752052307,-0.4906814396381378,0.38801395893096924,-0.7801774740219116,0.024327069520950317,-0.0010815858840942383,0.011622786521911621,-0.7290084924836668,-0.006170656137575223,0.3314712433864679,-0.5988617215037996,-0.39847574367749267,-0.5614244544402432,1.259092858113494
1781552670886558720,1.5564229488372803,-0.07970352470874786,-0.30602434277534485,-0.26233553886413574,-0.49390116333961487,0.38711294531822205,-0.7785918712615967,0.019764810800552368,0.008425384759902954,-0.0005676746368408203,-0.7292784261165948,-0.007295530426027503,0.33264222246732933,-0.5978704088707529,-0.3974983318629912,-0.5652959696057699,1.2565551612330723
1781552670896593920,1.566457986831665,-0.08245190232992172,-0.3302873373031616,-0.3030214309692383,-0.49749767780303955,0.38636717200279236,-0.7766701579093933,0.01986706256866455,0.007843643426895142,0.0073983073234558105,-0.7295920013722264,-0.008419130004098201,0.334056958832908,-0.596683011642116,-0.3966896334989061,-0.5697047545706473,1.2534700272813826
1781552670906628864,1.5764930248260498,-0.08050087094306946,-0.35316094756126404,-0.3306538760662079,-0.5013745427131653,0.3853146731853485,-0.774697482585907,0.020646393299102783,-0.005340307950973511,-0.0020664334297180176,-0.729985068874748,-0.009709588684111963,0.33549513312763996,-0.5953743542218857,-0.39554881688743365,-0.5743955544338972,1.2501194851306943
1781552670916663808,1.5865280628204346,-0.14285293221473694,-0.370987206697464,-0.3596189320087433,-0.5054939985275269,0.3845120668411255,-0.7724158763885498,0.023987650871276855,-0.012731671333312988,-0.0006401538848876953,-0.7304103051916292,-0.010921653386884517,0.33715392166992014,-0.5938928865168404,-0.39467918201789215,-0.5794848262343819,1.246272296095804
1781552670926699008,1.5965631008148193,-0.11429744958877563,-0.40008437633514404,-0.39067167043685913,-0.5099014639854431,0.3836127817630768,-0.7699621319770813,0.03008890151977539,-0.0012122690677642822,0.009204685688018799,-0.7308801656145169,-0.012220205078011625,0.3389241828877625,-0.5922796549342096,-0.39370521573682044,-0.584933315219983,1.2421018400676451
1781552670936733952,1.606598138809204,-0.07035049796104431,-0.4202650189399719,-0.4164643883705139,-0.5146277546882629,0.3822961151599884,-0.7674685716629028,0.02968817949295044,0.004590481519699097,-0.00018584728240966797,-0.731383742139286,-0.013768646428015896,0.3406994951172369,-0.5906032452816087,-0.3922799014105105,-0.5906877921286,1.2378575073078812
1781552670946768640,1.6166329383850098,-0.07774823158979416,-0.4033108055591583,-0.43342018127441406,-0.5194267630577087,0.38068652153015137,-0.7650318145751953,0.01910632848739624,0.014806032180786133,-0.0020122528076171875,-0.7319346088382122,-0.015436515159514407,0.34241176635560117,-0.588886828460625,-0.39053860312423877,-0.5964658519001995,1.2335811127806495
1781552670956802816,1.6266670227050781,-0.005537151359021664,-0.35410329699516296,-0.4289282262325287,-0.5239626169204712,0.37876906991004944,-0.7628874182701111,0.004171967506408691,0.03277572989463806,0.007211148738861084,-0.7325644414249184,-0.017127214071834634,0.34389379401430215,-0.5871909513565575,-0.3884659073635719,-0.6018221294556656,1.2294350110280168
1781552670966837760,1.636702060699463,0.06922151148319244,-0.30983543395996094,-0.4147604703903198,-0.5281018018722534,0.37629932165145874,-0.7612537741661072,-0.007527410984039307,0.04421761631965637,-0.00046497583389282227,-0.7332221586130626,-0.018954452535059202,0.344983846200289,-0.5856723095129213,-0.38579877760733705,-0.6065030502005677,1.2258894827909566
1781552670976872960,1.6467370986938477,0.12116780132055283,-0.2426339089870453,-0.40187638998031616,-0.5317077040672302,0.3733419179916382,-0.7601991295814514,-0.016128599643707275,0.053797364234924316,0.0016084909439086914,-0.7339434488130536,-0.020835199581190646,0.3456389952595259,-0.5843172221644543,-0.38260881502021993,-0.6103447131471313,1.2228904538279992
1781552670986907904,1.6567721366882324,0.08755311369895935,-0.14330706000328064,-0.36403098702430725,-0.5346140265464783,0.37051260471343994,-0.7595447897911072,-0.031044483184814453,0.04502999782562256,0.003929555416107178,-0.7347227432747897,-0.022441162771841914,0.34601154847386745,-0.5830566448724094,-0.3795608383161138,-0.6133126127020608,1.2201203196604076
1781552670996942848,1.666806936264038,0.07451161742210388,-0.08249843120574951,-0.3114926815032959,-0.5367258191108704,0.3680709898471832,-0.7592424750328064,-0.03219813108444214,0.021867364645004272,0.0003618597984313965,-0.7355030971600336,-0.023661281762669004,0.3461486679221904,-0.5819419824500663,-0.376933513138542,-0.6153570407429505,1.2176554503788337
1781552671006977792,1.6768419742584229,-0.0034042256884276867,-0.009542198851704597,-0.29887568950653076,-0.53819739818573,0.3661651611328125,-0.7591223120689392,-0.02418053150177002,-0.017059326171875,-0.01912170648574829,-0.7362962282451456,-0.024458535577641796,0.3461800371205883,-0.5808864874013039,-0.37488461126921435,-0.6167228879496593,1.2152287846681042
1781552671017012736,1.6868770122528076,-0.10798656195402145,-0.026720255613327026,-0.2830139100551605,-0.5394248366355896,0.36493679881095886,-0.7588425278663635,-0.0166206955909729,-0.04998013377189636,-0.017387330532073975,-0.7371132571007144,-0.024857420542046604,0.346353630665873,-0.5797286971126859,-0.37356493090083037,-0.617972191618686,1.2123855743397487
1781552671027047936,1.6969120502471924,-0.231909841299057,-0.06349051743745804,-0.2530387043952942,-0.5407447814941406,0.3647738993167877,-0.75798100233078,0.001956939697265625,-0.06289401650428772,-0.01097041368484497,-0.7378528592951346,-0.024815604061414878,0.34697793362269774,-0.5784149120875528,-0.3733899520641475,-0.619663721857535,1.2089141844886833
1781552671037082880,1.7069470882415771,-0.3115402162075043,-0.08585561066865921,-0.2733210623264313,-0.5422638654708862,0.36542078852653503,-0.7565828561782837,0.01759040355682373,-0.06633326411247253,-0.011910796165466309,-0.7384998179780512,-0.024487268623097917,0.3480071054019695,-0.5769831628828153,-0.3740848200711694,-0.6218645754050952,1.204970427811628
1781552671047117824,1.716982126235962,-0.35905927419662476,-0.0903313159942627,-0.3059309422969818,-0.5439552664756775,0.36640414595603943,-0.7548912167549133,0.01565021276473999,-0.05942782759666443,0.00405198335647583,-0.7392617855969025,-0.023963610676478984,0.34925656182556736,-0.575271829486413,-0.3751414646191281,-0.6244012138930396,1.2002095752823587
1781552671057152768,1.7270169258117676,-0.3224804997444153,-0.16983959078788757,-0.24601833522319794,-0.5459822416305542,0.3675151765346527,-0.752885103225708,0.0215376615524292,-0.00974234938621521,0.014634370803833008,-0.7398457291378211,-0.023559161685548204,0.3507170147315852,-0.5736469228194814,-0.3763358088554324,-0.6274305604463536,1.195670958071933
1781552671067187712,1.7370519638061523,-0.27940598130226135,-0.1328730583190918,-0.266357958316803,-0.548104465007782,0.3684619963169098,-0.7508776187896729,0.020180881023406982,0.03884083032608032,0.0018084049224853516,-0.7403444224245291,-0.023300508399540062,0.35216230042521535,-0.5721265532454265,-0.37735408196092424,-0.6305463237305634,1.1914529132953187
1781552671077222912,1.747087001800537,-0.08962246775627136,-0.09698548913002014,-0.247244730591774,-0.5498850345611572,0.36846667528152466,-0.7495723366737366,-0.0054433345794677734,0.05984753370285034,0.004638314247131348,-0.7409119797058509,-0.023368036280975134,0.3530832118572942,-0.5708201188264872,-0.3773591188106781,-0.632921156221794,1.187998827440572
1781552671087257856,1.7571220397949219,0.041890282183885574,-0.1244666576385498,-0.2330668568611145,-0.5515928268432617,0.36734578013420105,-0.748867392539978,0.006075859069824219,0.07865336537361145,0.006756186485290527,-0.7414028980458336,-0.024007962667573036,0.35353911805662047,-0.5698731848966349,-0.3761536660853349,-0.6348499817575527,1.1857561509271022
1781552671097292544,1.7671568393707275,0.1997094750404358,-0.15087854862213135,-0.26132646203041077,-0.5535306930541992,0.3650396466255188,-0.748565137386322,0.024569571018218994,0.1196710467338562,0.013427257537841797,-0.7418562296962575,-0.025297985687963,0.3536628742643275,-0.5691502024779262,-0.37367539860808546,-0.6367184809761368,1.1843894476573098
1781552671107326720,1.777190923690796,0.3303423225879669,-0.1380903273820877,-0.3578687012195587,-0.5557308793067932,0.36142879724502563,-0.7486870884895325,0.030782759189605713,0.12569278478622437,0.013549208641052246,-0.7424274623487696,-0.02720628697636481,0.3534349444951015,-0.5684584656410817,-0.36979981128145417,-0.6385380403861844,1.1834132323159983
1781552671117361664,1.7872259616851807,0.4288332164287567,-0.2121063619852066,-0.3461289703845978,-0.558317244052887,0.3565419912338257,-0.7491059303283691,0.025770246982574463,0.10653173923492432,0.005346775054931641,-0.7430965635874389,-0.02975779347869791,0.35293273346834975,-0.5677680068189365,-0.364564019795372,-0.6404937037892985,1.182756196206265
1781552671127396864,1.7972609996795654,0.4903556704521179,-0.2160840630531311,-0.4150230586528778,-0.5612877607345581,0.3508525788784027,-0.7495722770690918,0.041954874992370605,0.07785835862159729,0.011474132537841797,-0.7437543609820161,-0.03278785118200423,0.352333385703857,-0.5671117334870972,-0.3584814052849555,-0.6427395116073066,1.1824141249516131
1781552671137431808,1.8072960376739502,0.509325385093689,-0.2400282770395279,-0.4375566244125366,-0.5644999742507935,0.344608873128891,-0.7500563263893127,0.026703953742980957,0.04868638515472412,-0.0006760954856872559,-0.7445016785588002,-0.036078401990111954,0.3516677289822692,-0.5663439029393224,-0.3518221195437517,-0.6451695125985993,1.1819416026229803
1781552671147467008,1.817331075668335,0.47104963660240173,-0.26408618688583374,-0.4500705301761627,-0.5679343342781067,0.33843347430229187,-0.7502755522727966,0.02745276689529419,0.02777746319770813,0.002259194850921631,-0.7451900104869825,-0.03941632015694767,0.3511532052362658,-0.5655348626859725,-0.3452516236166316,-0.6479455113000401,1.1813940586870086
1781552671157501696,1.8273658752441406,0.4203456938266754,-0.3043332099914551,-0.4187951683998108,-0.5715256333351135,0.33259785175323486,-0.7501580715179443,0.018913328647613525,-0.006914258003234863,0.001271963119506836,-0.7458487871061891,-0.04263814326202935,0.3508602981020347,-0.5646137215269037,-0.3390569322165081,-0.6510569879050774,1.1805178951733104
1781552671167536640,1.8374009132385254,0.39069753885269165,-0.29468297958374023,-0.4235531687736511,-0.5752053260803223,0.32710960507392883,-0.7497587203979492,0.013926029205322266,-0.03470543026924133,0.005602836608886719,-0.7464149953276676,-0.045764455371429764,0.35075097759805135,-0.5636878816870109,-0.33324328073294596,-0.654410491109318,1.179594364531806
1781552671177571840,1.8474359512329102,0.3463346064090729,-0.4914887249469757,-0.365538090467453,-0.579074501991272,0.321988970041275,-0.7489965558052063,0.011966347694396973,-0.032010942697525024,0.004733920097351074,-0.7467530452566844,-0.04889419189721802,0.35087187302028316,-0.5629017043052907,-0.32782960080504253,-0.6581430616044223,1.1790128398331814
1781552671187606784,1.857470989227295,0.39444512128829956,-0.22418272495269775,-0.2607046067714691,-0.5824369192123413,0.31791242957115173,-0.7481303215026855,0.007241606712341309,0.0003706812858581543,0.015479564666748047,-0.7469588296113634,-0.05148579611872971,0.35111826925007744,-0.5622435384651515,-0.3235268584460537,-0.6615075089655519,1.1785162352252303
1781552671197641728,1.8675060272216797,0.2534504532814026,-0.35803720355033875,-0.32865089178085327,-0.5859352350234985,0.3131624162197113,-0.7474017143249512,-0.0015739202499389648,0.006692320108413696,-0.021870136260986328,-0.747161378886651,-0.054428082230407196,0.35119330229952783,-0.5616501503251231,-0.3185211286973118,-0.6648854595460716,1.178394642174507
1781552671207676928,1.8775410652160645,0.3692513704299927,-0.16737589240074158,-0.3556913137435913,-0.5885235667228699,0.30924978852272034,-0.746997058391571,-0.020454704761505127,0.027175992727279663,0.031497180461883545,-0.747645934415628,-0.05658231499956934,0.3511408629618079,-0.5608245983983975,-0.31440405233723034,-0.6672899769463674,1.177387170305976
1781552671217711616,1.8875758647918701,0.29369136691093445,-0.1786501258611679,-0.22439506649971008,-0.5909499526023865,0.30470266938209534,-0.7469501495361328,-0.014411985874176025,-0.006774783134460449,-0.0031261444091796875,-0.748130912280067,-0.058998249705752626,0.3507764788204066,-0.5601565552447034,-0.30962622779396737,-0.6693215578321486,1.1769585539222647
1781552671227746816,1.8976109027862549,0.31781187653541565,-0.2996383309364319,-0.21585138142108917,-0.5932925939559937,0.301101416349411,-0.7465533018112183,0.022796988487243652,0.02275112271308899,-0.0022717714309692383,-0.7481750771786344,-0.06121771923566791,0.35067894901391256,-0.5599203691395161,-0.30584747585329286,-0.6715063398025807,1.177462418393182
1781552671237781760,1.9076459407806396,0.1747141033411026,-0.18211397528648376,-0.178224116563797,-0.5956681370735168,0.29828500747680664,-0.7457919120788574,0.0028184056282043457,0.02037954330444336,-0.021145343780517578,-0.7482582923845988,-0.06304509046999252,0.3508979277875316,-0.5594690027575376,-0.30289535666390854,-0.6739511197573846,1.177215945962012
1781552671247816704,1.9176809787750244,0.13253869116306305,-0.19917018711566925,-0.14854983985424042,-0.597729504108429,0.2959783375263214,-0.7450612187385559,-0.013690173625946045,-0.03398492932319641,0.009251892566680908,-0.7483133569340663,-0.06457496052890838,0.3511402216439712,-0.5590686177802743,-0.3004795934168551,-0.6761147571929178,1.1769552575683977
1781552671257850880,1.9277150630950928,0.1438121199607849,-0.08775511384010315,-0.09144607931375504,-0.5988960862159729,0.2943862974643707,-0.7447550892829895,-0.0150870680809021,-0.06629791855812073,-0.010829567909240723,-0.7483834335188605,-0.06555187621344068,0.3511771666835094,-0.5588378405695535,-0.2988133016254622,-0.6772673505037196,1.1768725477614148
1781552671267885568,1.9377498626708984,0.008761093951761723,-0.11765016615390778,-0.05918215215206146,-0.5998996496200562,0.29335981607437134,-0.7443523406982422,0.0032047033309936523,-0.04107099771499634,-0.03198432922363281,-0.7483813153951726,-0.06626829815660677,0.35132938886313797,-0.5586605312959803,-0.297739393790811,-0.6783494288285409,1.1767748286852928
1781552671277920768,1.9477849006652832,-0.05117680877447128,-0.2127194106578827,-0.06839961558580399,-0.6013240218162537,0.2931556701660156,-0.7432827353477478,0.013799607753753662,-0.011859893798828125,0.0031551718711853027,-0.7482823788063692,-0.06675026868712661,0.351998631772133,-0.5583143553306339,-0.2975258707879169,-0.6802114424862425,1.1760712146510897
1781552671287955712,1.957819938659668,0.04283171147108078,-0.1078723594546318,-0.046012554317712784,-0.6026891469955444,0.29290834069252014,-0.7422739267349243,0.0001348257064819336,-0.01979127526283264,0.014444947242736816,-0.7481559558229036,-0.06725619847230692,0.3526182523274281,-0.5580320790381846,-0.29726717819075804,-0.681985005193863,1.1755437852242983
1781552671297990912,1.9678549766540527,-0.09295541048049927,-0.06944947689771652,-0.025453748181462288,-0.6034523248672485,0.29276275634765625,-0.7417110800743103,-0.01588672399520874,0.01563262939453125,-0.008838236331939697,-0.7481234344217135,-0.06751816073487743,0.35296708000736543,-0.5578234022422913,-0.29711491992662215,-0.6829756846769248,1.1751154596237132
1781552671308025856,1.9778900146484375,0.08534402400255203,-0.09398917108774185,-0.04871033504605293,-0.6040628552436829,0.29268401861190796,-0.7412450313568115,0.0007302761077880859,0.03516632318496704,0.0019261837005615234,-0.7480919536497874,-0.06771314176518706,0.3532596840715922,-0.5576567981099686,-0.297032570080691,-0.6837785423289636,1.1747644938327966
1781552671318060800,1.9879250526428223,-0.14434723556041718,-0.1520298421382904,-0.046555303037166595,-0.6051785945892334,0.29244911670684814,-0.7404271364212036,0.011947453022003174,0.023590892553329468,-0.008458912372589111,-0.7480104203809493,-0.06812761112652414,0.3537584579853634,-0.5573993207124694,-0.2967869287403933,-0.6852233093181345,1.1742726264786856
1781552671328095744,1.997959852218628,-0.012658976949751377,-0.16608387231826782,-0.09147777408361435,-0.6065834164619446,0.2928105592727661,-0.7391337156295776,0.01454240083694458,0.004003435373306274,0.024015307426452637,-0.7479431878131295,-0.06831346506821386,0.3546356150983961,-0.5569092800238513,-0.29716490035346266,-0.6872169556741274,1.1730431560140617
1781552671338130688,2.0079948902130127,-0.09779943525791168,-0.14163193106651306,-0.06416092813014984,-0.6079302430152893,0.29259034991264343,-0.7381135821342468,-0.0010022521018981934,-0.05020448565483093,0.0029451847076416016,-0.7479020070514464,-0.06874587777918321,0.3552706078381734,-0.5565063625327566,-0.29693461370945806,-0.6889824946696027,1.1721892825975149
1781552671348165632,2.0180299282073975,-0.04399346560239792,-0.11559313535690308,-0.04672122001647949,-0.6090652346611023,0.2928925156593323,-0.7370573282241821,-0.003331005573272705,0.007507264614105225,0.002834916114807129,-0.7478723956638722,-0.06887373941685711,0.35598838995730875,-0.5560715764545515,-0.2972506235679076,-0.6906010903866442,1.1710903329179336
1781552671358200832,2.0280649662017822,-0.023637857288122177,-0.11642870306968689,-0.02691369317471981,-0.6099978089332581,0.29286813735961914,-0.7362954020500183,-0.0021085143089294434,0.02289721369743347,0.012311697006225586,-0.7477592005035448,-0.06916532241562721,0.35646662898159187,-0.5558811355783709,-0.2972251288307983,-0.6918605526097006,1.1707041240535063
1781552671368235776,2.038100004196167,0.02400209940969944,-0.08841703832149506,-0.017542561516165733,-0.6108559966087341,0.29280099272727966,-0.7356103658676147,8.940696716308594e-07,0.04136648774147034,-0.001511216163635254,-0.7476411100549942,-0.06946380652678506,0.35688879137235185,-0.5557319151544012,-0.297154901868444,-0.6930087699356228,1.1704304866626227
1781552671378270976,2.0481350421905518,0.09635033458471298,-0.020465819165110588,-0.0021092763636261225,-0.6113041639328003,0.29221516847610474,-0.7354709506034851,-0.009011387825012207,0.036398082971572876,0.014569461345672607,-0.7475435877591244,-0.0699057822712483,0.3569001517680218,-0.555800290089013,-0.2965422973960902,-0.6934624296498754,1.170822191192753
1781552671388305664,2.0581698417663574,0.06372794508934021,0.031218146905303,0.016310742124915123,-0.6111987233161926,0.2917006015777588,-0.7357627749443054,-0.009132087230682373,0.03741621971130371,-0.01071244478225708,-0.7475118231449016,-0.07014850190549757,0.35664800483410225,-0.5559743385050924,-0.2960042877703453,-0.6931826430538509,1.1714080122583383
1781552671398340608,2.068204879760742,-0.025782501325011253,-0.04483374208211899,0.005800844170153141,-0.6112111806869507,0.2915951609611511,-0.7357942461967468,0.005467832088470459,0.015014946460723877,-0.004623293876647949,-0.7474595206196845,-0.07023515916899872,0.35660890607075746,-0.5560587911391569,-0.2958940446316548,-0.6931716613636079,1.1716629305070398
1781552671408375808,2.078239917755127,-0.041383035480976105,-0.07647422701120377,-0.005297080613672733,-0.611720085144043,0.2919216752052307,-0.735241711139679,0.005854606628417969,-0.04172331094741821,0.013180553913116455,-0.7473581532397598,-0.07025748641974552,0.35699163266070966,-0.5559467605036813,-0.2962354120041722,-0.6939500291275581,1.1713434227798976
1781552671418410752,2.0882749557495117,-0.15445899963378906,0.011788921430706978,0.033592525869607925,-0.611957311630249,0.292631596326828,-0.7347618341445923,-0.011226892471313477,-0.0657486617565155,0.003255486488342285,-0.7472787796893859,-0.07002197324106257,0.35737374928379745,-0.5558374837915698,-0.2969777353660562,-0.6944617246701236,1.1708967135198527
1781552671428444928,2.09830904006958,-0.20247578620910645,0.025061849504709244,0.05233132839202881,-0.6115853786468506,0.2942928969860077,-0.7344079613685608,-0.009767711162567139,-0.05254793167114258,-0.012555539608001709,-0.7472720181464731,-0.06914951333738528,0.3577909649176454,-0.5556874270536135,-0.2987155577390424,-0.6943996807465279,1.1700162203724078
1781552671438479616,2.1083438396453857,-0.2718633711338043,-0.06741136312484741,0.040264811366796494,-0.6115898489952087,0.29624783992767334,-0.7336178421974182,0.01199573278427124,-0.04650723934173584,-0.013544082641601562,-0.7471859603555323,-0.06826990460454996,0.358511244802149,-0.5554476550759638,-0.30076173282393365,-0.6949326620022503,1.1688671320795558
1781552671448514816,2.1183788776397705,-0.2765335142612457,-0.12012037634849548,0.03210515156388283,-0.612206757068634,0.29855650663375854,-0.7321658730506897,0.024667084217071533,-0.021502673625946045,0.010638773441314697,-0.7470146958385572,-0.06740895339143874,0.35968473258906214,-0.5550242070044906,-0.30317982392576814,-0.6964033235632903,1.167209497188329
1781552671458549760,2.1284139156341553,-0.15587367117404938,-0.048913970589637756,0.05655829608440399,-0.6126850247383118,0.30033570528030396,-0.7310372591018677,0.011275172233581543,-0.0014007985591888428,0.01608675718307495,-0.7468188209633058,-0.06678580852442337,0.3605842686990486,-0.5547794896362274,-0.30504459903145853,-0.6975469612857986,1.1661494169362878
1781552671468584704,2.13844895362854,-0.10836685448884964,-0.01909029670059681,0.07990303635597229,-0.6126586198806763,0.30177831649780273,-0.7304651141166687,0.0032531023025512695,0.052683353424072266,-0.0239446759223938,-0.7466318962098375,-0.06620724276125689,0.361087306056631,-0.5547733193269345,-0.30655739644570107,-0.6979112298407113,1.165753589670848
1781552671478619904,2.148483991622925,0.003044352401047945,-0.09862147271633148,0.06439251452684402,-0.6128607392311096,0.30253422260284424,-0.7299827337265015,0.01158815622329712,0.08416926860809326,-0.011701226234436035,-0.746341365218655,-0.06607656553085264,0.36144505424024737,-0.554946814275865,-0.3073503464530583,-0.6983989479626925,1.1660458808349712
1781552671488654848,2.1585190296173096,0.06576605886220932,-0.13177064061164856,0.05201760679483414,-0.6136097311973572,0.3026508092880249,-0.7293049097061157,0.020119130611419678,0.07006034255027771,0.018748939037322998,-0.7459529688210527,-0.06643740463606708,0.36184751673485194,-0.555163645320627,-0.307472681419191,-0.6994580759650177,1.1666878179763682
1781552671498689792,2.1685540676116943,0.12962865829467773,-0.0655205100774765,0.07111193984746933,-0.6142099499702454,0.3022802472114563,-0.7289532423019409,0.008069753646850586,0.0509912371635437,0.024912714958190918,-0.7455587266713234,-0.06700426877639766,0.36198592749317354,-0.5555347035125686,-0.30708391236599325,-0.7001773976841726,1.1678533528626494
1781552671508724736,2.1785888671875,0.15351268649101257,-0.021387141197919846,0.08577903360128403,-0.6142318844795227,0.3017522394657135,-0.7291534543037415,-0.0053511857986450195,0.03931218385696411,-0.006137073040008545,-0.7452181360550569,-0.06748488312093054,0.3617583012445557,-0.5560814363392911,-0.30653002612339597,-0.7000596879691352,1.1694609120192252
1781552671518759680,2.1886239051818848,0.15339204668998718,-0.06710176169872284,0.08013792335987091,-0.6143012046813965,0.301104336977005,-0.7293629050254822,-0.0016044974327087402,0.03242224454879761,0.0018848776817321777,-0.7448522861549023,-0.06804938090155077,0.36150772780945545,-0.5566655606820057,-0.3058505175923523,-0.6999737901634548,1.171206670571297
1781552671528794880,2.1986589431762695,0.13237303495407104,-0.1271962672472,0.0577697679400444,-0.6148091554641724,0.30049556493759155,-0.729185938835144,0.009096264839172363,0.016994059085845947,0.020857691764831543,-0.7444226156000674,-0.06873280113531735,0.3615007985728603,-0.5571607013688389,-0.30521219894001617,-0.700500643709179,1.1727593240156116
1781552671538829824,2.2086939811706543,0.16808949410915375,-0.09018164873123169,0.07157133519649506,-0.6154049634933472,0.29988375306129456,-0.728935182094574,0.003069758415222168,-0.008440881967544556,0.024177491664886475,-0.7439969580676806,-0.069434267773755,0.36154017540260536,-0.5576165020387948,-0.3045708119913273,-0.7011475703308445,1.1742197494074387
1781552671548864768,2.218729019165039,0.16453629732131958,-0.054243624210357666,0.09107472747564316,-0.615665078163147,0.2990879714488983,-0.7290424704551697,0.005801796913146973,-0.006775349378585815,-0.0038524270057678223,-0.7435779167800636,-0.07014479668688059,0.3613287505588959,-0.5582232600136506,-0.3037367435000476,-0.7012833017981518,1.1760924480183108
1781552671558899968,2.228764057159424,0.11194580793380737,-0.1659054458141327,0.04010049253702164,-0.6162600517272949,0.2986174523830414,-0.7287325859069824,0.026690959930419922,0.026226907968521118,-0.007977008819580078,-0.7431266034040637,-0.07079452694732209,0.361416437833648,-0.5586852129573294,-0.3032436736451146,-0.701969109171692,1.177535514010048
1781552671568934656,2.2387988567352295,0.09465709328651428,-0.21883337199687958,0.021669555455446243,-0.6175678372383118,0.29791051149368286,-0.7279143333435059,0.025938808917999268,0.012605845928192139,0.01891469955444336,-0.7426580506351674,-0.07172750308833599,0.36179828146453613,-0.5589420323459143,-0.3025030341110169,-0.7035686989738301,1.178583962885478
1781552671578969600,2.2488338947296143,0.11619407683610916,-0.15985873341560364,0.01726335473358631,-0.618870735168457,0.29750511050224304,-0.7269729971885681,0.012913703918457031,-0.013783186674118042,0.009275853633880615,-0.7422301264082907,-0.07248914309460709,0.3622965993629568,-0.5590893667887527,-0.3020783608949179,-0.705247186890432,1.1792610774070693
1781552671589004800,2.258868932723999,0.11710141599178314,-0.13984987139701843,0.03734811767935753,-0.619840681552887,0.29656684398651123,-0.7265298962593079,0.002546370029449463,-0.01429450511932373,-0.006960093975067139,-0.7418325396390437,-0.07341180807688175,0.362416536702204,-0.5594189776346625,-0.301095751916571,-0.7063212956096653,1.180527259619665
1781552671599039744,2.268903970718384,0.046046145260334015,-0.19573470950126648,0.030385015532374382,-0.6208298206329346,0.29641303420066833,-0.7257477045059204,0.01420140266418457,0.029392629861831665,-0.01408994197845459,-0.7414473583129433,-0.07395592096000363,0.36284525829299885,-0.5595799773108584,-0.30093470826764074,-0.7076407957267771,1.181137248704084
1781552671609074944,2.2789390087127686,0.10748820751905441,-0.2504935562610626,-0.023688605055212975,-0.6225340962409973,0.29568833112716675,-0.7245824933052063,0.02396225929260254,0.00548967719078064,0.022128939628601074,-0.7409874101827346,-0.07498132634881348,0.3634371265317379,-0.5596686887072678,-0.3001759802310426,-0.7097893354605617,1.1818040973429575
1781552671619108608,2.288972854614258,0.0760626420378685,-0.21183857321739197,-0.004037405364215374,-0.6242614388465881,0.29508334398269653,-0.7233418822288513,0.00827944278717041,0.005484282970428467,0.004713952541351318,-0.74057380499062,-0.07592477187122397,0.3640940634564883,-0.5596618965670801,-0.2995427558575528,-0.7120067807450976,1.1821891617661302
1781552671629143808,2.2990078926086426,0.2193492203950882,-0.16682103276252747,-0.002962020691484213,-0.6256745457649231,0.2938934862613678,-0.7226050496101379,0.0011170506477355957,0.020132392644882202,0.01090461015701294,-0.7401723241912004,-0.07706973358371196,0.36435934801530706,-0.5598638293038949,-0.2982976602690638,-0.7136296336308696,1.1832531920916027
1781552671639178752,2.3090429306030273,0.12467944622039795,-0.16570623219013214,0.005984069779515266,-0.6268306970596313,0.29266443848609924,-0.7221016883850098,0.0013729333877563477,0.047362446784973145,-0.020528316497802734,-0.7397980252008375,-0.0781582245385273,0.36447283013143916,-0.5601336948245978,-0.29701208305538723,-0.7148882613766432,1.184478348196769
1781552671649213696,2.319077968597412,0.22220465540885925,-0.19413600862026215,-0.006054483354091644,-0.6281523704528809,0.2914559543132782,-0.7214416265487671,0.010659754276275635,0.0375235378742218,0.01561582088470459,-0.7394008684088113,-0.07928869072695903,0.36468135126228557,-0.5603634408382792,-0.29574850526067475,-0.7163840083323599,1.185617793278147
1781552671659248896,2.329113006591797,0.2110723853111267,-0.1579468548297882,0.00746452109888196,-0.6294780969619751,0.2897983193397522,-0.7209537625312805,0.006538033485412598,0.0021633505821228027,0.004156827926635742,-0.7389766612933463,-0.0806514859630108,0.3647169666570908,-0.5607052619566204,-0.29401610113612636,-0.71776339777843,1.1871861485209558
1781552671669283840,2.3391480445861816,0.26055097579956055,-0.07824496924877167,0.05463016778230667,-0.6301975846290588,0.28835731744766235,-0.7209029197692871,-0.0036677122116088867,0.02255573868751526,-0.00012058019638061523,-0.7385860527820888,-0.08175261264179952,0.36450656455012326,-0.5611970275425595,-0.29251084404818967,-0.7183643131996734,1.189014370058497
1781552671679318784,2.3491828441619873,0.244676411151886,-0.029760384932160378,0.11060182750225067,-0.6303021907806396,0.2869871258735657,-0.7213581204414368,-0.0018389225006103516,0.022522151470184326,-0.010560154914855957,-0.7381677728365772,-0.08269834427545841,0.36398064894678195,-0.561949713000065,-0.29108018339708214,-0.7181337928085314,1.1914375444482892
1781552671689353728,2.359217882156372,0.25736290216445923,-0.06961246579885483,0.032270535826683044,-0.6306683421134949,0.28559526801109314,-0.7215904593467712,0.006461799144744873,0.028186500072479248,0.004793643951416016,-0.7377318068205864,-0.08372327941947076,0.3635865398135191,-0.5626252220298905,-0.2896275037048528,-0.7182620011427778,1.193699454976167
1781552671699388672,2.369252920150757,0.2955843210220337,-0.00988494697958231,0.05442323908209801,-0.6308631896972656,0.28383615612983704,-0.722114086151123,-0.01684194803237915,0.018013209104537964,0.009315013885498047,-0.7374311290960575,-0.08479409574282382,0.362977845472832,-0.5632516948769729,-0.2877924531374852,-0.71805560791706,1.195901462331108
1781552671709423872,2.3792879581451416,0.33472535014152527,0.11420077830553055,0.07950595766305923,-0.6302605271339417,0.2820155918598175,-0.7233525514602661,-0.02731698751449585,0.028119295835494995,0.0014134645462036133,-0.7372064007695731,-0.08566039519343523,0.361919913345526,-0.5640949388161979,-0.28589433682058907,-0.7167333054488686,1.198580720366009
1781552671719458816,2.3893229961395264,0.32198238372802734,0.1779126524925232,0.09571421891450882,-0.6288967728614807,0.2801910936832428,-0.7252460718154907,-0.029565751552581787,0.0398925244808197,-0.011570334434509277,-0.7370839382262369,-0.08628389487091953,0.36046090650118257,-0.5650932440115196,-0.2839931773994353,-0.7143663881276117,1.2015573935701669
1781552671729493760,2.399358034133911,0.2572089731693268,0.18529413640499115,0.09211442619562149,-0.6272950768470764,0.278626948595047,-0.7272330522537231,-0.012490689754486084,0.024763554334640503,-0.0061348676681518555,-0.73702208934954,-0.0866863432639713,0.3589831989917755,-0.566052177199997,-0.2823641392917902,-0.7117509315661725,1.204316852273798
1781552671739528960,2.409393072128296,0.21298958361148834,0.22951684892177582,0.08825737237930298,-0.625548779964447,0.2774690091609955,-0.7291774153709412,-0.010101795196533203,-0.012896865606307983,0.008458971977233887,-0.7370316823087952,-0.08681512737245851,0.3575953422794823,-0.566897783850944,-0.2811586767024192,-0.7090527047746583,1.2066357789486237
1781552671749563648,2.4194278717041016,0.13088274002075195,0.31238484382629395,0.10816369950771332,-0.623293399810791,0.27681681513786316,-0.7313534617424011,-0.017606258392333984,-0.04157206416130066,-0.00029027462005615234,-0.7371709199781559,-0.08650302049210369,0.35614674920764966,-0.5676758985330781,-0.28047990219551316,-0.7057968306455711,1.2085556400065234
1781552671759598848,2.4294629096984863,0.06493808329105377,0.3753507435321808,0.10967131704092026,-0.6204258799552917,0.27678269147872925,-0.7338004112243652,-0.020504236221313477,-0.044513434171676636,-0.012293338775634766,-0.7374239208413528,-0.08568400666588807,0.35462381585685054,-0.5684242773965522,-0.2804443853852901,-0.7018739225421348,1.2101375215740688
1781552671769633792,2.439497947692871,-0.0322185643017292,0.38359057903289795,0.11465728282928467,-0.6172939538955688,0.2773817181587219,-0.7362116575241089,-0.017609000205993652,-0.041953861713409424,-0.008813977241516113,-0.7377733682087386,-0.08444511080247699,0.353218354584401,-0.5690310749526889,-0.2810678276209856,-0.6977641815982365,1.2111361980356008
1781552671779668736,2.449532985687256,-0.06278472393751144,0.42080920934677124,0.11801712960004807,-0.6140187382698059,0.278483510017395,-0.7385309338569641,-0.013651549816131592,-0.04136189818382263,0.006841480731964111,-0.7381613268172809,-0.08291287514171802,0.3519374646714097,-0.5695467210493519,-0.2822147870751823,-0.6935995141156975,1.211746990029981
1781552671789703936,2.4595680236816406,-0.09479671716690063,0.4738710820674896,0.130618155002594,-0.6103354096412659,0.27981096506118774,-0.7410780191421509,-0.01680082082748413,-0.038569509983062744,0.001682877540588379,-0.7386319552507674,-0.08112617786621404,0.35054178463373026,-0.5700543721167337,-0.28359721811194,-0.6889532230687396,1.2122312038686598
1781552671799738880,2.4696030616760254,-0.13259044289588928,0.48903897404670715,0.13712239265441895,-0.6063518524169922,0.2814764082431793,-0.7437126636505127,-0.012712478637695312,-0.014172911643981934,-0.010102033615112305,-0.7391459028789195,-0.07908292676613868,0.349126845679328,-0.5705434011825098,-0.28533236462161266,-0.684003173517739,1.2125539023548078
1781552671809773568,2.479637861251831,-0.15862417221069336,0.47449570894241333,0.12256261706352234,-0.6023606061935425,0.28334346413612366,-0.7462427616119385,-0.0010176897048950195,-0.007815510034561157,0.0022089481353759766,-0.7396670587145724,-0.07693884691771066,0.3477916592977148,-0.5709765086545749,-0.28727867191840833,-0.6791104920770841,1.212695350527576
1781552671819808768,2.489672899246216,-0.17456239461898804,0.4503437876701355,0.11078611761331558,-0.5985594987869263,0.28534623980522156,-0.748534619808197,0.0028563737869262695,-0.014502733945846558,0.007827281951904297,-0.7402002101539032,-0.07476951210641317,0.3466153486233447,-0.5712889792890167,-0.28936766860777957,-0.674522421908079,1.212525381940515
1781552671829842688,2.499706983566284,-0.16482321918010712,0.4563193619251251,0.10611812770366669,-0.5948529839515686,0.28725388646125793,-0.7507564425468445,0.0040174126625061035,-0.008582621812820435,0.010003268718719482,-0.740741968684359,-0.07266145922010925,0.3454592610921701,-0.571558954718407,-0.2913586550247446,-0.6700515958386132,1.2122975189171434
1781552671839877888,2.509742021560669,-0.18456150591373444,0.4529725909233093,0.09890735149383545,-0.5911113619804382,0.2891864776611328,-0.7529664635658264,0.005906343460083008,0.0063152313232421875,0.000753939151763916,-0.7413024029473512,-0.07052172656151513,0.34430138891817014,-0.5717989452985622,-0.2933769095044021,-0.6655543177076683,1.211998455884089
1781552671849912832,2.5197770595550537,-0.1883634328842163,0.4387616813182831,0.09464655816555023,-0.5874409675598145,0.2911939322948456,-0.7550624012947083,0.005409717559814453,0.011296302080154419,0.004314720630645752,-0.7418648985388048,-0.0683629778466855,0.3432132140895199,-0.5719857122279686,-0.2954746068012748,-0.6611836198133442,1.2115673138850802
1781552671859947776,2.5298118591308594,-0.177067369222641,0.44642946124076843,0.08176697790622711,-0.5838466882705688,0.2930920124053955,-0.7571130394935608,0.00039637088775634766,0.0015704631805419922,0.006807863712310791,-0.7424284879027176,-0.06627261866717403,0.34212778569724706,-0.5721507872791395,-0.2974592704000546,-0.6568994197742782,1.211132723749779
1781552671869982720,2.539846897125244,-0.1713000237941742,0.4838167726993561,0.07826945185661316,-0.5800872445106506,0.2948666214942932,-0.7593104839324951,-0.00972592830657959,0.0011691153049468994,0.011950314044952393,-0.7430583299293688,-0.06415974130827222,0.3409226958348972,-0.572293216315371,-0.2993159417655931,-0.6523794894410264,1.210666108663254
1781552671880017664,2.549881935119629,-0.1635773926973343,0.5337121486663818,0.08281680196523666,-0.5759539008140564,0.29659897089004517,-0.7617782950401306,-0.015461504459381104,0.011933714151382446,0.0038132667541503906,-0.7437480552506607,-0.06193996206808568,0.33952067017709575,-0.572475330102145,-0.30112938724940697,-0.647371386988258,1.2102947821090464
1781552671890052864,2.5599169731140137,-0.17483563721179962,0.5446153879165649,0.07322755455970764,-0.5715632438659668,0.2983399033546448,-0.7644008994102478,-0.011765003204345703,0.011886537075042725,-0.0032840371131896973,-0.7444977757124194,-0.059618003723185,0.3380018392529433,-0.5726460675754093,-0.30295287754190003,-0.6420448626925079,1.2098862696894326
1781552671900087808,2.5699520111083984,-0.18603582680225372,0.5508340001106262,0.056996654719114304,-0.5671625733375549,0.3001185357570648,-0.7669781446456909,-0.004630029201507568,3.7103891372680664e-05,0.007792353630065918,-0.7452902024294229,-0.05725116692187525,0.3365014563791982,-0.5727404658451036,-0.3048169140473972,-0.6367322157764622,1.2092879277456237
1781552671910122752,2.579987049102783,-0.179030641913414,0.5653554201126099,0.05361417308449745,-0.562705934047699,0.3018537163734436,-0.7695754170417786,-0.00191497802734375,-0.002995103597640991,-0.0017410516738891602,-0.7461126407091205,-0.05487359860968525,0.3349644352059706,-0.5728033187201329,-0.3066364645594051,-0.6313537069060282,1.2086341991178593
1781552671920157696,2.590021848678589,-0.169465109705925,0.5817470550537109,0.04847453907132149,-0.5581121444702148,0.30349987745285034,-0.7722684741020203,-0.002602517604827881,0.0059483349323272705,-0.005349874496459961,-0.7469759955544979,-0.05248038786917332,0.33333401792700595,-0.5728534225686126,-0.30836365883854494,-0.6257936289803008,1.2079783864100164
1781552671930192640,2.6000568866729736,-0.13209722936153412,0.6021628379821777,0.048458024859428406,-0.5533629655838013,0.3049473762512207,-0.7751106023788452,-0.005062878131866455,0.02082774043083191,2.5212764739990234e-05,-0.7478632381975097,-0.05012798742031431,0.3315597713284405,-0.5729360923932308,-0.30988315775227404,-0.6200038903095868,1.2074646350316196
1781552671940227840,2.6100919246673584,-0.1108878031373024,0.6517874002456665,0.04660792648792267,-0.5483605861663818,0.3061498999595642,-0.7781856656074524,-0.019190073013305664,0.02250915765762329,-0.009076297283172607,-0.7487958616648381,-0.047801338502182704,0.32957883348770634,-0.5730598255332485,-0.31114608253759013,-0.6138503202572764,1.2071171151489384
1781552671950262784,2.620126962661743,-0.09559300541877747,0.7375430464744568,0.027288027107715607,-0.5428321361541748,0.307161808013916,-0.7816552519798279,-0.039397478103637695,0.012174129486083984,-0.00876528024673462,-0.7498470452388404,-0.045365937008363263,0.327283206672113,-0.5731990345600374,-0.312209224082342,-0.6070014344340603,1.206835337742329
1781552671960297728,2.630162000656128,-0.09058040380477905,0.7778642773628235,-0.008631890639662743,-0.5367467999458313,0.30795326828956604,-0.7855365872383118,-0.0421563982963562,0.00936850905418396,-0.023591220378875732,-0.751089406065294,-0.04278706955378746,0.324655154601992,-0.5732653406175142,-0.31304099835082244,-0.5994207598781677,1.2063924984374672
1781552671970332928,2.6401970386505127,-0.15107491612434387,0.7567347288131714,-0.08137134462594986,-0.5308244824409485,0.3086567521095276,-0.7892758250236511,-0.027967631816864014,0.012754350900650024,-0.03128081560134888,-0.7524852642494892,-0.040204762404667756,0.3220957438823416,-0.5730652331955677,-0.3137805185872142,-0.5920620578742839,1.2053022591714382
1781552671980367872,2.6502320766448975,-0.19267669320106506,0.7652372717857361,-0.18314403295516968,-0.525320827960968,0.3093118667602539,-0.7926942110061646,-0.029152989387512207,0.001234978437423706,-0.024230778217315674,-0.754124781536163,-0.037616245543272316,0.31974662492096867,-0.5724009423919313,-0.31446931364250263,-0.5852535159930988,1.2030485082081406
1781552671990402816,2.660266876220703,-0.17267687618732452,0.7927762269973755,-0.2422741949558258,-0.5198410749435425,0.3096618950366974,-0.7961625456809998,-0.057032644748687744,-0.026565611362457275,-0.033686697483062744,-0.7560097001695064,-0.03504395744320672,0.317317920966629,-0.5714285547720319,-0.31483743239447304,-0.5784345924765448,1.2000722509847757
1781552672000437760,2.670301914215088,-0.07809284329414368,0.7796427011489868,-0.35486599802970886,-0.5143177509307861,0.3092398941516876,-0.7999049425125122,-0.07831835746765137,-0.03813698887825012,-0.04308211803436279,-0.758123383217076,-0.03269899824692211,0.3146081597480555,-0.5702643538800756,-0.31439363801846604,-0.5714198585647916,1.1967687482313492
1781552672010472704,2.6803369522094727,0.015477585606276989,0.83402419090271,-0.46482977271080017,-0.5090683102607727,0.30732807517051697,-0.8039893507957458,-0.1056625247001648,-0.023590892553329468,-0.04940420389175415,-0.7605997839779846,-0.03092126053476499,0.3115272020079882,-0.5687552675871609,-0.31238393219983596,-0.5644584612907984,1.1928850288643196
1781552672020507904,2.6903719902038574,0.059351567178964615,0.7587483525276184,-0.500061571598053,-0.5040485858917236,0.30457115173339844,-0.8081902265548706,-0.11133837699890137,0.0076084136962890625,-0.042655110359191895,-0.7632169454799441,-0.029526079621575153,0.30827440862287087,-0.5670933947133678,-0.3094881590406076,-0.5576464484454622,1.18879594208118
1781552672030542848,2.700407028198242,0.17705848813056946,0.6411601901054382,-0.5514650940895081,-0.49995946884155273,0.3010239601135254,-0.812049925327301,-0.09916162490844727,0.03080889582633972,-0.0364607572555542,-0.7657590328226701,-0.028778419087449925,0.3051996742276828,-0.5653653285225082,-0.30576623660680596,-0.5518661304323558,1.184745758515699
1781552672040577792,2.710442066192627,0.2547530233860016,0.5600064992904663,-0.6414945721626282,-0.4968935251235962,0.29624128341674805,-0.8156824707984924,-0.10100686550140381,0.03868913650512695,-0.06033986806869507,-0.7683200244952859,-0.028853304996425706,0.30220232121567914,-0.5634940571135528,-0.3007548729820699,-0.5471386520450456,1.1806141507033288
1781552672050612736,2.7204768657684326,0.2437797337770462,0.5782038569450378,-0.7260366678237915,-0.494255393743515,0.2907763421535492,-0.8192439675331116,-0.11107602715492249,0.058329492807388306,-0.07078593969345093,-0.7710793124234289,-0.029250805404779565,0.299202933344633,-0.5613008304391914,-0.29503812508325616,-0.5428473496290067,1.175807062113095
1781552672060647680,2.7305119037628174,0.3043479919433594,0.4742776155471802,-0.7663909792900085,-0.49202051758766174,0.28487464785575867,-0.8226556181907654,-0.10653600096702576,0.08681419491767883,-0.08260256052017212,-0.7739309649530501,-0.029908191499778355,0.2962730015137282,-0.5588906034455802,-0.28887564906225444,-0.5390124869559506,1.170557476068617
1781552672070682112,2.740546226501465,0.3645700514316559,0.42885181307792664,-0.8265882730484009,-0.49061182141304016,0.27817100286483765,-0.8257850408554077,-0.09923192858695984,0.09861427545547485,-0.09430468082427979,-0.776748805263121,-0.03116219509532686,0.29349002242424305,-0.5563756537538,-0.2818894397866079,-0.5360815387980175,1.165249576392259
1781552672080717056,2.7505812644958496,0.4087388515472412,0.45166268944740295,-0.893004834651947,-0.48930996656417847,0.27072256803512573,-0.8290265798568726,-0.10993319749832153,0.09390145540237427,-0.10111868381500244,-0.7797386252877235,-0.03270065286789731,0.2905467066271712,-0.5536433412830071,-0.27414355652318073,-0.5331990065951142,1.1595554803445727
1781552672090752000,2.7606160640716553,0.4887636601924896,0.37165069580078125,-0.9099417328834534,-0.4883250892162323,0.26258862018585205,-0.8322173953056335,-0.11367988586425781,0.08517441153526306,-0.08683466911315918,-0.7827511417025972,-0.034625055129394414,0.2875628748266596,-0.5508260175431314,-0.2657039949105347,-0.5306391359443904,1.1538221106193167
1781552672100786944,2.77065110206604,0.5606434345245361,0.3690043091773987,-0.953517735004425,-0.48766013979911804,0.2536436915397644,-0.8353756070137024,-0.10126808285713196,0.0817292332649231,-0.06573218107223511,-0.7857450432065137,-0.037013327929143934,0.28450342541496715,-0.5479894699466864,-0.25644527542066947,-0.5283938592011567,1.1482481130930857
1781552672110821120,2.7806851863861084,0.6602981686592102,0.3162926137447357,-0.9955331087112427,-0.48720699548721313,0.24379068613052368,-0.8385675549507141,-0.09818118810653687,0.08009237051010132,-0.04569453001022339,-0.7887693967884905,-0.03985637279725904,0.28129647221211185,-0.5450933244401029,-0.24627255805438578,-0.526331078044676,1.1427505326396559
1781552672120856064,2.790720224380493,0.8169324994087219,0.2464391142129898,-1.0860669612884521,-0.4872249960899353,0.23259444534778595,-0.8417313098907471,-0.08818390965461731,0.08300308883190155,-0.03610682487487793,-0.7918567057719452,-0.04339587844308557,0.27794087918994764,-0.5420596611669413,-0.23474444077504594,-0.5247129011817017,1.1372431143485413
1781552672130891008,2.800755262374878,1.0449501276016235,0.15977852046489716,-1.1657072305679321,-0.4881097376346588,0.2190442681312561,-0.8448482155799866,-0.08873352408409119,0.0911211371421814,-0.04373210668563843,-0.7949972858829374,-0.04818734212316688,0.27432438624806593,-0.5388909855701349,-0.2208348401785471,-0.52389734434076,1.1319814993584432
1781552672140925952,2.8107900619506836,1.0358355045318604,0.3549598455429077,-1.0889767408370972,-0.4883919060230255,0.20468665659427643,-0.8482787013053894,-0.08526226878166199,0.11391685903072357,-0.029193222522735596,-0.7981005604266467,-0.05321833922335018,0.27023779692864286,-0.5358869619085032,-0.2061435699351269,-0.5223937143910298,1.127332931821428
1781552672150960896,2.8208250999450684,1.134424090385437,0.4984799921512604,-1.1085631847381592,-0.4867636561393738,0.19015724956989288,-0.8525850772857666,-0.06627586483955383,0.11483539640903473,-7.599592208862305e-05,-0.8013171735844685,-0.057817470723838096,0.2652632716572201,-0.5330883455409732,-0.19132231945715614,-0.5187677758283376,1.1231490764169012
1781552672160995840,2.830860137939453,1.1784696578979492,0.5098956823348999,-1.131509780883789,-0.4845597743988037,0.17466327548027039,-0.8571432828903198,-0.04765155911445618,0.06656292080879211,0.0016134977340698242,-0.8046031626832995,-0.06268364144160339,0.259805936917409,-0.5302692317967341,-0.17556377781000768,-0.5145286636110903,1.1191136695619603
1781552672171031040,2.840895175933838,0.9564877152442932,0.3685065507888794,-1.0202975273132324,-0.4823612570762634,0.16000239551067352,-0.8612356781959534,-0.018157541751861572,0.026887252926826477,0.04156404733657837,-0.8077572559862755,-0.06724140593272544,0.254677761943704,-0.5273955985077913,-0.1606930784845778,-0.5105495693237406,1.114821256085559
1781552672181065984,2.8509302139282227,0.803111732006073,0.3505544662475586,-0.9705736637115479,-0.48096293210983276,0.14775671064853668,-0.8642005324363708,-0.004632771015167236,-0.010381832718849182,0.08716201782226562,-0.8104532281822124,-0.0711248847654071,0.2506810183714886,-0.5246577888758763,-0.14829970292598627,-0.5078511198595312,1.1104851979603043
1781552672191101184,2.8609652519226074,0.6588142514228821,0.372158020734787,-0.9757604598999023,-0.4791032075881958,0.1366785317659378,-0.8670519590377808,-0.0382155179977417,-0.0668543130159378,0.08967769145965576,-0.813224265845351,-0.07434589105146615,0.24687389690137565,-0.5217203870067106,-0.13710769140296153,-0.5048109584523544,1.105404932445766
1781552672201135872,2.871000051498413,0.5087448358535767,0.43782398104667664,-1.0083833932876587,-0.47686266899108887,0.12683041393756866,-0.8697792887687683,-0.03145340085029602,-0.08579953014850616,0.08929222822189331,-0.8160976799904905,-0.0768871462651612,0.24330785382647258,-0.5185308383747724,-0.12717292399885433,-0.5015040901676735,1.0994397398420308
1781552672211170816,2.881035089492798,0.3818236291408539,0.44207891821861267,-1.0012133121490479,-0.47420454025268555,0.11817895621061325,-0.8724470138549805,0.010978221893310547,-0.06405603885650635,0.11692333221435547,-0.8190687706044909,-0.0787611620859116,0.2399441064239916,-0.5151211663631563,-0.1184557893768995,-0.49786528913525496,1.0926681161879086
1781552672221206016,2.8910701274871826,0.3185748755931854,0.43930190801620483,-0.9938760995864868,-0.4714871048927307,0.11041620373725891,-0.8749332427978516,0.04958158731460571,-0.04742792993783951,0.13622474670410156,-0.8220235511333153,-0.08024411437808206,0.236842285399666,-0.511609037318243,-0.11064180436076601,-0.4942684469599375,1.0854818641956794
1781552672231240960,2.9011051654815674,0.2615816295146942,0.4535471498966217,-0.9924366474151611,-0.4686281085014343,0.1031949445605278,-0.8773474097251892,0.05989089608192444,-0.0518033429980278,0.1436590552330017,-0.8249730262959005,-0.08146785390003661,0.23385740011864672,-0.5080286337736656,-0.1033789875454094,-0.4905866985034444,1.0780293846797475
1781552672241275904,2.911140203475952,0.20099763572216034,0.47061121463775635,-0.9808156490325928,-0.4655388295650482,0.09651318937540054,-0.8797492980957031,0.06093677878379822,-0.06497327983379364,0.14342117309570312,-0.8279229748061939,-0.08241085590200678,0.23094113553669496,-0.5043988242986466,-0.0966636575548677,-0.48671205534409695,1.0703462137210282
1781552672251311104,2.921175241470337,0.10935001820325851,0.4829528331756592,-0.9488364458084106,-0.46222376823425293,0.09062460064888,-0.8821203708648682,0.07321619987487793,-0.07501485198736191,0.14417481422424316,-0.8308439405492101,-0.0829741624307139,0.22815585146532422,-0.5007580549694813,-0.09074910859650265,-0.4826562465519475,1.0624697748558827
1781552672261346048,2.9312102794647217,-0.009912991896271706,0.48058462142944336,-0.9035664200782776,-0.45876964926719666,0.08589712530374527,-0.8843936324119568,0.08849990367889404,-0.08864369988441467,0.1485537886619568,-0.833690692195886,-0.08303205560148781,0.22562990401496902,-0.4971486987438549,-0.08600310415025485,-0.47852634092276136,1.0544312037420256
1781552672271380992,2.9412450790405273,-0.09053806215524673,0.4527687132358551,-0.831439733505249,-0.4553615152835846,0.08236736059188843,-0.8864883184432983,0.0947200357913971,-0.10234110802412033,0.15801846981048584,-0.8363951708844379,-0.08263829492747654,0.22344295382422175,-0.4936470326152098,-0.08246078138065821,-0.47452286770955016,1.04642573622929
1781552672281415936,2.951280117034912,-0.17581328749656677,0.4321952760219574,-0.7486673593521118,-0.45206236839294434,0.07991579174995422,-0.8883991837501526,0.09857726097106934,-0.10846499353647232,0.1588001847267151,-0.8388955674334874,-0.08188558029922643,0.22157430563961303,-0.49036077103748466,-0.08000110357201536,-0.4707029167746631,1.038742051714011
1781552672291450880,2.961315155029297,-0.260976105928421,0.42115646600723267,-0.6817634701728821,-0.448781281709671,0.07869623601436615,-0.8901697993278503,0.10074356198310852,-0.10661981999874115,0.15849560499191284,-0.8412226994529728,-0.08066752162035791,0.2200178407255154,-0.48726716775035983,-0.07877769575527992,-0.46696403670478964,1.0312810953905642
1781552672301486080,2.9713501930236816,-0.34039556980133057,0.37676769495010376,-0.6178515553474426,-0.44572019577026367,0.07844208925962448,-0.8917288780212402,0.11335325241088867,-0.09876679629087448,0.15599584579467773,-0.8433651715211467,-0.07915058401790351,0.21879386135000664,-0.48435495655559985,-0.07852275872549389,-0.46351820604413135,1.0240942930054873
1781552672311521024,2.9813852310180664,-0.45522335171699524,0.32732635736465454,-0.5579347014427185,-0.4430268108844757,0.07941236346960068,-0.8929842710494995,0.1389191448688507,-0.08231153339147568,0.161737322807312,-0.8453364980137356,-0.07723945155535492,0.21804110936951326,-0.481558320038095,-0.0794960701226376,-0.4605383034292268,1.0169854892557315
1781552672321555968,2.991420269012451,-0.5207871794700623,0.26265057921409607,-0.46848735213279724,-0.44077569246292114,0.08153475075960159,-0.8939065337181091,0.15505486726760864,-0.05799043923616409,0.16789335012435913,-0.8470873981690457,-0.07500046540840946,0.21776517478721097,-0.4789531848846158,-0.08162536051767738,-0.45810374056668623,1.010156773996828
1781552672331590912,3.001455068588257,-0.5609548091888428,0.22894400358200073,-0.41288456320762634,-0.4389360547065735,0.0845198780298233,-0.8945342302322388,0.16368278861045837,-0.0381331741809845,0.16014403104782104,-0.8486060919382878,-0.07255975356770943,0.21787143373083692,-0.4765865207854223,-0.08462083372402703,-0.4561692468726382,1.0037740591184494
1781552672341625856,3.0114901065826416,-0.5733547806739807,0.19179438054561615,-0.3833136260509491,-0.43740516901016235,0.08783351629972458,-0.8949648141860962,0.16352516412734985,-0.005603909492492676,0.1445833444595337,-0.8499797665876343,-0.0700965471195784,0.21818358462666246,-0.474359261186927,-0.08794684362721074,-0.4545991575326297,0.9977012597220349
1781552672351661056,3.0215251445770264,-0.5693632364273071,0.16677610576152802,-0.3562180697917938,-0.4361109435558319,0.09139271825551987,-0.8952400088310242,0.1624750792980194,0.03954295068979263,0.13187330961227417,-0.8512540635534929,-0.06761122064302581,0.21865207470600598,-0.47221452359778016,-0.09152042679814638,-0.45331014810665016,0.9918117559892556
1781552672361696000,3.031560182571411,-0.5671604871749878,0.1373477727174759,-0.3211594223976135,-0.4350760579109192,0.0950082391500473,-0.8953671455383301,0.1569540798664093,0.0900961384177208,0.11060762405395508,-0.8523970143866519,-0.06520897071189068,0.21923554833174944,-0.4702159565505632,-0.09515175900126975,-0.45231962261804576,0.986292726135366
1781552672371730944,3.041595220565796,-0.5507567524909973,0.08620390295982361,-0.3046739399433136,-0.43436938524246216,0.09867410361766815,-0.8953137397766113,0.14646655321121216,0.12753744423389435,0.09328126907348633,-0.8534441655575027,-0.06288953097079987,0.21997283845125296,-0.46828396961414515,-0.09883493178996113,-0.4517043686264057,0.9809605492541116
1781552672381766144,3.0516302585601807,-0.5534380674362183,0.05119664967060089,-0.26911407709121704,-0.4340496361255646,0.102373406291008,-0.8950533866882324,0.13610652089118958,0.1412789225578308,0.06129789352416992,-0.854353396790142,-0.06069166476356567,0.22088419083935748,-0.46648351886672074,-0.10255307553729415,-0.4515294000175082,0.9759717761772199
1781552672391800832,3.0616650581359863,-0.5552077293395996,0.002991568762809038,-0.23155523836612701,-0.43408557772636414,0.10625427961349487,-0.8945835828781128,0.12413376569747925,0.13376647233963013,0.029700160026550293,-0.8551292046880961,-0.05853791505686789,0.2219944500016496,-0.4648072151135697,-0.1064552399594713,-0.45176808663016743,0.9712725445711421
1781552672401836032,3.071700096130371,-0.5540026426315308,-0.055375467985868454,-0.22772854566574097,-0.4345574378967285,0.11025872826576233,-0.8938695788383484,0.11056756973266602,0.12329229712486267,0.005792796611785889,-0.8557958218902162,-0.05645861464201423,0.22333301038390344,-0.4631935529306855,-0.1104833614873844,-0.45250883268670716,0.9667329978608339
1781552672411870976,3.081735134124756,-0.5070351362228394,-0.09994053840637207,-0.21489690244197845,-0.43555575609207153,0.11412328481674194,-0.8928980827331543,0.09049353003501892,0.12171654403209686,-0.029251515865325928,-0.8563643526208977,-0.05458734418334564,0.22488033854990408,-0.461615719310581,-0.11437247638069468,-0.4538401200295261,0.9623457492318419
1781552672421905920,3.0917701721191406,-0.4046241044998169,-0.10902338474988937,-0.17980176210403442,-0.43672651052474976,0.11736348271369934,-0.8919057250022888,0.059559792280197144,0.12956948578357697,-0.06715494394302368,-0.8568204930527885,-0.05308674593954533,0.22633813062926353,-0.46022980694468235,-0.11763459963411253,-0.45533779123652485,0.9585435712531041
1781552672431941120,3.1018052101135254,-0.21140137314796448,-0.14500534534454346,-0.16519273817539215,-0.43803921341896057,0.11941806226968765,-0.8909887671470642,0.02820339798927307,0.13886746764183044,-0.09366089105606079,-0.8571600760509475,-0.05221743394617195,0.22754989681516674,-0.45909812945114853,-0.11970373205426398,-0.45693140228994805,0.9555809682857074
1781552672441976064,3.11184024810791,-0.09354875981807709,-0.21517138183116913,-0.12946030497550964,-0.43984255194664,0.12002643197774887,-0.890018105506897,0.012962698936462402,0.14445416629314423,-0.11623799800872803,-0.8573312662144719,-0.05219794624165207,0.2286183014847125,-0.45824916935253157,-0.12031650563776791,-0.45899290205694004,0.9536011805606475
1781552672452010752,3.121875047683716,-0.028142062947154045,-0.21938343346118927,-0.0675727054476738,-0.4419201612472534,0.12015371024608612,-0.8889710903167725,0.016505151987075806,0.14850777387619019,-0.10564249753952026,-0.8573208068387317,-0.05254459520053238,0.22968133640628918,-0.4576968774219781,-0.1204447141103832,-0.4613363188005812,0.9524296065130059
1781552672462045952,3.1319100856781006,0.05323002487421036,-0.23898044228553772,-0.03852800652384758,-0.444033145904541,0.11981116235256195,-0.8879638910293579,0.015551090240478516,0.13356103003025055,-0.11745297908782959,-0.857166829504071,-0.053188666748094623,0.23062745624673164,-0.45743531701074014,-0.12009967554424568,-0.46369375220122266,0.9520358794727498
1781552672472080896,3.1419451236724854,0.11490457504987717,-0.23088230192661285,-0.04901367053389549,-0.4461814761161804,0.11885900795459747,-0.8870144486427307,0.01362532377243042,0.09906702488660812,-0.11669343709945679,-0.856971308044801,-0.05414494769569331,0.23143270968540178,-0.4572826799378138,-0.1191406631218194,-0.4660566120271934,0.9520264947216598
1781552672482116096,3.15198016166687,0.12326210737228394,-0.22243130207061768,-0.03841402009129524,-0.44824543595314026,0.11758319288492203,-0.8861434459686279,0.012973248958587646,0.06874186545610428,-0.1166335940361023,-0.8567816291903987,-0.05523310354298307,0.2321154456696619,-0.4571617638948988,-0.11785584311145465,-0.4683074500946056,0.9521562494791156
1781552672492151040,3.162015199661255,0.07558566331863403,-0.23418650031089783,-0.03309675306081772,-0.4502977430820465,0.11653367429971695,-0.8852411508560181,0.01896229386329651,0.041898325085639954,-0.09228265285491943,-0.8565704560522823,-0.056223914120973335,0.2328482572586817,-0.4570641103018549,-0.11679905698393121,-0.47056144967550206,0.9522972219422025
1781552672502185984,3.1720502376556396,0.0408409982919693,-0.22706560790538788,-0.053165003657341,-0.4524145722389221,0.11585155129432678,-0.884250819683075,0.01923280954360962,0.018654674291610718,-0.06969815492630005,-0.8563779875025039,-0.05704541491735562,0.2337101152264015,-0.4568831459673159,-0.11611227979417738,-0.47291304323170796,0.9521756311796749
1781552672512221184,3.1820852756500244,0.06165013834834099,-0.21534396708011627,-0.06987793743610382,-0.4544513523578644,0.11515578627586365,-0.8832967281341553,0.00825384259223938,0.0076164379715919495,-0.06132912635803223,-0.8562477309434076,-0.057825705230004694,0.23453744315030045,-0.45660521915862146,-0.11541182501576783,-0.47517587860604704,0.9518276568359217
1781552672522255872,3.19212007522583,0.10737768560647964,-0.18579405546188354,-0.07851483672857285,-0.45632779598236084,0.11407295614480972,-0.8824694156646729,-0.0005813539028167725,0.01115591824054718,-0.05059021711349487,-0.8561551682283087,-0.058736626304734085,0.23519202767560607,-0.45632560885304857,-0.1143218164969888,-0.47723638328944584,0.9515486792151208
1781552672532290816,3.202155113220215,0.17563235759735107,-0.14265404641628265,-0.10629773139953613,-0.45789873600006104,0.11240177601575851,-0.8818699717521667,-0.012834876775741577,0.01862543821334839,-0.04081374406814575,-0.8561310622850326,-0.05982908084444671,0.23555362406487773,-0.456042325499728,-0.11263981541685851,-0.4789178200333061,0.9513666152018048
1781552672542326016,3.2121901512145996,0.24020017683506012,-0.09926782548427582,-0.12226764112710953,-0.4591142237186432,0.11002358794212341,-0.8815378546714783,-0.02541336417198181,0.020637422800064087,-0.03482872247695923,-0.8561895958167185,-0.061141680317252575,0.23556904440658427,-0.4557503074063013,-0.11024678172334491,-0.4801571090114407,0.9512919380621964
1781552672552359936,3.222224235534668,0.26788267493247986,-0.030153466388583183,-0.12803977727890015,-0.4598234295845032,0.10717824101448059,-0.8815187215805054,-0.03063979744911194,0.01339671015739441,-0.03457319736480713,-0.8563189965172707,-0.06253950882555263,0.235222132293538,-0.4554966379599415,-0.10738450588118069,-0.4807986644188117,0.9513709347125168
1781552672562395136,3.2322592735290527,0.2471694052219391,0.017692483961582184,-0.13354425132274628,-0.4599846303462982,0.10428762435913086,-0.881781280040741,-0.03983229398727417,-0.005944728851318359,-0.023919403553009033,-0.8565344302301825,-0.06380945319617473,0.23460116391365438,-0.4552356256272491,-0.10447759632411015,-0.48082025689973984,0.9514004856826157
1781552672572429824,3.2422940731048584,0.21393288671970367,0.06885447353124619,-0.13758987188339233,-0.45976123213768005,0.1015927642583847,-0.8822122812271118,-0.043061643838882446,-0.0225827619433403,-0.008611023426055908,-0.8568180023838493,-0.06487929829018364,0.23384722250397963,-0.45493862507363664,-0.10176834095267477,-0.4804207712826045,0.9512728600152375
1781552672582465024,3.252329111099243,0.16845914721488953,0.1230255663394928,-0.14710959792137146,-0.45905762910842896,0.099263995885849,-0.8828436136245728,-0.051272571086883545,-0.0405634269118309,-0.007216811180114746,-0.8571897065834432,-0.06564153157669564,0.23295793020324165,-0.4545852609239656,-0.09942773330712307,-0.47950053356744726,0.9508934827186674
1781552672592499968,3.262364149093628,0.11868014186620712,0.17469382286071777,-0.1414402574300766,-0.45786383748054504,0.0973186269402504,-0.8836796879768372,-0.06450554728507996,-0.0461101308465004,-0.003863036632537842,-0.8576496061266765,-0.06608664681104433,0.23193255669487914,-0.45417729481488656,-0.09747290364274186,-0.4780487608325182,0.950260520384577
1781552672602534912,3.2723991870880127,0.08894754201173782,0.22731082141399384,-0.11795412003993988,-0.4562219977378845,0.09582016617059708,-0.8846920132637024,-0.07849174737930298,-0.039545752108097076,0.0037716031074523926,-0.8581422901813838,-0.06622191222857218,0.2308000067670342,-0.45380373719345757,-0.09596740241402908,-0.4761163573741303,0.9495712643691806
1781552672612570112,3.2824342250823975,0.08158949762582779,0.30298852920532227,-0.10162921249866486,-0.4539738595485687,0.09454003721475601,-0.885985255241394,-0.09207713603973389,-0.02842371165752411,0.005751550197601318,-0.8586729510164919,-0.06612129242078026,0.22942391408866453,-0.4535123794255846,-0.09468143952483281,-0.4735138654687462,0.9489731501275642
1781552672622605056,3.2924692630767822,0.06932856887578964,0.36880987882614136,-0.08972221612930298,-0.45109307765960693,0.0934375673532486,-0.8875722289085388,-0.10110723972320557,-0.018745794892311096,0.005766808986663818,-0.8592485729421313,-0.06579510948674804,0.22778253665806014,-0.4532969938413808,-0.0935740680070004,-0.4702119266630137,0.9484589620765118
1781552672632640000,3.302504062652588,0.06752587854862213,0.41174909472465515,-0.0693168118596077,-0.44767019152641296,0.0924932137131691,-0.8894022703170776,-0.10295844078063965,-0.010980762541294098,0.013013720512390137,-0.8598535754730914,-0.06527730994702007,0.22591533529601737,-0.4531588519933846,-0.0926256013882018,-0.46631465760378316,0.9480450498682133
1781552672642674944,3.3125391006469727,0.0952557772397995,0.4579595923423767,-0.06599637866020203,-0.443829208612442,0.09148280322551727,-0.8914294838905334,-0.09445509314537048,-0.005331680178642273,0.008403360843658447,-0.8604717742157015,-0.06470361607620229,0.22382738886613104,-0.4531037803851523,-0.09161088926202517,-0.4619540325499023,0.9478045489753985
1781552672652709888,3.3225741386413574,0.11914006620645523,0.48133257031440735,-0.0661308690905571,-0.43965592980384827,0.09021487832069397,-0.8936240673065186,-0.08190473914146423,0.00501522421836853,-0.0010292530059814453,-0.8611159521776062,-0.06417252626507955,0.22151718706201967,-0.45309091778095906,-0.090337701766159,-0.45722076751638274,0.9476899389269682
1781552672662745088,3.332609176635742,0.14091140031814575,0.4752202332019806,-0.06168552115559578,-0.4354117512702942,0.08878183364868164,-0.8958428502082825,-0.0622994601726532,0.010934345424175262,0.0013268589973449707,-0.8617492562326264,-0.06370895603326687,0.21913409476446064,-0.45311097101469744,-0.08889888251925719,-0.4524140177435229,0.9476811562730586
1781552672672780032,3.342644214630127,0.15298616886138916,0.4571661353111267,-0.05975393205881119,-0.43127357959747314,0.08720745146274567,-0.8979966044425964,-0.05508503317832947,0.005672790110111237,0.002595663070678711,-0.8623468163844185,-0.0633478060696219,0.2167688616500195,-0.45316242832425613,-0.08731836716468723,-0.44773280917465685,0.9477833234300516
1781552672682814976,3.3526792526245117,0.17107808589935303,0.4788329601287842,-0.09240801632404327,-0.4271013140678406,0.0854538157582283,-0.9001566767692566,-0.058204472064971924,-0.0017135962843894958,-0.010014772415161133,-0.8629788182841871,-0.06304561295214609,0.21435227719903607,-0.45315094759947655,-0.0855581635421262,-0.4430194032577858,0.9477727661105307
1781552672692849920,3.3627140522003174,0.1927519589662552,0.4587987959384918,-0.09466184675693512,-0.4229053258895874,0.08340661227703094,-0.9023272395133972,-0.0646435022354126,0.0005777701735496521,-0.009965240955352783,-0.8636423424087413,-0.0628589981867187,0.21186110284749593,-0.45308457176938993,-0.08350361851215525,-0.4382815240598481,0.9476911835738085
1781552672702884864,3.372749090194702,0.25365978479385376,0.4825318157672882,-0.12259494513273239,-0.4187409579753876,0.08096646517515182,-0.9044890403747559,-0.05632618069648743,0.030682086944580078,-0.00899362564086914,-0.8643091558435633,-0.06285780215345778,0.20929494258210277,-0.45300572680206713,-0.08105519285839832,-0.4335778690967627,0.9476593277051772
1781552672712920064,3.382784128189087,0.3439294993877411,0.45725440979003906,-0.13826924562454224,-0.4145730137825012,0.07768303155899048,-0.9066942930221558,-0.05046910047531128,0.06532233208417892,-0.010252118110656738,-0.8650073332856046,-0.06322964538253022,0.20653053915859731,-0.4528900362558791,-0.07776137749927417,-0.4288548311780916,0.9477045692422312
1781552672722955008,3.3928191661834717,0.4174535274505615,0.48815813660621643,-0.16649767756462097,-0.41043031215667725,0.07362700998783112,-0.9089147448539734,-0.044327378273010254,0.08811615407466888,-0.02077275514602661,-0.8657031537508244,-0.06396203665615935,0.20359638225680668,-0.4527862441257771,-0.07369369279326575,-0.4241511788196798,0.9479242102056988
1781552672732989952,3.4028542041778564,0.5220348238945007,0.485948771238327,-0.1989288628101349,-0.40607139468193054,0.06858891248703003,-0.9112637042999268,-0.05710914731025696,0.09353571385145187,-0.03221774101257324,-0.8664723712954091,-0.06506810132591097,0.20033542258013756,-0.4526117618787363,-0.06864280595379156,-0.4192001064946167,0.9481450893457725
1781552672743025152,3.412889242172241,0.5694712996482849,0.513633131980896,-0.226547971367836,-0.4016946256160736,0.06272753328084946,-0.9136228561401367,-0.057991623878479004,0.08838024735450745,-0.02914142608642578,-0.867261772436918,-0.06653694691538158,0.19687920428092887,-0.4524028798858264,-0.06276874612422065,-0.41423227397281537,0.9484330236601404
