time,seconds_elapsed,rotationRateX,rotationRateY,rotationRateZ,gravityX,gravityY,gravityZ,accelerationX,accelerationY,accelerationZ,quaternionW,quaternionX,quaternionY,quaternionZ,pitch,roll,yaw
1781116110611282432,0.027233362197875977,-0.03328317031264305,-0.025845492258667946,0.00399304972961545,0.22167834639549255,-0.422206312417984,-0.8789770007133484,-0.011534303426742554,-0.011677354574203491,0.010645091533660889,0.897895852235904,0.15868766408271012,0.1879620213808862,0.3650639626107908,0.43587782429205135,0.24704854349098465,0.7173505007679701
1781116110621316352,0.037267446517944336,0.025226479396224022,0.005934274755418301,-0.005273153074085712,0.221607968211174,-0.4221891462802887,-0.8790029883384705,-0.019139111042022705,0.057595640420913696,-0.003443300724029541,0.8979036698923256,0.1586928825007477,0.18792305621054534,0.3650624763789367,0.43585889911000475,0.24696626049386428,0.7173625047536242
1781116110631351552,0.0473024845123291,0.02606510929763317,-0.005674710497260094,-0.009421825408935547,0.22166498005390167,-0.42241936922073364,-0.8788779973983765,0.002059370279312134,0.05723077058792114,-0.002744317054748535,0.8978964711395834,0.15880877438420307,0.18799141939659395,0.36499457035311683,0.4361128724805714,0.24706096311471049,0.717183954393114
1781116110641384704,0.057335615158081055,0.004304152447730303,-0.021370582282543182,-0.003251813817769289,0.2215718924999237,-0.4225449562072754,-0.8788411021232605,0.0111551433801651,0.0037827491760253906,0.001933753490447998,0.8979095267323346,0.15889970757771557,0.18796364405201743,0.3649371182075257,0.43625141694461245,0.2469713247883885,0.7170660751666041
1781116110651419648,0.06737065315246582,0.009102103300392628,-0.017403537407517433,-0.008407959714531898,0.221420556306839,-0.42257148027420044,-0.8788664937019348,0.00817844271659851,-0.027562826871871948,0.011312782764434814,0.897935676856161,0.15895107513302742,0.18788644517265765,0.36489006016300285,0.4362806902062347,0.2468025647187548,0.7169898885800845
1781116110661454592,0.07740569114685059,0.021523088216781616,-0.0021942253224551678,-0.006686759181320667,0.22136811912059784,-0.42268404364585876,-0.8788255453109741,0.0035006552934646606,-0.017135292291641235,0.010310530662536621,0.8979457395252186,0.15902703834996287,0.1878766339993559,0.3648371048302589,0.43640488978963576,0.2467574982637212,0.7168747395707736
1781116110671488768,0.08743977546691895,0.03344046697020531,0.006451194640249014,0.0009434638195671141,0.22142080962657928,-0.42293599247932434,-0.8786910772323608,0.010116040706634521,0.003868609666824341,0.00665128231048584,0.8979246213337719,0.15914851536415267,0.18795268839507376,0.3647972476501013,0.43668291338280496,0.24685013553423912,0.7167581369638514
1781116110681523456,0.09747457504272461,0.000495033455081284,0.004997774492949247,0.003070530714467168,0.2214808166027069,-0.42310670018196106,-0.8785937428474426,0.00988820195198059,0.0011859238147735596,0.008186638355255127,0.8978975921535647,0.15922065506958094,0.18802102310445548,0.3647970091032659,0.4368713120557763,0.2469405900550396,0.7167337520030614
1781116110691557632,0.10750865936279297,-0.027214623987674713,-0.004626889247447252,0.003982663154602051,0.22145508229732513,-0.4229864478111267,-0.8786581158638,0.005107417702674866,-0.011690676212310791,0.01881009340286255,0.8979026022615629,0.15916009408461126,0.18798668574820965,0.3648288219895551,0.43673859956839045,0.2468956973500021,0.7168180703344262
1781116110701592576,0.11754369735717773,-0.039738938212394714,0.0014694854617118835,0.0015224351081997156,0.2214457243680954,-0.422661691904068,-0.8788167834281921,0.002888992428779602,-0.015006154775619507,0.02652186155319214,0.8979315648263458,0.158995365542701,0.18791511338736447,0.3648662961843375,0.43638023970351947,0.24684289995187858,0.7169257448209649
1781116110711626752,0.1275777816772461,-0.029694559052586555,0.010740481317043304,-0.0019945353269577026,0.22150228917598724,-0.4223620891571045,-0.8789465427398682,0.0019779354333877563,-0.00302240252494812,0.023370981216430664,0.8979539474316222,0.15883127478708028,0.18788122919724523,0.36490011193421357,0.43604969223836443,0.24686842454962418,0.7170102410325422
1781116110721661440,0.13761258125305176,-0.026558421552181244,0.014422968029975891,-0.001514900242909789,0.22163447737693787,-0.42210817337036133,-0.8790351748466492,0.0014795362949371338,0.006336688995361328,0.016425371170043945,0.897970057052978,0.15867795367117138,0.18789284001645473,0.36492092093727124,0.43576955032790937,0.24698593441788963,0.7170473719380497
1781116110731695616,0.14764666557312012,-0.046186983585357666,0.017947394400835037,0.00014904289855621755,0.22177653014659882,-0.421796053647995,-0.8791491389274597,-0.0028587132692337036,0.0011570453643798828,0.017149686813354492,0.8979854063729908,0.15849028961707376,0.18789957935159002,0.3649612336330939,0.43542530412806457,0.2471071247196155,0.7171300937337421
1781116110741730816,0.15768170356750488,-0.07705675065517426,0.006435615010559559,0.003572536399587989,0.22187785804271698,-0.42131176590919495,-0.879355788230896,-0.003845006227493286,-0.007414400577545166,0.017646193504333496,0.898013529836344,0.15821954582921344,0.1878528290237491,0.36503360323635126,0.43489124893477316,0.24715972759203686,0.7173043121782524
1781116110751765760,0.16771674156188965,-0.07845863699913025,0.010707325302064419,0.00501437159255147,0.22193509340286255,-0.42064231634140015,-0.8796617984771729,-0.003246128559112549,-0.013561785221099854,0.011848688125610352,0.8980587378351872,0.15786130645143112,0.18774693809172785,0.3651321141606869,0.4341532124540462,0.24713837037537145,0.7175584124024356
1781116110761799680,0.1777505874633789,-0.04020791873335838,0.0012786700390279293,0.009324431419372559,0.22197242081165314,-0.4201068580150604,-0.8799082040786743,-0.001330345869064331,-0.012311935424804688,0.0008341073989868164,0.8980860489426991,0.15757165810860269,0.1876620806226382,0.36523374291821836,0.43356307654949855,0.24711182134828016,0.7178141858182142
1781116110771834624,0.18778562545776367,-0.006879259832203388,0.005567158572375774,0.005484419409185648,0.2219797968864441,-0.41996243596076965,-0.8799753189086914,8.134543895721436e-05,-0.005162715911865234,-0.0015554428100585938,0.8980786158867985,0.15748635407471245,0.18764431310426719,0.3652979616950103,0.43340391548176715,0.24710162605361388,0.7179656789349914
1781116110781868800,0.19781970977783203,0.011949555017054081,0.008821940049529076,-0.005014293827116489,0.22207196056842804,-0.42007768154144287,-0.8798970580101013,0.0043837279081344604,0.009311109781265259,0.0005788207054138184,0.8980543840030452,0.15752395808432768,0.18771703004419305,0.3653039099431876,0.43353093091071615,0.24722120227289107,0.7179526026368933
1781116110791903744,0.2078547477722168,0.0011517689563333988,0.005473015364259481,-0.007531247101724148,0.22218511998653412,-0.4201844334602356,-0.8798174858093262,0.0064525604248046875,0.012698471546173096,-0.0016369223594665527,0.8980447565197814,0.15756113055916343,0.18779174488064743,0.3652730470183582,0.43364854183342705,0.24736354865032867,0.7178539226104025
1781116110801937664,0.21788859367370605,-0.022121595218777657,-0.0019086007960140705,-0.005512305069714785,0.22224006056785583,-0.42009642720222473,-0.8798456192016602,0.004825964570045471,0.0041113197803497314,-0.0034551620483398438,0.898060104351337,0.15751169850494143,0.18779576185020613,0.36525445828894854,0.4335515714514256,0.24741466499110548,0.7178076125325634
1781116110811972608,0.22792363166809082,-0.03850056976079941,-0.009476771578192711,0.0012670379364863038,0.2221953272819519,-0.4198378324508667,-0.8799803853034973,0.002368256449699402,-0.0013658106327056885,5.179643630981445e-05,0.898086756556168,0.15738835019287586,0.187719804263004,0.3652812231413204,0.43326662730835974,0.24733051592820296,0.7178940046261334
1781116110822006784,0.23795771598815918,-0.03951789438724518,-0.010136038064956665,0.0018950114026665688,0.22209422290325165,-0.4195503294467926,-0.8801429867744446,0.003720596432685852,0.004343390464782715,0.00730973482131958,0.8981168453991405,0.1572593517867177,0.18761129780041969,0.36531853796473474,0.43294987035255816,0.24717866589985857,0.7180170472305707
1781116110832041728,0.24799275398254395,-0.045464202761650085,-0.0018008765764534473,0.0004963190876878798,0.22203385829925537,-0.41923055052757263,-0.880310595035553,0.004681229591369629,0.00921165943145752,0.0069127678871154785,0.8981447592316162,0.15710511092817603,0.18751718921670596,0.36536464110787475,0.4325976466514421,0.24706903499763627,0.7181537489953406
1781116110842076672,0.2580277919769287,-0.051902126520872116,0.005566226318478584,-0.002406259998679161,0.22205057740211487,-0.4188489317893982,-0.8804879784584045,0.006861776113510132,0.008082330226898193,0.007654786109924316,0.8981771629982173,0.1569070426949951,0.18744646334677528,0.3654064326806343,0.43217733086626614,0.24703910556363665,0.7182697685734959
1781116110852110592,0.26806163787841797,-0.05131117254495621,-0.001538288313895464,0.002070513553917408,0.2220587581396103,-0.4183778166770935,-0.8807098865509033,0.006884127855300903,-0.0014982819557189941,0.00735783576965332,0.8982173313274195,0.1566645907310528,0.18735327513142871,0.36545962219381245,0.4316585741907744,0.24698808761784563,0.7184190334327036
1781116110862145536,0.27809667587280273,-0.015681272372603416,-0.002898631151765585,0.01252741552889347,0.22202534973621368,-0.4180736541748047,-0.8808627724647522,0.008687540888786316,-0.0048694610595703125,0.0014377236366271973,0.8982378490371682,0.1565112876125855,0.1872774431676013,0.3655136664776873,0.43132372162870647,0.24691129417005492,0.7185668772858663
1781116110872179712,0.2881307601928711,0.00920197181403637,0.00842326506972313,0.00985013972967863,0.2220219373703003,-0.4180440902709961,-0.8808776140213013,0.008156880736351013,0.0034322738647460938,0.01004326343536377,0.8982183637370055,0.15648547795919315,0.18727917374637038,0.3655714497226959,0.431291185518618,0.24690366003963926,0.7186981689266744
1781116110882214912,0.29816579818725586,0.023086097091436386,0.012417340651154518,0.0010358755243942142,0.2221001237630844,-0.41819560527801514,-0.8807860016822815,0.0038977861404418945,0.010648608207702637,0.011263906955718994,0.8981872691853058,0.1565417010596189,0.18735447056774962,0.36558526052899365,0.43145795696183403,0.24701177143666142,0.7187030568724121
1781116110892248576,0.3081996440887451,0.018498802557587624,0.014504993334412575,-0.0008967804606072605,0.22222383320331573,-0.4183959364891052,-0.8806596398353577,0.007863461971282959,0.009155213832855225,0.005140841007232666,0.8981555770493546,0.15661779553826616,0.18745944298900102,0.36557678662295456,0.4316785232862667,0.2471778494423999,0.7186459301439514
1781116110902283776,0.3182346820831299,0.005599247757345438,0.007300609722733498,0.0014939391985535622,0.2223413586616516,-0.41849955916404724,-0.880580723285675,0.007822230458259583,0.003628373146057129,-0.004993617534637451,0.8981346028873727,0.1566466766066364,0.18754055461667546,0.36557417299224554,0.43179262633539406,0.2473245941667593,0.7186096420700196
1781116110912317696,0.32826876640319824,-0.003489322029054165,0.0002634730190038681,0.002966933650895953,0.22238852083683014,-0.4184955060482025,-0.8805707693099976,0.006081312894821167,0.0021441876888275146,-0.0004106760025024414,0.8981272785599738,0.15663338267526916,0.18756492423764073,0.36558563136969224,0.43178815850856866,0.24737761966905195,0.7186261754918407
1781116110922352640,0.3383035659790039,-0.005745552014559507,-0.0019040736369788647,0.0002859293599613011,0.22240076959133148,-0.4184398949146271,-0.8805941343307495,0.004176989197731018,0.0059947967529296875,0.0021761655807495117,0.8981317077447265,0.15660285751229325,0.1875592982794138,0.3655908028796843,0.4317269215710924,0.24738440863754937,0.7186391284969978
1781116110932387584,0.34833860397338867,-0.01281491294503212,-0.0025072800926864147,0.0045832060277462006,0.22239725291728973,-0.4183630347251892,-0.8806315064430237,0.0032497048377990723,0.013013303279876709,-0.0010823607444763184,0.8981350333883106,0.15656248086272762,0.18754318950613355,0.36560791618925054,0.4316423146959832,0.24737057085314546,0.7186831597147557
1781116110942421760,0.35837268829345703,-0.012734485790133476,-0.003986665513366461,0.0015844868030399084,0.22238565981388092,-0.4182792007923126,-0.8806742429733276,0.0026051849126815796,0.011662989854812622,-0.0013905763626098633,0.8981411153350899,0.1565208049032236,0.18752098279361962,0.365622182797243,0.43155000513621533,0.24734666336142846,0.7187230020819901
1781116110952456704,0.3684077262878418,-0.024358384311199188,-0.006310007069259882,-0.0010198184754699469,0.22237063944339752,-0.418117880821228,-0.8807546496391296,-5.008280277252197e-05,0.00034752488136291504,0.0020467638969421387,0.8981591185810356,0.15644270403602992,0.187478967314005,0.36563304904278254,0.43137242331969095,0.2473089734656605,0.7187613291519441
1781116110962490624,0.37844157218933105,-0.02846098318696022,-0.0045613753609359264,4.278277629055083e-05,0.22234012186527252,-0.41786113381385803,-0.8808841705322266,0.001735195517539978,-0.004975169897079468,0.009256362915039062,0.8981847722235813,0.1563179137980489,0.1874102800965832,0.36565866070621733,0.4310897758811928,0.2472414918813778,0.7188421101242833
1781116110972525568,0.3884766101837158,-0.03478385880589485,-0.003361621405929327,0.0018654502928256989,0.22231560945510864,-0.41756391525268555,-0.881031334400177,-0.0010174065828323364,-0.0017170906066894531,0.011600792407989502,0.8982144440164024,0.15617183529508769,0.18733580165788985,0.3656864154972339,0.43076265898992044,0.24717571114309383,0.7189292498311215
1781116110982559744,0.3985106945037842,-0.03646857663989067,-0.003930206876248121,-0.0010222152341157198,0.22230592370033264,-0.4172458350658417,-0.881184458732605,-0.003952652215957642,-0.0037746429443359375,0.01305091381072998,0.8982469308670353,0.15601340047631254,0.18726345709777753,0.3657113224752184,0.4304126475287999,0.24712414743898867,0.7190085353082005
1781116110992594688,0.40854573249816895,-0.03861162066459656,0.0020559136755764484,0.004045247565954924,0.22231236100196838,-0.41690242290496826,-0.8813453316688538,-0.001975446939468384,-0.008497357368469238,0.01618725061416626,0.8982764307913712,0.1558369401892113,0.187195559876977,0.3657488384768382,0.43003478221951746,0.24708771582928524,0.7191144410121318
1781116111002628608,0.4185795783996582,-0.042510490864515305,0.009278672747313976,0.008020281791687012,0.22234870493412018,-0.4165579676628113,-0.8814990520477295,-0.001431971788406372,-0.00908595323562622,0.017439603805541992,0.898292219699293,0.15564834413742692,0.1871472050939182,0.36581516895832006,0.42965585969384895,0.24708513390282072,0.71927870879309
1781116111012663552,0.42861461639404297,-0.0386105552315712,0.015436965972185135,0.010457873344421387,0.22243323922157288,-0.41617244482040405,-0.881659746170044,0.001291126012802124,-0.00515320897102356,0.01644068956375122,0.8983019333117733,0.15542662702552754,0.1871167662414091,0.36590084583271903,0.42923183646818,0.2471320431468635,0.7194793240525443
1781116111022698752,0.43864965438842773,-0.043289199471473694,0.021169953048229218,0.018194355070590973,0.22254116833209991,-0.4158231019973755,-0.8817973136901855,0.0016867071390151978,-0.003198474645614624,0.008353769779205322,0.8982934694681406,0.1552120864716784,0.18711103313760594,0.3660155358390814,0.42884767005038815,0.24721010886676023,0.7197375572981807
1781116111032732672,0.4486837387084961,-0.06491006910800934,0.03449028730392456,0.01649872027337551,0.22270621359348297,-0.4154100716114044,-0.881950318813324,0.004268243908882141,0.001622229814529419,0.00447845458984375,0.8982759772569386,0.15494888937368193,0.18712474877554916,0.36616304144827067,0.42839355793113143,0.24734488233244042,0.7200621683836618
1781116111042767872,0.45871877670288086,-0.06610609591007233,0.03162112832069397,0.013894150033593178,0.22296003997325897,-0.4148843288421631,-0.8821336627006531,0.008195355534553528,-0.00023102760314941406,0.003837764263153076,0.898262308855992,0.15461165687506165,0.18715874700485677,0.36632185568466663,0.4278156682821498,0.24756601942954895,0.7204025240719765
1781116111052801536,0.4687526226043701,-0.07432594150304794,0.019420655444264412,0.014724789187312126,0.22314205765724182,-0.4143323302268982,-0.882347047328949,0.003847673535346985,-0.008656561374664307,0.006858766078948975,0.8982626655349188,0.15427821981358295,0.1871488683115555,0.3664665747675736,0.4272090887127104,0.24770246656034614,0.7207274355026349
1781116111062836736,0.4787876605987549,-0.05446994677186012,0.02886822074651718,0.015547706745564938,0.22325904667377472,-0.4138217270374298,-0.8825570940971375,-0.0029373914003372192,-0.004589498043060303,0.005588710308074951,0.8982596667594911,0.153976070216904,0.18711716334804498,0.3666172338316205,0.4266481402943518,0.24777048223102743,0.721075488281852
1781116111072870656,0.48882174491882324,-0.03608454763889313,0.029849061742424965,0.004359500482678413,0.22348475456237793,-0.4134865999221802,-0.882656991481781,-0.0015609413385391235,0.007892727851867676,0.005490243434906006,0.8982396096719361,0.15374570846787272,0.18717304073511556,0.3667345368799106,0.4262800372500958,0.24798389219207187,0.7213160867369496
1781116111082905856,0.498856782913208,-0.0329020693898201,0.03317415341734886,5.663119372911751e-05,0.22376243770122528,-0.41325509548187256,-0.8826950788497925,0.0013199448585510254,0.008500456809997559,0.01120460033416748,0.8982268433374988,0.15356845376641245,0.1872676809396318,0.3667917388481057,0.42602578176302963,0.24826923842715568,0.721405705333437
1781116111092939520,0.5088906288146973,-0.050698645412921906,0.02762731909751892,0.00646153325214982,0.22403492033481598,-0.41293829679489136,-0.8827742338180542,-0.0014854967594146729,-0.006388485431671143,0.0155409574508667,0.8982160233865208,0.15334582404353883,0.18734444354335314,0.3668722197080801,0.4256779177253998,0.2485378920670459,0.7215542327047106
1781116111102974720,0.518925666809082,-0.10638268291950226,0.027588436380028725,0.001520837191492319,0.2242807000875473,-0.4122801721096039,-0.8830193877220154,-0.0037606656551361084,-0.018628031015396118,0.02216428518295288,0.8982377571043039,0.15295531753147626,0.18733655807187638,0.3669857464957096,0.4249554295561338,0.24873319085424672,0.7218053703115096
1781116111113008640,0.5289597511291504,-0.1189996749162674,0.01618478260934353,-0.0006344591383822262,0.2244722843170166,-0.4112663269042969,-0.8834433555603027,-0.0014193058013916016,-0.024494171142578125,0.023595333099365234,0.8983076619296146,0.1524012837408686,0.18722224818007246,0.36710343285048413,0.4238428986108449,0.24882240770070993,0.7221013468801563
1781116111123043840,0.5389947891235352,-0.11843907833099365,0.009032996371388435,-0.001749258255586028,0.22458721697330475,-0.4102068543434143,-0.8839066624641418,0.0017006248235702515,-0.018824517726898193,0.018229782581329346,0.8983909519385174,0.15184096753718543,0.18705881546390032,0.36721539687724936,0.42268086943251404,0.24881943885927696,0.722402749310935
1781116111133078528,0.5490295886993408,-0.09818147867918015,0.01098749041557312,0.006878051906824112,0.22467240691184998,-0.4092281758785248,-0.8843384981155396,0.0017375051975250244,-0.0013400614261627197,0.01150524616241455,0.8984625652281305,0.1513243691095535,0.18690017234867337,0.36733412357870693,0.4216080125368263,0.24879337281179353,0.7227192084924148
1781116111143112704,0.5590636730194092,-0.08537726104259491,0.01937365159392357,0.004300644621253014,0.224778950214386,-0.4084204137325287,-0.8846848011016846,0.00482003390789032,0.008075565099716187,0.00838780403137207,0.8985038258224068,0.15088357157415533,0.18679330684280643,0.36746892792797914,0.4207228853122854,0.24881308722680842,0.72305553946031
1781116111153147648,0.569098711013794,-0.06392230093479156,0.01847989484667778,0.015301629900932312,0.22492164373397827,-0.4077660143375397,-0.8849503397941589,0.003746539354324341,-0.0013526082038879395,0.006532430648803711,0.8985276669297422,0.15051320297508547,0.1867367252658498,0.36759093529851083,0.42000608501592324,0.24889294381721172,0.7233457694882625
1781116111163181824,0.5791327953338623,-0.040039077401161194,0.008609953336417675,0.02052435465157032,0.22497683763504028,-0.40733155608177185,-0.8851363658905029,0.001707702875137329,-0.01028624176979065,0.003224194049835205,0.8985219074308933,0.15026245738048769,0.1866895818899154,0.36773161937647525,0.4195303152848132,0.24890133688034702,0.7236789185922736
1781116111173216512,0.589167594909668,-0.004652058240026236,0.010716780088841915,0.016534140333533287,0.2249923050403595,-0.40715739130973816,-0.8852126002311707,0.0005173236131668091,0.003821820020675659,0.006535232067108154,0.8984959867531325,0.15015100622074773,0.18667720888008735,0.3678468135329992,0.41933962806654845,0.2488971924499126,0.7239446187015806
1781116111183250688,0.5992016792297363,0.053598467260599136,0.02170325070619583,0.01937067322432995,0.22503532469272614,-0.40742382407188416,-0.885079026222229,0.002061203122138977,0.026610225439071655,0.00788182020187378,0.8984293728827671,0.15025726162065406,0.18677052304517933,0.36791871133594983,0.41963134983032824,0.2489788718693289,0.7240778831815932
1781116111193285632,0.6092367172241211,0.05986594781279564,0.04343064874410629,0.016529880464076996,0.22524994611740112,-0.4080141484737396,-0.8847524523735046,0.002365395426750183,0.029931873083114624,0.02180689573287964,0.8983155261475411,0.15049143125242068,0.18701896708136237,0.3679748725625852,0.42027785062525164,0.24929484805904997,0.7241209853393182
1781116111203320832,0.6192717552185059,-0.00492130359634757,0.051305219531059265,-0.005023614969104528,0.22566768527030945,-0.40831393003463745,-0.8845077157020569,0.0016730278730392456,0.003833949565887451,0.036271631717681885,0.8982340253915249,0.1505507248917114,0.18729824524134833,0.3680076314710804,0.42060624589011253,0.24980447337707284,0.7240937561485966
1781116111213354496,0.6293056011199951,-0.1027437373995781,0.02474098466336727,-0.01398035790771246,0.22607460618019104,-0.4078351557254791,-0.8846246004104614,0.006972864270210266,-0.035463154315948486,0.0317956805229187,0.8982619893176168,0.15023851499334778,0.18739283349205868,0.36801851385768336,0.4200818180801272,0.2502046545419609,0.7240746688007828
1781116111223389696,0.6393406391143799,-0.1700167953968048,0.013139723800122738,0.02124127931892872,0.2262340635061264,-0.4066036343574524,-0.8851506114006042,0.00995674729347229,-0.03880038857460022,0.000812232494354248,0.898342026396583,0.14957646907281827,0.18722064629469587,0.36818052410212365,0.41873344396902107,0.2502312019148841,0.7244924503881215
1781116111233423616,0.6493747234344482,-0.18499574065208435,-7.2373077273368835e-06,0.031448908150196075,0.22618305683135986,-0.4050683379173279,-0.8858672976493835,0.004117861390113831,-0.01000124216079712,-0.018505871295928955,0.898420435033768,0.14877968496046545,0.18689826711145346,0.36847566681780225,0.4170535825163275,0.24998304705414978,0.7252675825295725
1781116111243458816,0.659409761428833,-0.16415810585021973,-0.00205720541998744,0.014404944144189358,0.22608879208564758,-0.4035402536392212,-0.886588454246521,-0.003524094820022583,0.009604096412658691,-0.018135666847229004,0.8985092684594491,0.1479998705265994,0.1865524216477239,0.3687482015595951,0.41538284742557857,0.24968822566745197,0.7259995628597307
1781116111253492480,0.6694436073303223,-0.08423104137182236,0.013580876402556896,-0.011475388891994953,0.22613298892974854,-0.4024016559123993,-0.8870945572853088,0.0006431341171264648,0.026440352201461792,-0.007940232753753662,0.8985989904747924,0.14741363946139943,0.1863382336932165,0.3688726297352355,0.4141387573744791,0.24959839967621827,0.7263484928148852
1781116111263527680,0.679478645324707,0.017467359080910683,0.034613192081451416,-0.016686929389834404,0.22640739381313324,-0.4020717442035675,-0.8871741890907288,0.001574188470840454,0.043139249086380005,-0.00018543004989624023,0.8986332022635817,0.14720749066962704,0.18639439659583076,0.368843311983415,0.41377840753736994,0.24986733538280487,0.7262558197351344
1781116111273561600,0.6895127296447754,0.033421825617551804,0.031305812299251556,0.002231901278719306,0.2267528623342514,-0.4023667573928833,-0.8869521617889404,-0.004005074501037598,0.0335465669631958,-0.00406956672668457,0.8985861675813342,0.1472920611634298,0.18662521878818675,0.36880743926403825,0.4141006478384223,0.25029295359927956,0.7260912941490865
1781116111283596800,0.6995477676391602,-0.04303699731826782,0.01369113102555275,-0.0002746660611592233,0.22696280479431152,-0.40233010053634644,-0.8869150876998901,-0.00905202329158783,0.0010544657707214355,0.0007609128952026367,0.8985666122820952,0.14722959248335435,0.18672414404754525,0.36882994372022604,0.41406061205117795,0.25052514982423424,0.7261051902664545
1781116111293631488,0.7095825672149658,-0.10305426269769669,0.005370616912841797,-0.005339998751878738,0.22707051038742065,-0.40166229009628296,-0.8871901631355286,-0.005482375621795654,-0.013453066349029541,0.0033858418464660645,0.8986212810228753,0.14687431487622057,0.1866356193032988,0.3688833055198379,0.4133312816358226,0.2505646306982461,0.7262515643853295
1781116111303665664,0.7196166515350342,-0.10242602229118347,0.0062922039069235325,0.0035890480503439903,0.22713705897331238,-0.4007177948951721,-0.8876001834869385,-0.004007801413536072,0.0017004311084747314,0.0067102909088134766,0.8986964165487202,0.14638427396330014,0.1864713559262753,0.3689782179239837,0.412300144521663,0.2505240416468081,0.726517727600306
1781116111313700608,0.729651689529419,-0.06784780323505402,0.016756296157836914,0.008112426847219467,0.2272132784128189,-0.3999945819377899,-0.8879067897796631,-0.007318854331970215,0.014221876859664917,0.003446340560913086,0.8987348100988176,0.14599576569786255,0.18636481354294662,0.36909225466923684,0.4115109236007465,0.25052166299151224,0.7268089000560327
1781116111323734784,0.7396857738494873,0.003741959575563669,-0.013711996376514435,0.015509090386331081,0.22718623280525208,-0.3996827304363251,-0.8880541324615479,-0.003522917628288269,0.018090933561325073,0.0020220279693603516,0.8987429410253147,0.14583330087735352,0.18629434909028536,0.3691722936787986,0.4111706954554728,0.2504532322928764,0.7270141355745352
1781116111333769472,0.749720573425293,0.04932728782296181,0.04866775497794151,0.04672613367438316,0.22719158232212067,-0.400023490190506,-0.8878992795944214,0.007351234555244446,0.03347688913345337,0.009038865566253662,0.8986441787672402,0.1459692015550519,0.18639564780803464,0.36930784696856894,0.41154248383008946,0.2505007544450546,0.7272906186138073
1781116111343803648,0.7597546577453613,0.05131613835692406,0.06298530846834183,-0.02323324605822563,0.227667436003685,-0.4005514681339264,-0.8875393271446228,0.0044340044260025024,0.03093782067298889,0.031048238277435303,0.8985144095348448,0.14611904925037866,0.1867606864614369,0.3693799936917456,0.41211862265448757,0.2511012571745646,0.7273265225874781
1781116111353838592,0.7697896957397461,0.0014551030471920967,0.05696816369891167,-0.017633948475122452,0.22831404209136963,-0.4007354974746704,-0.8872901201248169,0.012667998671531677,-0.02513730525970459,0.032065510749816895,0.8984950624555131,0.14610996889413708,0.1871010557018398,0.3692585336124496,0.41231947668021635,0.2518524676428602,0.726924537568844
1781116111363872768,0.7798237800598145,-0.03275133669376373,0.050859540700912476,0.025435756891965866,0.2287691980600357,-0.40058183670043945,-0.887242317199707,0.016851529479026794,-0.03363752365112305,0.0020341873168945312,0.8984444283276346,0.14592970567120048,0.18730555842145247,0.36934933407114917,0.4121517610349342,0.25234655415586954,0.7270543560935395
1781116111373907456,0.7898585796356201,-0.06377503275871277,0.04448845982551575,0.02876710519194603,0.22908420860767365,-0.400237500667572,-0.8873164057731628,0.009044468402862549,-0.010345995426177979,-0.016431152820587158,0.8983877085169537,0.145663621012452,0.18741376155759917,0.3695371405773427,0.4117759993729128,0.252659228124012,0.7274396236431377
1781116111383942656,0.7998936176300049,-0.14359050989151,0.031298618763685226,0.038371529430150986,0.22930140793323517,-0.39939039945602417,-0.8876419067382812,0.010978728532791138,0.00159376859664917,-0.01395416259765625,0.8983579913982688,0.14515102043482678,0.18737722854235872,0.3698294800552053,0.410851819140659,0.25279986534097815,0.7281121102413969
1781116111393976576,0.8099277019500732,-0.13463322818279266,0.03236308693885803,0.0004574369522742927,0.2294653356075287,-0.39815443754196167,-0.8881546854972839,0.01096738874912262,-0.00469285249710083,0.019593894481658936,0.8983993134999987,0.14447022362490963,0.1872191794931401,0.37007567159134586,0.4095040431477297,0.2528330790659716,0.7287199093542359
1781116111404011776,0.819962739944458,-0.06745845079421997,0.05602886900305748,0.005832228343933821,0.2298736572265625,-0.3972298502922058,-0.888463020324707,0.009750381112098694,0.0025917887687683105,0.03082752227783203,0.8984337499010131,0.14391884249238182,0.18723208672631328,0.37020029487380063,0.40849633796704243,0.2531798130356427,0.7289905991971852
1781116111414045696,0.8299965858459473,-0.0825982540845871,0.05536254495382309,0.029160987585783005,0.23029771447181702,-0.39667215943336487,-0.8886023759841919,0.011386245489120483,0.006001383066177368,0.017371296882629395,0.8983919402704249,0.1435271326254419,0.18734666688296675,0.37039601210480433,0.40788873387806995,0.25358902043570014,0.7293905819424886
1781116111424080640,0.840031623840332,-0.1670825183391571,0.04158574715256691,0.012228875420987606,0.230636864900589,-0.39561375975608826,-0.8889861702919006,0.0020749270915985107,-0.018570810556411743,0.014337122440338135,0.8983955939167364,0.14289832234538202,0.18731519225860643,0.3706461520931697,0.40673603181588963,0.2538416401541002,0.7299638500780545
1781116111434114816,0.8500657081604004,-0.1923985332250595,0.02948487363755703,0.004422350786626339,0.23092857003211975,-0.39394649863243103,-0.8896505832672119,0.006788104772567749,-0.02570071816444397,0.009844064712524414,0.8984886379389581,0.14199039818020728,0.1871187639383606,0.37086872361773937,0.4049213951159054,0.2539673158216444,0.7305291939942267
1781116111444149760,0.8601007461547852,-0.1251784861087799,0.02639201283454895,0.019157888367772102,0.23111100494861603,-0.392523854970932,-0.8902318477630615,0.011961504817008972,0.002661794424057007,-0.0055658817291259766,0.898559843907768,0.14122269936315351,0.18692304178403546,0.3710879086202875,0.40337408157275834,0.254000524597684,0.7310888730284247
1781116111454183680,0.8701345920562744,-0.06420992314815521,0.0440911129117012,0.021996283903717995,0.23134414851665497,-0.39173969626426697,-0.8905166387557983,0.0033207684755325317,0.027878612279891968,-0.01220858097076416,0.8985548956189723,0.14075701441708438,0.1868933841779165,0.3712915785387098,0.40252164223059217,0.25416800203191475,0.73155853234025
1781116111464218624,0.8801696300506592,-0.02689557708799839,0.042249005287885666,0.02058480866253376,0.2316512018442154,-0.3914182782173157,-0.8905781507492065,-0.001686006784439087,0.025955021381378174,-0.010163426399230957,0.8985023950644814,0.14050789096894997,0.18699854894132392,0.37145987117185014,0.40217232629631916,0.25447416089503416,0.7319027174845434
1781116111474253568,0.890204668045044,-0.0255631972104311,0.03939809277653694,0.012226744554936886,0.2319668084383011,-0.3912215828895569,-0.8905824422836304,0.0028507113456726074,0.014039576053619385,-0.014126420021057129,0.8984538255807972,0.14032724618418577,0.18712841769828997,0.3715802994399924,0.4019585837086599,0.2548048803614698,0.7321299010827648
1781116111484287744,0.9002387523651123,-0.02521592192351818,0.034996554255485535,0.01414954662322998,0.23224090039730072,-0.39102113246917725,-0.8905990123748779,0.00893951952457428,0.013472944498062134,-0.01560521125793457,0.898411335789485,0.1401541000131718,0.1872359814431706,0.3716942677356155,0.4017408130568694,0.2550885320258074,0.7323503697359319
1781116111494322688,0.9102737903594971,-0.034742314368486404,0.0284744706004858,0.022300949320197105,0.23245717585086823,-0.39077726006507874,-0.890649676322937,0.006815895438194275,0.017394691705703735,-0.012655377388000488,0.8983667333238754,0.13996526317274685,0.18730962744376128,0.37183616787393947,0.40147584465397457,0.25530201047023493,0.732646449624591
1781116111504356608,0.9203076362609863,-0.023135194554924965,0.02235039882361889,0.018975993618369102,0.23260602355003357,-0.3905527591705322,-0.8907092809677124,0.006789118051528931,0.017017602920532227,-0.012870430946350098,0.8983298267780825,0.13980137952874028,0.1873524400199455,0.3719654045560659,0.40123195304263326,0.25544209012735486,0.732924760548276
1781116111514391552,0.9303426742553711,0.006603259593248367,0.012545173056423664,0.023145439103245735,0.2326897531747818,-0.39049476385116577,-0.8907128572463989,0.0110541433095932,0.01883643865585327,-0.017398715019226074,0.8982813970633732,0.13973239054419243,0.1873991503309629,0.37208478341498097,0.4011689589712298,0.2555291149793952,0.7331802264305458
1781116111524425728,0.9403767585754395,0.04490457847714424,0.013523751869797707,0.018744299188256264,0.23272651433944702,-0.3907780051231384,-0.8905789852142334,0.015305086970329285,0.026184499263763428,-0.009994745254516602,0.898209224134011,0.139844331873339,0.18749417488291367,0.3721690872844916,0.4014766582226433,0.2556045171887324,0.7333405430879176
1781116111534460672,0.9504117965698242,0.06184947118163109,0.016595708206295967,0.014007333666086197,0.2327963411808014,-0.3913135230541229,-0.8903255462646484,0.012961700558662415,0.021944016218185425,-0.0071811676025390625,0.8981262347864958,0.14008299812161693,0.18765389332872606,0.37219874140205844,0.40205849694905416,0.25574755411233663,0.7333545965532251
1781116111544494592,0.9604456424713135,0.05048363283276558,0.011039688251912594,0.010432040318846703,0.23288078606128693,-0.3918745517730713,-0.8900566697120667,0.00788763165473938,0.007002115249633789,-0.0008582472801208496,0.8980470595714785,0.14033518063245373,0.18782361503875167,0.3722092256021069,0.40266823163326565,0.25591029799280746,0.7333215708059555
1781116111554529792,0.9704806804656982,0.008993979543447495,-0.00046490132808685303,0.008299380540847778,0.23289957642555237,-0.3921625018119812,-0.8899248838424683,0.010172918438911438,-0.011874943971633911,0.010515153408050537,0.8980044687119135,0.14046749505912834,0.18790005573367577,0.37222346888702174,0.40298122484246945,0.25596631263243413,0.7333286362797636
1781116111564564736,0.980515718460083,-0.013161390088498592,0.002137406263500452,0.012576151639223099,0.2328634113073349,-0.3921704590320587,-0.8899309039115906,0.009369850158691406,-0.013698071241378784,0.017128169536590576,0.8979878251348893,0.14046899157271447,0.18789097614991132,0.3722679320275299,0.40298987922434604,0.2559266304874856,0.7334335146532928
1781116111574598656,0.9905495643615723,0.005300707649439573,0.005469819996505976,0.018877988681197166,0.23283150792121887,-0.3921547532081604,-0.8899461627006531,0.0007042586803436279,-0.0055808424949646,0.013160884380340576,0.8979579276733507,0.14045033683398023,0.18788460783092015,0.3723502621167099,0.40297280555085596,0.2558888711700467,0.7336236465710917
1781116111584633600,1.000584602355957,0.018456723541021347,0.01634257473051548,0.018135232850909233,0.23286548256874084,-0.3923090100288391,-0.8898692727088928,-0.0032054483890533447,-0.0005590319633483887,0.007575571537017822,0.8979016124425646,0.14050061341629647,0.1879493186583817,0.3724343281845313,0.4031405020490337,0.255945770453885,0.7337934626893566
1781116111594667776,1.0106186866760254,0.026333289220929146,0.02440396323800087,0.013043269515037537,0.23300234973430634,-0.3925487995147705,-0.8897277116775513,0.0016320645809173584,0.004014253616333008,0.0067626237869262695,0.8978376794880218,0.14057753932537775,0.18808007209698416,0.3724933891518705,0.40340119333521157,0.25612869069938676,0.7338831706332434
1781116111604702720,1.0206537246704102,0.015086758881807327,0.021427348256111145,0.006544623989611864,0.2332146316766739,-0.3926692605018616,-0.8896188735961914,0.0017859786748886108,-0.00144997239112854,0.009888708591461182,0.8977946336003041,0.14058828098670464,0.18821658779175549,0.3725241424223192,0.40353217437698025,0.25638195023893817,0.7339053781172776
1781116111614736640,1.0306875705718994,0.002761383540928364,0.02211604081094265,0.008877553045749664,0.23342014849185944,-0.3926558792591095,-0.8895708918571472,-0.006384626030921936,-0.004576146602630615,0.010451078414916992,0.8977695692251886,0.14053626863969368,0.18831914664754876,0.3725524299870393,0.40351763431752713,0.25661133978495815,0.7339332446805571
1781116111624771584,1.0407226085662842,-0.019295714795589447,0.02193973958492279,0.0020758400205522776,0.23362228274345398,-0.3925677239894867,-0.8895567655563354,-0.010645613074302673,-0.005442529916763306,0.00892627239227295,0.8977497723558341,0.14044671288940164,0.18840471143723753,0.3725907491524523,0.4034217688277086,0.2568278291487462,0.7339896482273106
1781116111634805760,1.0507566928863525,-0.023429473862051964,0.015364395454525948,0.004416225478053093,0.23381584882736206,-0.39242684841156006,-0.8895680904388428,-0.005925849080085754,-0.0003954172134399414,0.0069386959075927734,0.897733022006909,0.14033136273809793,0.1884756625845772,0.3726387357754463,0.4032686274791739,0.2570282561031686,0.7340730500566789
1781116111644840192,1.060791254043579,-0.03701745346188545,0.01408594474196434,0.010110597126185894,0.23393873870372772,-0.39224377274513245,-0.8896164894104004,-0.004232913255691528,-0.0011125504970550537,0.01016092300415039,0.8977174946572916,0.14020476579285587,0.18850567237268556,0.3727082098363695,0.4030695711915296,0.2571440936181553,0.7342198073939415
1781116111654875392,1.0708262920379639,-0.05203528702259064,0.012000156566500664,0.004882811568677425,0.23403139412403107,-0.39190489053726196,-0.8897414207458496,-0.005668357014656067,-0.0029772818088531494,0.009370386600494385,0.8977196666703646,0.1400069477995323,0.18848694988176723,0.3727868334781375,0.40270119876949023,0.2572069348243126,0.7344040633926389
1781116111664909056,1.0808601379394531,-0.05173594504594803,0.009530209004878998,0.0066759176552295685,0.2340938299894333,-0.3914485275745392,-0.8899258971214294,3.701448440551758e-05,-0.0030216872692108154,0.006152093410491943,0.8977349762790233,0.13975658196081742,0.18842808687183973,0.3728737902420373,0.4022052173316287,0.2572215709930639,0.7346210231411264
1781116111674944256,1.090895175933838,-0.03647017478942871,0.013983280397951603,0.009049327112734318,0.23418422043323517,-0.39106234908103943,-0.8900718688964844,0.004905730485916138,0.0006204843521118164,0.0038414597511291504,0.8977397632291546,0.13953483368173408,0.18839873565890336,0.3729600986533704,0.40178559134795055,0.25727619622398235,0.7348263863295781
1781116111684978176,1.1009292602539062,-0.021550878882408142,0.01471644826233387,0.009538017213344574,0.234281986951828,-0.3908468186855316,-0.8901408314704895,0.004395991563796997,0.005547136068344116,0.005817711353302002,0.8977264176554935,0.139395605657845,0.18841030826986274,0.3730384372402803,0.401551402384399,0.2573598514383812,0.7349999852491536
1781116111695013376,1.110964298248291,0.00030994374537840486,0.010001587681472301,0.008452778682112694,0.2343389093875885,-0.39079171419143677,-0.8901500701904297,0.009115070104598999,0.006972134113311768,0.0035381317138671875,0.8977014670751622,0.13934413119481312,0.18843615619897955,0.37310474474627703,0.4014915421472306,0.2574171150844293,0.7351419344875161
1781116111705047040,1.1209981441497803,0.03303193673491478,0.007589829154312611,0.008804316632449627,0.2343609631061554,-0.3909895420074463,-0.890057384967804,0.013838499784469604,0.008863687515258789,-0.004687488079071045,0.8976625091976067,0.13942860634817025,0.18849663210824563,0.37313632697061044,0.40170648049520224,0.25746591956233167,0.7351936225605247
1781116111715082240,1.131033182144165,0.05237554386258125,0.005326408892869949,0.006590696517378092,0.23436543345451355,-0.3914199769496918,-0.8898670077323914,0.01389506459236145,0.006715357303619385,0.0008136630058288574,0.8976078447942911,0.13963438502610637,0.18859677053900414,0.3731403452010283,0.40217417370665126,0.2575232979993501,0.7351695718255009
1781116111725116160,1.1410672664642334,0.05104050040245056,0.007394885644316673,0.006392024923115969,0.23439541459083557,-0.3919201195240021,-0.8896389603614807,0.012323960661888123,0.013288527727127075,0.0007534623146057129,0.8975524216476671,0.13987380662122892,0.18872162484570548,0.3731209503498038,0.4027177686451396,0.2576179358462368,0.7350836607554064
1781116111735151360,1.1511023044586182,0.036671679466962814,0.0018171612173318863,0.0036761334631592035,0.23439708352088928,-0.39235231280326843,-0.8894479274749756,0.015541881322860718,0.014392167329788208,4.369020462036133e-05,0.8975065387057112,0.14008563925047368,0.18881748305298254,0.3731030784316153,0.4031875889397151,0.25767260106468876,0.7350110725557978
1781116111745186048,1.1611371040344238,0.00395953981205821,0.0012339293025434017,0.003835124196484685,0.23440216481685638,-0.3925727307796478,-0.8893493413925171,0.010638728737831116,0.007044196128845215,0.0019439458847045898,0.8974809037843536,0.14019188425517065,0.18886917849143822,0.3730986409821002,0.4034272393942509,0.25770525705679137,0.7349837625698488
1781116111755220224,1.1711711883544922,-0.02941039949655533,-0.0029307217337191105,0.007087642792612314,0.23437535762786865,-0.3924698531627655,-0.8894017934799194,0.00769004225730896,0.00019693374633789062,0.009107053279876709,0.8974821170628566,0.14014063361659282,0.18883774270152032,0.3731310144227135,0.4033153782161461,0.25766254071382566,0.7350683583018953
1781116111765255168,1.181206226348877,-0.05116336792707443,-0.003156025428324938,0.004580809269100428,0.2343384176492691,-0.39209645986557007,-0.889576256275177,0.006155341863632202,-0.0009699761867523193,0.013920128345489502,0.89750600160814,0.139955195055772,0.1887443247790986,0.37319053946372854,0.4029094245229358,0.25757539249017886,0.7352354887784515
1781116111775289344,1.1912403106689453,-0.03351752832531929,0.010598136112093925,0.007207218557596207,0.23436522483825684,-0.39167672395706177,-0.889754056930542,0.00329039990901947,0.0031421780586242676,0.013121366500854492,0.8975255811746841,0.1397325277648372,0.1886737629505387,0.37326254481510834,0.40245322076214674,0.25755432955404045,0.7354226713109193
1781116111785324032,1.201275110244751,0.007571052294224501,0.01234317198395729,0.007078321650624275,0.23446376621723175,-0.3915337026119232,-0.8897910714149475,-0.0018588006496429443,0.00730210542678833,0.00923687219619751,0.897516368620885,0.13963464801101072,0.18869720524199057,0.37330953313962784,0.402297766596769,0.2576476570379106,0.735520871555665
1781116111795358208,1.2113091945648193,0.026161782443523407,0.02402060106396675,0.0010779534932225943,0.23464933037757874,-0.3916887938976288,-0.8896738290786743,-0.003570243716239929,0.008693218231201172,0.009684264659881592,0.8974811597300614,0.13967231586970622,0.1888245715626007,0.3733154474785862,0.4024663375206167,0.25787512771350124,0.7354898989373139
1781116111805393152,1.221344232559204,0.034322772175073624,0.02378091588616371,-0.0004429778200574219,0.23490068316459656,-0.39191848039627075,-0.8895063400268555,-0.0027077049016952515,0.0017817914485931396,0.005625784397125244,0.8974407002612327,0.13973757078139082,0.18899796186742332,0.37330062144157,0.4027159732513174,0.25818573647473186,0.7353956337295717
1781116111815427328,1.2313783168792725,0.02154705673456192,0.017661770805716515,0.004267887677997351,0.2351425588130951,-0.3921333849430084,-0.8893477320671082,-0.0028885453939437866,-0.007967323064804077,0.005284011363983154,0.8973985780765109,0.13979549788194362,0.18916490356382232,0.3732955192865827,0.40294957605573556,0.25848399687287194,0.7353256846181145
1781116111825462016,1.2414131164550781,0.007290887646377087,0.009867364540696144,0.002526180585846305,0.23528487980365753,-0.3922693729400635,-0.8892501592636108,-0.006403058767318726,-0.012515783309936523,0.00889432430267334,0.8973693128338045,0.1398324172143633,0.18926655617610355,0.37330085119320033,0.40309741009671696,0.25866068798693875,0.7353024669179999
1781116111835496192,1.2514472007751465,-0.010013267397880554,0.0067919460125267506,-0.00014949747128412127,0.23538345098495483,-0.39225345849990845,-0.8892310261726379,-0.006745755672454834,-0.007069051265716553,0.006800055503845215,0.8973604440503248,0.139803910459763,0.18931280811940707,0.37330932735883265,0.4030801237821938,0.25876958107656817,0.7353052700462697
1781116111845531136,1.2614822387695312,-0.018559616059064865,0.004000021144747734,-0.0026070624589920044,0.23545648157596588,-0.39215052127838135,-0.8892571330070496,-0.0025463253259658813,0.0010372400283813477,0.0045525431632995605,0.8973638374909549,0.139738186753459,0.18932690328062216,0.3733186827789702,0.4029682165277449,0.2588390827076038,0.7353211272521892
1781116111855566336,1.271517276763916,-0.03743450343608856,-0.00013426970690488815,0.0003588999970816076,0.23549634218215942,-0.3919033706188202,-0.889355480670929,0.0006181299686431885,0.00036284327507019043,0.0037659406661987305,0.8973811404887334,0.1396062619315965,0.18929431873468092,0.3733426987099732,0.40269953497591215,0.2588535997538092,0.7353862958574752
1781116111865600000,1.2815511226654053,-0.06516227126121521,0.0029375534504652023,0.004156301263719797,0.2355010211467743,-0.3914410471916199,-0.8895578384399414,0.002047806978225708,-0.0038836300373077393,0.010270118713378906,0.8974136016567953,0.13937036192164712,0.18920088549863714,0.37340032260929235,0.402197096085264,0.25880222232098415,0.7355489210937726
1781116111875635200,1.29158616065979,-0.11370503902435303,0.0139987263828516,0.003228189889341593,0.23555594682693481,-0.39066535234451294,-0.8898842334747314,0.0011536628007888794,-0.0066582560539245605,0.016227006912231445,0.8974590352935342,0.13896285783504783,0.1890692858412062,0.3735096213257665,0.40135425836800154,0.2587691603273915,0.7358415953312267
1781116111885669120,1.3016202449798584,-0.144096240401268,0.010991618037223816,0.0026710564270615578,0.23563742637634277,-0.3895459771156311,-0.890353262424469,0.0018503516912460327,-0.008265912532806396,0.019351065158843994,0.8975286558308062,0.13837690527776592,0.18887878208125738,0.37365630552717144,0.40013857152270726,0.25872437605331977,0.736239017308061
1781116111895704320,1.3116552829742432,-0.15404607355594635,0.016467344015836716,0.016994601115584373,0.23573026061058044,-0.3882569372653961,-0.8908916115760803,0.0017117559909820557,-0.009936422109603882,0.016364574432373047,0.8976001414215451,0.13769849670442508,0.18866195219379592,0.37384476099138575,0.39873940148722087,0.25867231138509633,0.7367404326981709
1781116111905738240,1.3216891288757324,-0.12691965699195862,0.022186480462551117,0.018389299511909485,0.23583827912807465,-0.3870365619659424,-0.8913938403129578,0.00331270694732666,-0.0017879009246826172,0.009527385234832764,0.8976472535676849,0.13704334685556163,0.1884733286585178,0.37406723678333986,0.39741550014451626,0.2586462184351666,0.7373098316369853
1781116111915773184,1.3317241668701172,-0.12274248152971268,0.03513290733098984,0.017126427963376045,0.23603102564811707,-0.3859823942184448,-0.891799807548523,0.0024943798780441284,0.0027731657028198242,0.00833117961883545,0.8976675250322952,0.13645201923739145,0.18836383315160174,0.3742897040170379,0.39627248854934277,0.2587356405346392,0.7378522944298898
1781116111925808128,1.341759204864502,-0.1457814872264862,0.038304466754198074,0.018939241766929626,0.23630008101463318,-0.3848532736301422,-0.8922165036201477,0.0020879805088043213,0.003612428903579712,0.004795849323272705,0.8976893131540236,0.13580923458756833,0.18827535179876903,0.374516019854559,0.3950488403435393,0.2589019417375471,0.7383964212189367
1781116111935842304,1.3517932891845703,-0.18862056732177734,0.03592386469244957,0.021517980843782425,0.23655979335308075,-0.3834169805049896,-0.8927658200263977,0.0039187222719192505,-0.0033475160598754883,0.0070084333419799805,0.8977284588074161,0.13501114433133296,0.1881198253142115,0.3747885098979935,0.39349321061102766,0.25902149250008166,0.739068494847514
1781116111945877248,1.361828327178955,-0.25343284010887146,0.033857785165309906,0.026093557476997375,0.23678645491600037,-0.3815006613731384,-0.8935263752937317,0.003737837076187134,-0.010863810777664185,0.004518866539001465,0.8977979593595836,0.1339749034455952,0.18784975759465738,0.3751292287658194,0.3914191961835702,0.2590477810906787,0.7399350664903728
1781116111955911168,1.3718621730804443,-0.31460991501808167,0.03217306733131409,0.03093225508928299,0.2369796633720398,-0.3790086507797241,-0.8945351243019104,0.001515209674835205,-0.012104630470275879,0.0078316330909729,0.8979046714596529,0.13265355729949274,0.18744457385997315,0.3755460930818938,0.38872478924139403,0.2589703722774571,0.7410209723556529
1781116111965946112,1.381897211074829,-0.339658260345459,0.02484964206814766,0.025843219831585884,0.23712009191513062,-0.37610915303230286,-0.895720899105072,0.004609629511833191,-0.010106056928634644,0.008391797542572021,0.8980462269668336,0.131141156305196,0.1869265475681029,0.37599663424942115,0.38559352295953014,0.25878914648177226,0.7422216505600171
1781116111975980288,1.3919312953948975,-0.35722023248672485,0.028149299323558807,0.027187850326299667,0.23726002871990204,-0.3730340898036957,-0.8969689011573792,0.005736157298088074,-0.006558805704116821,0.01089102029800415,0.8982005759892209,0.1295440844731679,0.18637024179306966,0.37645749099539255,0.3822770155445789,0.2585907284817402,0.7434588256613331
1781116111986015232,1.4019663333892822,-0.3563903868198395,0.04241185635328293,0.02353559248149395,0.23748639225959778,-0.3698817491531372,-0.8982136249542236,0.005158871412277222,-0.002112269401550293,0.012685060501098633,0.8983483099452144,0.1278921431659662,0.1858407620311799,0.37693121023302645,0.3788817387384054,0.25848367177304543,0.7447168820419836
1781116111996049152,1.4120001792907715,-0.374584823846817,0.04954167455434799,0.020978158339858055,0.2378067821264267,-0.3666617274284363,-0.8994482159614563,0.005235195159912109,-0.004508316516876221,0.011279881000518799,0.89849300106001,0.1261911350308242,0.18534206460583352,0.37740492585504176,0.37541829051340253,0.25847740149487664,0.7459659319199305
1781116112006084096,1.4220352172851562,-0.4063534140586853,0.04625892639160156,0.017679566517472267,0.23817867040634155,-0.36318182945251465,-0.9007607102394104,0.008922144770622253,-0.008568018674850464,0.015430569648742676,0.8986592696380987,0.12435766073692614,0.18481019092781117,0.37787824938561815,0.37168064517254723,0.25850321212383887,0.7472270191684224
1781116112016118272,1.4320693016052246,-0.4437364637851715,0.04762725904583931,0.02094566822052002,0.2385360151529312,-0.3593786954879761,-0.9021903872489929,0.010014399886131287,-0.012767910957336426,0.012389421463012695,0.8988405572926607,0.1223662186782106,0.18420450816492268,0.3783926131366517,0.36760201859981034,0.25848177816290513,0.7486076839864066
1781116112026153216,1.4421043395996094,-0.4749087691307068,0.051539577543735504,0.026861879974603653,0.2389010190963745,-0.355290949344635,-0.9037116169929504,0.006979122757911682,-0.00779193639755249,0.01075202226638794,0.8990260281324987,0.12022972592583547,0.18354567827724502,0.37895647405626603,0.3632253088470542,0.2584433087221865,0.7501204998471332
1781116112036188160,1.452139139175415,-0.5253426432609558,0.06435950100421906,0.02461177483201027,0.23933075368404388,-0.3508226275444031,-0.9053421020507812,0.0020785629749298096,-0.002891361713409424,0.01238250732421875,0.8992211268540967,0.11789203202524089,0.18283990482654242,0.379568736483697,0.35844942811975655,0.25844197312883477,0.7517624346762037
1781116112046222336,1.4621732234954834,-0.6007039546966553,0.08039399236440659,0.024173151701688766,0.23990888893604279,-0.3457796275615692,-0.9071274399757385,-0.0010478049516677856,-0.002410680055618286,0.013832151889801025,0.8994344904891979,0.11524320448695595,0.18208592705761664,0.38023861939214704,0.3530695391572614,0.25855136840432746,0.7535580154796002
1781116112056257280,1.4722082614898682,-0.6839032769203186,0.08928868919610977,0.029778040945529938,0.24060197174549103,-0.3400041460990906,-0.9091247916221619,-0.007478192448616028,-0.010032474994659424,0.015219151973724365,0.8996700734864946,0.11221044162618303,0.18123582284050363,0.3809936187659437,0.34692129608843664,0.25872081953045806,0.7555873333295419
1781116112066291200,1.4822421073913574,-0.7824596762657166,0.08878069370985031,0.03677736222743988,0.2413075715303421,-0.333385169506073,-0.9113863110542297,-0.009648635983467102,-0.020679771900177002,0.012964069843292236,0.8999322797130636,0.10875824540149258,0.18021791423066005,0.38185733952387174,0.3398918995287068,0.25883062460221923,0.7579275927780061
1781116112076326144,1.4922771453857422,-0.8724926114082336,0.10291755199432373,0.04158410057425499,0.2420569509267807,-0.3259161412715912,-0.9138857126235962,-0.007727727293968201,-0.023464351892471313,0.010183930397033691,0.9002118750345464,0.10487885862829924,0.17904628505469886,0.38283326002343493,0.3319806115276394,0.25892021426514406,0.7605844008775132
1781116112086360320,1.5023112297058105,-0.9853110313415527,0.11576183885335922,0.04682200402021408,0.242932990193367,-0.3175022602081299,-0.9166110754013062,-0.0068489909172058105,-0.022784024477005005,0.013550162315368652,0.9005043553897938,0.10051304144984738,0.17774021546006918,0.3839237559744716,0.3230942749721134,0.2590773812440097,0.7635627945151585
1781116112096395264,1.5123462677001953,-1.079946517944336,0.12407942116260529,0.057208333164453506,0.24386708438396454,-0.30810993909835815,-0.9195635318756104,-0.007447406649589539,-0.021907150745391846,0.01842522621154785,0.9008067851196377,0.09566019914585126,0.17625934769288845,0.3851348111799105,0.3132056733287361,0.25923141632232216,0.766890885072944
1781116112106430208,1.52238130569458,-1.162903904914856,0.1262887865304947,0.07683876156806946,0.24481675028800964,-0.2978818118572235,-0.9226760864257812,-0.0037889182567596436,-0.02392604947090149,0.02147674560546875,0.9010892881632477,0.0903939985992004,0.1746163677535129,0.38649209200389356,0.3024729691136192,0.25935718708005207,0.7706226841110635
1781116112116464128,1.5324151515960693,-1.1161119937896729,0.09859110414981842,0.08872738480567932,0.2456357330083847,-0.2873983085155487,-0.9257782101631165,-0.0023953765630722046,-0.030442267656326294,0.024731457233428955,0.9013367594184895,0.08503364962567486,0.17285883338698674,0.3879188318245182,0.29150943101420296,0.2593530449930203,0.7745580767640107
1781116112126499072,1.542450189590454,-0.9270810484886169,0.07981915026903152,0.10737057775259018,0.24617131054401398,-0.2780876159667969,-0.9284756183624268,0.003248870372772217,-0.022495269775390625,0.005303621292114258,0.901498967791876,0.08030520333411338,0.17121118139880653,0.38927802871106987,0.28180262189958954,0.25917179037967364,0.7782882853277879
1781116112136533248,1.5524842739105225,-0.6741805672645569,0.09785088151693344,0.1285720020532608,0.2466534674167633,-0.2708762288093567,-0.9304773807525635,0.010823339223861694,0.01725989580154419,-0.0014379024505615234,0.9015075238297384,0.07659685353119253,0.16998305006745312,0.39054170720364073,0.274303166183345,0.2591230142766493,0.7816460095701081
1781116112146568192,1.5625193119049072,-0.44013482332229614,0.13023944199085236,0.12761007249355316,0.2473772168159485,-0.26603376865386963,-0.9316815733909607,0.012586772441864014,0.04530012607574463,-0.015446722507476807,0.9013648328668743,0.0739824713328702,0.16936886085687639,0.3916404088898766,0.2692761856301637,0.2595286693695834,0.7844242861334557
1781116112156602112,1.5725531578063965,-0.2970367670059204,0.1353745460510254,0.11987677961587906,0.24832652509212494,-0.2629469931125641,-0.932305097579956,0.012369886040687561,0.03942099213600159,-0.023444414138793945,0.9011413354636454,0.07217875344136931,0.16922669008231156,0.3925518090741528,0.26607542718622296,0.26031380079174327,0.7866247187622238
1781116112166637056,1.5825881958007812,-0.2678285539150238,0.12201134115457535,0.11465591937303543,0.2492360770702362,-0.26065176725387573,-0.9327068328857422,0.0088510662317276,0.005524814128875732,-0.013048171997070312,0.9008981163046728,0.07077115002603296,0.16922772905829336,0.3933651434193959,0.2636972492940247,0.26111707248102284,0.7885478394858836
1781116112176671232,1.5926222801208496,-0.3354451358318329,0.10501877963542938,0.11720696091651917,0.2500094473361969,-0.2581508457660675,-0.9331952929496765,0.005254834890365601,-0.030926913022994995,-0.005372822284698486,0.9006791420143453,0.06929633922484446,0.16911647000465654,0.3941760469481668,0.2611076936061281,0.2617599151685313,0.7904977763885314
1781116112186706432,1.6026573181152344,-0.4428264796733856,0.09457839280366898,0.11521944403648376,0.2506418526172638,-0.25482115149497986,-0.9339404702186584,0.0009145140647888184,-0.053024888038635254,0.008281350135803223,0.9004969311100248,0.06745095258276591,0.16876055299399037,0.39506388994725533,0.2576627457420783,0.26219220454209335,0.7927046517948516
1781116112196740096,1.6126911640167236,-0.623877227306366,0.09926342219114304,0.11157943308353424,0.25126299262046814,-0.25013142824172974,-0.9350407123565674,-0.0009731054306030273,-0.055639415979385376,0.019650757312774658,0.9003685594429387,0.06495855663885255,0.1681071800452535,0.39605135028697824,0.2528160034483891,0.2625172729115813,0.7952554405710142
1781116112206775296,1.6227262020111084,-0.8270420432090759,0.10075492411851883,0.10897353291511536,0.2519247531890869,-0.24361027777194977,-0.9365831017494202,-0.007341653108596802,-0.05726251006126404,0.02645742893218994,0.9002944216077176,0.06158191939265412,0.16708114313396666,0.39719191800896764,0.2460865420603004,0.26276351878138804,0.7983092727649945
1781116112216810240,1.6327612400054932,-1.0582398176193237,0.11311305314302444,0.10303601622581482,0.2526814937591553,-0.23503486812114716,-0.9385684132575989,-0.010371923446655273,-0.059841230511665344,0.025406181812286377,0.900270302750633,0.05720862758557624,0.16565919236966425,0.39849407064620657,0.2372544416385012,0.2629848069820798,0.8019064325833696
1781116112226844416,1.6427953243255615,-1.3623520135879517,0.15169160068035126,0.09744817018508911,0.2536888122558594,-0.22393527626991272,-0.9410074353218079,-0.009685516357421875,-0.04934963583946228,0.03429967164993286,0.9002880728617222,0.05158945428188299,0.16381336417710832,0.39998119719265457,0.22585042618790924,0.26333225097087787,0.8061407204514721
1781116112236879104,1.6528301239013672,-1.7004872560501099,0.16818936169147491,0.09154447168111801,0.2550192177295685,-0.2096652388572693,-0.943930983543396,-0.01037508249282837,-0.05202299356460571,0.045157790184020996,0.9003378866785221,0.044410073522688054,0.16143808918112523,0.4016929746081998,0.21123257331924294,0.26386770457821385,0.811174350226272
1781116112246913280,1.6628642082214355,-2.0223660469055176,0.18554557859897614,0.08822856843471527,0.25649169087409973,-0.1922568678855896,-0.9472324252128601,-0.0065679848194122314,-0.0696297138929367,0.04252362251281738,0.9003906383846725,0.035732721983075755,0.15845172132947946,0.40362467839144384,0.19346140058759392,0.2644387656526416,0.8170321907543325
1781116112256948224,1.6728992462158203,-2.3722832202911377,0.19006310403347015,0.09490565210580826,0.25815826654434204,-0.17151778936386108,-0.9507554769515991,5.0961971282958984e-05,-0.07463699579238892,0.05022752285003662,0.9003916998395809,0.025463411449502146,0.1548349974633711,0.40579875403207044,0.17237008029176082,0.2651369513390064,0.8238157860214823
1781116112266982400,1.6829333305358887,-2.566056251525879,0.17730829119682312,0.10084769129753113,0.25974878668785095,-0.14806731045246124,-0.9542571306228638,0.005693107843399048,-0.07533662021160126,0.04811394214630127,0.9002956578470106,0.013961685666993361,0.15058723052776826,0.408162150965381,0.148613750389978,0.2657612236523304,0.8313958681254647
1781116112277017088,1.6929681301116943,-2.726288080215454,0.20993226766586304,0.11206359416246414,0.2614271938800812,-0.12301815301179886,-0.9573517441749573,0.011872977018356323,-0.07073795050382614,0.036346495151519775,0.9000408051838792,0.0017248627691619472,0.1460176496336274,0.410612205515696,0.12333056617363691,0.2665740798700344,0.8394636880832639
1781116112287051264,1.7030022144317627,-2.9274985790252686,0.2381652444601059,0.14136475324630737,0.26346415281295776,-0.09611965715885162,-0.9598685503005981,0.007425129413604736,-0.06157991290092468,0.05517500638961792,0.8995489453404599,-0.011430748888309571,0.14119156543859393,0.4132141202023533,0.09626828761173169,0.2678821439170886,0.8482340040060078
1781116112297086208,1.7130372524261475,-3.0127854347229004,0.25534316897392273,0.13999056816101074,0.26574820280075073,-0.06777922809123993,-0.9616568088531494,-0.00496026873588562,-0.08502227813005447,0.04728919267654419,0.8988014119507121,-0.02528898012053809,0.1361324705327105,0.41591389928820316,0.06783123535156628,0.2696153774438951,0.8575968749161121
1781116112307121152,1.7230722904205322,-2.9856481552124023,0.22969666123390198,0.16706132888793945,0.26799526810646057,-0.0391867533326149,-0.9626229405403137,-0.011845976114273071,-0.1004311740398407,0.04297572374343872,0.8978394938663657,-0.0392279804140535,0.13095682787395188,0.4185639486530371,0.03919678993946763,0.27152540270753583,0.8671165888481277
1781116112317155072,1.7331061363220215,-2.8793787956237793,0.23115341365337372,0.2081001102924347,0.27016112208366394,-0.01133816596120596,-0.9627483487129211,-0.004581928253173828,-0.08158785849809647,0.05163085460662842,0.8966183658469786,-0.05280287853774948,0.12584781593142103,0.4212477861733095,0.011338409320507151,0.2735784050718651,0.8768635033410175
1781116112327190272,1.7431411743164062,-2.7673399448394775,0.24479785561561584,0.2360992580652237,0.2725006341934204,0.015346350148320198,-0.962033212184906,-0.00438845157623291,-0.07262784242630005,0.067166268825531,0.8951562949363073,-0.06587913302187809,0.1210096454296691,0.4239244339302988,-0.015346952816083717,0.2760244314530399,0.8867032351441669
1781116112337224192,1.7531752586364746,-2.612281560897827,0.2651262879371643,0.2606850266456604,0.27502116560935974,0.04062492772936821,-0.960579514503479,0.0002473890781402588,-0.07077629864215851,0.059471726417541504,0.8935002287659023,-0.0783489718170476,0.11649758541110726,0.42655270616311947,-0.04063611061450664,0.27884806880982127,0.8965050642357794
1781116112347259392,1.7632102966308594,-2.5902857780456543,0.287566602230072,0.2821359932422638,0.27782660722732544,0.06481613218784332,-0.9584420919418335,0.0019738078117370605,-0.07641281187534332,0.058036208152770996,0.8916641233746966,-0.09038771870050272,0.11228986979843235,0.42913416770605545,-0.06486160180588456,0.2821403945785633,0.9063231018993416
1781116112357293056,1.7732441425323486,-2.6317684650421143,0.3086625635623932,0.2944672405719757,0.28092506527900696,0.08905769139528275,-0.9555887579917908,-0.002284318208694458,-0.08650948107242584,0.08548682928085327,0.8896089756271712,-0.10253184317331691,0.1081334812214357,0.43172938920177545,-0.0891758379791898,0.2859257820476916,0.9164858859916492
1781116112367328256,1.7832791805267334,-2.585533380508423,0.28177890181541443,0.28625884652137756,0.2840646803379059,0.11331681907176971,-0.9520853757858276,-0.003699690103530884,-0.10168962180614471,0.05979716777801514,0.8873968668398746,-0.11470343847088667,0.103925140806343,0.4342458589842431,-0.11356074310774658,0.2899519950817097,0.9267768134624614
1781116112377362176,1.7933132648468018,-2.4578585624694824,0.2610459327697754,0.32157421112060547,0.2870243489742279,0.13651911914348602,-0.94814532995224,-2.1785497665405273e-05,-0.10813778638839722,0.03727191686630249,0.8850745985688345,-0.1263642992520851,0.09979681159264855,0.4367100334065726,-0.13694678341386962,0.29395208336848133,0.9370383886724093
1781116112387397376,1.8033483028411865,-2.2998762130737305,0.27185824513435364,0.3602212071418762,0.29007261991500854,0.1581306755542755,-0.9438498616218567,0.001568615436553955,-0.08194354176521301,0.04464942216873169,0.8826167335000176,-0.13734288903239467,0.09597915579513244,0.43921821228995944,-0.1587972233381262,0.2981671846686801,0.9474027545077026
1781116112397432320,1.8133833408355713,-2.14534854888916,0.2699306309223175,0.38712766766548157,0.2932847738265991,0.17802970111370087,-0.9393026828765869,-0.003932356834411621,-0.05144280195236206,0.059129953384399414,0.8800687345933814,-0.1475956837016641,0.09254288575311226,0.4417357045926379,-0.17898380029310965,0.30264498099835757,0.9577502910541393
1781116112407466240,1.8234171867370605,-2.0454964637756348,0.2791294455528259,0.3887263536453247,0.2965795397758484,0.1965731680393219,-0.9345585107803345,-0.0034429430961608887,-0.03295320272445679,0.05084574222564697,0.8774758179283081,-0.1572604022190639,0.08938634571586034,0.44420221461522685,-0.19786167230446353,0.3072947379857155,0.9679745705766459
1781116112417501184,1.8334522247314453,-2.0246222019195557,0.2959262728691101,0.3993355929851532,0.30005669593811035,0.21427710354328156,-0.9295436143875122,-0.0064470767974853516,-0.02572423219680786,0.04721939563751221,0.8748353699567276,-0.16659737284569845,0.08644946403663795,0.4465814249988594,-0.21595167845755567,0.3122407935941745,0.9781051561975771
1781116112427535360,1.8434863090515137,-2.213777542114258,0.3204703629016876,0.39214879274368286,0.3038942515850067,0.23272830247879028,-0.9238429665565491,-0.003631800413131714,-0.02023439109325409,0.05270344018936157,0.8719756620615513,-0.17640463059882885,0.08342616405320386,0.448976551218317,-0.23488208131163035,0.31779658280326223,0.9887953209523969
1781116112437570048,1.8535211086273193,-2.34006929397583,0.3223534822463989,0.3054035007953644,0.30765607953071594,0.2526927590370178,-0.9173299074172974,-0.004799634218215942,-0.018195658922195435,0.013414502143859863,0.868980647540893,-0.18691858149000182,0.07997814632978104,0.45115140579793633,-0.25546232196968427,0.3235933712757501,0.9996559807087539
1781116112447604224,1.8635551929473877,-2.777033567428589,0.37586265802383423,0.2725089192390442,0.311671644449234,0.2750456929206848,-0.9095112085342407,-0.010981947183609009,-0.021749764680862427,-0.03723561763763428,0.8657402416138208,-0.1986473213660189,0.0760502170046278,0.45304459754894516,-0.27863721465199504,0.3301391863869072,1.0109427572608047
1781116112457639168,1.8735902309417725,-3.1494529247283936,0.3071339428424835,0.2658483684062958,0.3155652582645416,0.3013034760951996,-0.8997970819473267,-0.002302318811416626,-0.041019052267074585,0.02624666690826416,0.8619282394029878,-0.21226895305925242,0.07101649755704106,0.4549488143284513,-0.3060593531108293,0.33730464912696384,1.0238322018953199
1781116112467673344,1.8836243152618408,-3.307288885116577,0.2108803689479828,0.23496314883232117,0.3187263607978821,0.32951194047927856,-0.8887268304824829,0.03749006986618042,-0.06498560309410095,0.02131044864654541,0.8576974937243618,-0.22673155199281503,0.06503370707365476,0.45685713148810286,-0.3357866008705357,0.3443444671656725,1.0377877169781937
1781116112477708032,1.8936591148376465,-3.320167064666748,0.1487128734588623,0.2784557640552521,0.32113832235336304,0.3581179082393646,-0.8767107725143433,0.06437498331069946,0.034200847148895264,-0.02012455463409424,0.8531669691308257,-0.24130519222114635,0.058450221482188466,0.4587607931680464,-0.3662513163251144,0.3511207095029607,1.0524056301348708
1781116112487743232,1.9036941528320312,-3.2035515308380127,0.11134538799524307,0.33724719285964966,0.32342711091041565,0.38575685024261475,-0.864052414894104,0.04295167326927185,0.11952269077301025,-0.034293532371520996,0.8483411814974511,-0.25551375217953937,0.051831681327202644,0.46080728708234076,-0.39602801965241263,0.35816930081544485,1.0678043160131347
1781116112497777152,1.9137282371520996,-3.1456589698791504,0.136447012424469,0.3241846561431885,0.3258787989616394,0.41178977489471436,-0.8510183095932007,0.002444535493850708,0.09342870116233826,-0.07548004388809204,0.8433716951917757,-0.2691091484650997,0.04550932807132851,0.46285353404310553,-0.42441721363954854,0.3657031168033608,1.0835027824495111
1781116112507812352,1.9237632751464844,-3.256739854812622,0.16891494393348694,0.3137359917163849,0.32849791646003723,0.437873512506485,-0.8368726968765259,-0.02434447407722473,0.016380637884140015,-0.009715437889099121,0.8381740443400862,-0.2828999015528006,0.03913171798920411,0.4646511690747294,-0.45323201105407535,0.3740504672101027,1.0995826722342796
1781116112517846016,1.9337971210479736,-3.4941036701202393,0.17658191919326782,0.32202616333961487,0.33135321736335754,0.4649394750595093,-0.8209971785545349,-0.030022650957107544,-0.08258473873138428,0.03570359945297241,0.8324949081661137,-0.29740579057704664,0.03242235078984922,0.46631628112654955,-0.48356624383361324,0.3836046574026073,1.1168985810115406
1781116112527881216,1.9438321590423584,-3.3696982860565186,0.17765982449054718,0.35974475741386414,0.3344660699367523,0.4917669892311096,-0.803926408290863,-0.03063306212425232,-0.175879567861557,0.06439393758773804,0.8264135246595448,-0.3120558770303311,0.02565011649876006,0.4679784640391177,-0.5141179205657385,0.39425759419896417,1.1354147997949018
1781116112537915136,1.9538662433624268,-3.085315227508545,0.211613267660141,0.35720330476760864,0.3377925753593445,0.5164706110954285,-0.7868635654449463,-0.03916284441947937,-0.17879360914230347,0.07629233598709106,0.820348684714156,-0.3258728021507333,0.019368290672332148,0.46953147023493436,-0.5427241466103442,0.40549860329579346,1.1539570379271746
1781116112547950336,1.9639012813568115,-2.5301196575164795,0.27399662137031555,0.3305027186870575,0.34149470925331116,0.5373509526252747,-0.7711260318756104,-0.04805293679237366,-0.05444079637527466,0.09310173988342285,0.8148248761964217,-0.337983875294996,0.01427920225564894,0.47076890707613184,-0.5672928593717285,0.41689377330326566,1.170966604942015
1781116112557984000,1.9739351272583008,-1.8267372846603394,0.2851925492286682,0.38967496156692505,0.3455938398838043,0.5529297590255737,-0.7581778168678284,-0.01756039261817932,0.11537468433380127,0.06381136178970337,0.81019280809303,-0.34755337544739745,0.010850871049142346,0.47188615117968064,-0.5858762841088377,0.427684631461226,1.1856229615523632
1781116112568019200,1.9839701652526855,-1.0656570196151733,0.24355348944664001,0.428306519985199,0.3499141335487366,0.5622572898864746,-0.7492843270301819,0.031998127698898315,0.18363815546035767,0.02426290512084961,0.8066877400739542,-0.3539376134722824,0.009274532128268415,0.4731777691010555,-0.597112857950434,0.4368990466653813,1.1973965122826797
1781116112578054144,1.9940052032470703,-0.8563892841339111,0.23811452090740204,0.42609477043151855,0.35415586829185486,0.5677743554115295,-0.7431055903434753,0.04080262780189514,0.13205474615097046,0.021944761276245117,0.8040043488958475,-0.3582871507643576,0.008803871371201337,0.47447860139038656,-0.6037996271989071,0.44474392081625597,1.2068811065220573
1781116112588088320,2.0040392875671387,-0.954507052898407,0.2799438536167145,0.5151638984680176,0.35871654748916626,0.5728654265403748,-0.7369855046272278,0.006380528211593628,0.044383108615875244,0.05014163255691528,0.8012306098911637,-0.36253965360610513,0.008499199836335831,0.475943685591676,-0.6099975531557538,0.45297930276785076,1.2168592505406548
1781116112598123264,2.0140743255615234,-1.0397497415542603,0.3126988708972931,0.561221718788147,0.3640472888946533,0.5780757665634155,-0.7302725911140442,-0.01552128791809082,-0.12760579586029053,0.06291419267654419,0.7981334021241178,-0.3671428665272604,0.008356239740176755,0.4776185681454845,-0.616368553429398,0.46245391803132735,1.2281258218323032
1781116112608157184,2.0241081714630127,-1.3060225248336792,0.280947208404541,0.5551134347915649,0.3694998323917389,0.5846250057220459,-0.7222765684127808,0.01808866858482361,-0.18925458192825317,0.06364619731903076,0.7945848698007648,-0.3725607850964554,0.0077577604783209825,0.47934652077724316,-0.6244177799967151,0.47286598935625374,1.2408569315411186
1781116112618192128,2.0341432094573975,-1.2591372728347778,0.26836803555488586,0.5344569087028503,0.37467119097709656,0.5919725298881531,-0.713575541973114,0.05063703656196594,-0.1115037202835083,0.044035136699676514,0.7908138826980983,-0.37837407884728075,0.0067295850228322384,0.48104177842486257,-0.6335040768517702,0.48349536099621093,1.2542761654120234
1781116112628226304,2.044177293777466,-1.045146107673645,0.26396143436431885,0.5315514206886292,0.37974849343299866,0.5982068777084351,-0.7056483626365662,0.04673466086387634,-0.010911345481872559,-0.0016880631446838379,0.7873024496847596,-0.3835880670403001,0.006000642860558947,0.4826790496281975,-0.6412615883588235,0.49370401750362825,1.2669411249770097
1781116112638261248,2.0542123317718506,-0.679537832736969,0.2559908628463745,0.5165250301361084,0.38475319743156433,0.6023446917533875,-0.699389636516571,0.02818015217781067,0.06592923402786255,-0.02181696891784668,0.7843337753518804,-0.38764674076665745,0.005930778564612458,0.48426793422656605,-0.6464352058592778,0.5029407729051791,1.277955896744343
1781116112648296704,2.0642476081848145,-0.23295527696609497,0.2249290645122528,0.4996374249458313,0.38952845335006714,0.6035597324371338,-0.6956890821456909,0.01917821168899536,0.09210377931594849,-0.03783142566680908,0.7821987537090763,-0.3900123793969688,0.006766753872397855,0.4858083794373648,-0.6479582015731973,0.5104254601332897,1.2863331032404446
1781116112658331648,2.074282646179199,0.2779868245124817,0.16984690725803375,0.4793720841407776,0.3938652276992798,0.6015175580978394,-0.6950157284736633,0.02373737096786499,0.12611311674118042,-0.04921644926071167,0.781024626381636,-0.3904090768246539,0.008536650419187598,0.4873485217403269,-0.6453994097643717,0.5155740336793173,1.2916103793985583
1781116112668366592,2.084317684173584,0.5520790815353394,0.16486720740795135,0.40572798252105713,0.3976980447769165,0.5966221690177917,-0.6970496773719788,0.02068263292312622,0.14892220497131348,-0.05914539098739624,0.7807948113677552,-0.38903845927218245,0.011146868221316962,0.48875787714782265,-0.6392854875294444,0.5184796373447323,1.2937148716541564
1781116112678400768,2.0943517684936523,0.40369710326194763,0.1475744992494583,0.32748696208000183,0.4010007977485657,0.5917492508888245,-0.6993076801300049,-0.001968204975128174,0.17221248149871826,-0.0001399517059326172,0.7808262939013451,-0.38750376004763826,0.01367425655709495,0.4898615308919757,-0.6332270924292217,0.5206501317459855,1.2946966829114157
1781116112688435712,2.104386806488037,0.23579569160938263,0.1615317314863205,0.2346491664648056,0.40374845266342163,0.5882573127746582,-0.7006714940071106,-0.01304715871810913,0.1240687370300293,0.003604292869567871,0.7807648960622077,-0.38654828887605713,0.015641710966329946,0.49065468635880666,-0.6289021518773802,0.5227587123104817,1.29568855192138
1781116112698469632,2.1144206523895264,-0.17626217007637024,0.1563183218240738,0.13745391368865967,0.40594783425331116,0.5873029828071594,-0.7002010345458984,-0.016223132610321045,0.0543595552444458,-0.015283524990081787,0.7803653083434983,-0.3868082328419447,0.016699359327807185,0.4910503343032126,-0.6277225628725444,0.5254034051941693,1.2974433184674448
1781116112708504576,2.124455690383911,-0.35325103998184204,0.14144563674926758,0.07470450550317764,0.40762779116630554,0.5888541340827942,-0.6979185938835144,-0.004872053861618042,0.052625417709350586,0.00938105583190918,0.7795424345047853,-0.38827636239105534,0.01679748060304689,0.4911953541576268,-0.6296403499723422,0.5286179895431818,1.3003413987906502
1781116112718538752,2.1344897747039795,-0.3669183850288391,0.08431549370288849,0.021716918796300888,0.4086955487728119,0.5912525653839111,-0.6952613592147827,0.01737561821937561,0.10219836235046387,-0.037679314613342285,0.7786986832511582,-0.3899995773121504,0.016421367503166164,0.4911812435738273,-0.6326110893309295,0.5314229915466723,1.3031533734820098
1781116112728573696,2.1445248126983643,-0.1458456665277481,0.03233365714550018,0.008754515089094639,0.40916913747787476,0.5930997729301453,-0.6934069395065308,0.035838156938552856,0.20789504051208496,-0.05996525287628174,0.7781290641038294,-0.39120402365982937,0.015998138914424916,0.4911400348309893,-0.6349034582992416,0.5330972809058673,1.3050098516994562
1781116112738607616,2.1545586585998535,0.27194440364837646,-0.01763150468468666,-0.021202584728598595,0.40920260548591614,0.592740535736084,-0.6936944723129272,0.03691861033439636,0.2566094398498535,-0.10229551792144775,0.7782415638058193,-0.3910138712105124,0.016153225056651156,0.49110837794248247,-0.6344573127561994,0.5329516311157342,1.304636494988679
1781116112748642560,2.1645936965942383,0.6402036547660828,-0.04703773185610771,-0.06983776390552521,0.40869972109794617,0.5896227359771729,-0.6966416239738464,0.021353989839553833,0.24086743593215942,-0.10960221290588379,0.7792803386633179,-0.3890845947222761,0.01709831886019518,0.4909612877447182,-0.630591649902527,0.5305613890525203,1.3011726401940484
1781116112758677760,2.174628734588623,0.7149138450622559,-0.053683649748563766,-0.10268545895814896,0.4078177511692047,0.5851209163665771,-0.7009409070014954,0.0070534348487854,0.19243639707565308,-0.05691730976104736,0.7808491693086363,-0.3862510063316529,0.018431037378330708,0.49065766911831005,-0.6250291289525046,0.5269406577041457,1.2958981575097337
1781116112768711680,2.1846628189086914,0.44860732555389404,-0.03955850750207901,-0.1254408359527588,0.4068271815776825,0.5813261866569519,-0.7046641111373901,-0.005322694778442383,0.0908692479133606,-0.0003376603126525879,0.7823046603087693,-0.38377976815008324,0.01952042470135826,0.49023602502171376,-0.6203576063550673,0.5235872543089161,1.290922909767196
1781116112778746624,2.194697618484497,0.24291671812534332,-0.033684905618429184,-0.12864647805690765,0.40580710768699646,0.5795419216156006,-0.7067190408706665,-0.01533469557762146,-0.05502098798751831,0.028679490089416504,0.7832535303942408,-0.38241788425150014,0.01992615459793105,0.48976872248824405,-0.6181664542357158,0.5212424679877842,1.287535903929773
1781116112788780800,2.2047317028045654,0.09842239320278168,-0.03580997511744499,-0.09291351586580276,0.4049203395843506,0.5787231922149658,-0.7078975439071655,-0.013425588607788086,-0.17772221565246582,0.0038417577743530273,0.7838784200755553,-0.3816415667979741,0.020023646977637637,0.48937035303185794,-0.6171622228906087,0.5195799231293612,1.285231387225627
1781116112798815744,2.21476674079895,-0.03888805955648422,-0.04080739617347717,-0.05566788464784622,0.4042072296142578,0.5788851976394653,-0.7081725597381592,0.0016612708568572998,-0.1735202670097351,0.018826305866241455,0.7841010822460982,-0.3814744512275438,0.019772752181030074,0.4891540759364793,-0.617360878518826,0.5186533297523003,1.2843228705797969
1781116112808849920,2.2248008251190186,-0.04272088035941124,-0.03870523348450661,-0.03361264988780022,0.4036739766597748,0.5793825387954712,-0.7080701589584351,0.012067019939422607,-0.11267715692520142,0.02020394802093506,0.7841272030678953,-0.3815594348771155,0.019424764013001975,0.48906010671836847,-0.6179708826569053,0.5181473853945656,1.2841260053486605
1781116112818884608,2.234835624694824,0.05446266010403633,-0.0401044562458992,-0.012702574022114277,0.403264582157135,0.5794702172279358,-0.708231508731842,0.016153693199157715,-0.047152161598205566,0.014719605445861816,0.7841883440605086,-0.3814635886135043,0.019229707105245318,0.4890442747597343,-0.6180785270072069,0.5176129642066771,1.2838766214347652
1781116112828918784,2.2448697090148926,0.23651714622974396,-0.03199419751763344,0.003465477377176285,0.4029662609100342,0.5784807205200195,-0.7092095613479614,0.017428606748580933,0.00043767690658569336,0.012661159038543701,0.7844749658739933,-0.380812462040452,0.019418874401803506,0.48908458435172025,-0.6168649284182541,0.5167018308334179,1.2829626249912902
1781116112838953728,2.2549047470092773,0.4139774441719055,-0.01498432271182537,0.01770246960222721,0.40285807847976685,0.5760979056358337,-0.7112078070640564,0.015019088983535767,0.020032405853271484,0.008632183074951172,0.7850791100003415,-0.3794601196251657,0.020152345847920833,0.48913666714513615,-0.6139467348714939,0.5153790584983416,1.2810786577974322
1781116112848987904,2.2649388313293457,0.5233902335166931,0.0044635445810854435,0.03087180107831955,0.40297386050224304,0.5725996494293213,-0.7139619588851929,0.016795426607131958,0.03025984764099121,0.02615678310394287,0.7859204020940593,-0.3775754041806443,0.021350198864289047,0.48919333785408137,-0.6096733321168271,0.5138461907043906,1.2784792033528707
1781116112859022592,2.2749736309051514,0.5295833945274353,0.015365460887551308,0.04110553115606308,0.4032682776451111,0.5686317086219788,-0.7169607281684875,0.021551668643951416,0.02401965856552124,0.04238492250442505,0.7868335652705857,-0.37550114106097976,0.02277132972299878,0.48925786944932576,-0.6048414952662853,0.5123660072811108,1.2756807979363145
1781116112869057536,2.285008668899536,0.46093854308128357,0.02762678638100624,0.043592389672994614,0.4036567509174347,0.5648296475410461,-0.7197421193122864,0.026427477598190308,-0.0024364590644836426,0.04779088497161865,0.7876726001246183,-0.3735570396808197,0.024167443580895388,0.489329119216249,-0.6002267718003212,0.5111239166222563,1.2731310112283853
1781116112879091712,2.2950427532196045,0.19268204271793365,0.04039477929472923,0.04277746379375458,0.4041527211666107,0.5622473359107971,-0.7214835286140442,0.023474812507629395,-0.02846449613571167,0.04907447099685669,0.7881891582628375,-0.3723209462006315,0.025206354301533708,0.4893868711752777,-0.5971008700462133,0.5106169904290426,1.27159474111843
1781116112889126656,2.3050777912139893,-0.028608256950974464,0.04400762543082237,0.041747085750103,0.40470799803733826,0.5615095496177673,-0.7217468023300171,0.019608408212661743,-0.057633817195892334,0.04434812068939209,0.7882240653539081,-0.3721138640519394,0.025649069466215188,0.4894651906739189,-0.5962089708676943,0.5110469455350148,1.271585553167425
1781116112899160576,2.3151116371154785,-0.15964165329933167,0.046848420053720474,0.034089699387550354,0.40525829792022705,0.5620903372764587,-0.7209855318069458,0.01631152629852295,-0.08342212438583374,0.0114518404006958,0.7879369967315252,-0.3726244883942434,0.025655679329081072,0.4895386447352352,-0.5969110311466954,0.5120774480826616,1.2725826355461485
1781116112909195776,2.3251466751098633,-0.17214412987232208,0.04554613307118416,0.03811906278133392,0.4057902991771698,0.5631994605064392,-0.7198198437690735,0.0117664635181427,-0.05729430913925171,-0.006681621074676514,0.7875207708029126,-0.3734178994652884,0.02547853008581745,0.489613062961871,-0.5982526497297406,0.5133299427036514,1.2739848520589783
1781116112919229696,2.3351807594299316,-0.09940892457962036,0.04175858572125435,0.04286587983369827,0.4063301384449005,0.5640336275100708,-0.7188615798950195,0.006008118391036987,-0.007774472236633301,-0.01740550994873047,0.7871507007079145,-0.3740655604135392,0.02538020101216413,0.489719034878595,-0.599262458841253,0.5144692946941527,1.2752628708373164
1781116112929264896,2.3452157974243164,0.02906143106520176,0.02865290269255638,0.03928153216838837,0.4068189859390259,0.5641407370567322,-0.7185009121894836,0.001094222068786621,0.025291025638580322,-0.022633731365203857,0.7869746846511059,-0.3742980698048794,0.025504868223924254,0.4898176694941192,-0.5993922127509617,0.515199672692814,1.2759209896057475
1781116112939298560,2.3552496433258057,0.1732281893491745,0.02250046841800213,0.035354968160390854,0.40720993280410767,0.5632501244544983,-0.7189780473709106,-0.0008683502674102783,0.03535217046737671,-0.022629618644714355,0.7870743818283528,-0.37395022546621914,0.025926799894155302,0.48990113489458076,-0.5983139903418601,0.5153268592721127,1.2756928924756126
1781116112949333760,2.3652846813201904,0.2970409691333771,0.010409451089799404,0.029040079563856125,0.4075110852718353,0.5614202618598938,-0.7202374935150146,-0.005213111639022827,0.0368463397026062,-0.01644158363342285,0.7874325125352925,-0.3730577718433771,0.02662966718393346,0.4899682879900854,-0.5961010558771054,0.5148934848740844,1.2746320094349435
1781116112959368704,2.375319719314575,0.31131869554519653,0.00957002304494381,0.02571112848818302,0.40774446725845337,0.5590284466743469,-0.7219637036323547,-0.005477011203765869,0.0404282808303833,-0.005209088325500488,0.7879536408211903,-0.3718358525411319,0.027499737632041953,0.4900111371457431,-0.5932136189663937,0.5141132303986948,1.2730373368496761
1781116112969402880,2.3853538036346436,0.32562997937202454,-0.004744600970298052,0.018082236871123314,0.407885879278183,0.5566701889038086,-0.7237039804458618,-0.0022767484188079834,0.037507057189941406,0.004953980445861816,0.7884804665433522,-0.37060231474812655,0.028318622787568665,0.4900516236570893,-0.5903721246767749,0.5132313267377339,1.2714160979638185
1781116112979437568,2.395388603210449,0.3566153347492218,-0.015477139502763748,0.0058609903790056705,0.40788209438323975,0.5541161894798279,-0.7256634831428528,0.0001684427261352539,0.01521974802017212,-0.011244475841522217,0.7890923390855082,-0.36921340956757814,0.029149881917733243,0.4900664362458578,-0.5873008776463909,0.5120715725521151,1.2695008625545603
1781116112989471744,2.4054226875305176,0.38007086515426636,-0.023461563512682915,-0.0012565734796226025,0.4077588617801666,0.551446795463562,-0.7277631163597107,-0.000425487756729126,0.02112400531768799,-0.012486517429351807,0.7897635193558237,-0.3677224867472593,0.029976967023978545,0.49005629891279945,-0.5840975900790233,0.5107095636658593,1.2673764169777817
1781116112999506688,2.4154577255249023,0.4260045289993286,-0.032671306282281876,-0.005506179761141539,0.40752166509628296,0.5484800338745117,-0.7301340103149414,-8.153915405273438e-05,0.03553485870361328,-0.014738976955413818,0.790526962419903,-0.36603411768996047,0.03085459703016942,0.49003476973581106,-0.5805453589870267,0.5090761088750936,1.2649490470614175
1781116113009540864,2.4254918098449707,0.4839823544025421,-0.038846515119075775,-0.01329193077981472,0.40720799565315247,0.5451993346214294,-0.7327614426612854,0.0009035766124725342,0.04037195444107056,-0.0121878981590271,0.791382450809,-0.36415332604647593,0.031806248692483115,0.4899943986297491,-0.5766268803722623,0.5072218717091003,1.2622200991120083
1781116113019575552,2.4355266094207764,0.5835001468658447,-0.052076034247875214,-0.023026317358016968,0.4067734181880951,0.5413621664047241,-0.7358412742614746,0.0015517771244049072,0.034870684146881104,-0.01409769058227539,0.7924048022080492,-0.36193504779329366,0.03289963066773031,0.4899135346179022,-0.5720563994468109,0.5049907486839639,1.2589406749356902
1781116113029609728,2.4455606937408447,0.6965292096138,-0.05424797162413597,-0.024205831810832024,0.40625476837158203,0.536726176738739,-0.7395147085189819,0.0012159347534179688,0.034013569355010986,-0.011110901832580566,0.7936230066819914,-0.3592659610810281,0.034214149538554714,0.48981608103263236,-0.5665522500883978,0.5023464746617614,1.2550399513482262
1781116113039644672,2.4555957317352295,0.8353462219238281,-0.06698454171419144,-0.02617603726685047,0.4056773781776428,0.5311424136161804,-0.7438505291938782,0.00411263108253479,0.03822404146194458,-0.006424069404602051,0.7950637897412133,-0.35607942322664465,0.03580749087491908,0.489692565287604,-0.5599482918693212,0.49928529493110935,1.2504350911328426
1781116113049679872,2.4656307697296143,1.0004137754440308,-0.07221978157758713,-0.02684209495782852,0.40504661202430725,0.5243915319442749,-0.74896639585495,0.009275287389755249,0.0414654016494751,-0.0004994869232177734,0.7967624738869102,-0.35226716560895194,0.03774432557952814,0.4895433354071226,-0.5520003748093594,0.4957581981839782,1.2450201801156917
1781116113059713536,2.4756646156311035,1.1204874515533447,-0.07289915531873703,-0.024403171613812447,0.4043416380882263,0.5164797902107239,-0.7548221945762634,0.009354650974273682,0.04269379377365112,0.005691945552825928,0.7987092606357831,-0.3478337396427072,0.040007506956106074,0.48936153754743245,-0.542734870076532,0.49178098673592513,1.2388254281954385
1781116113069748736,2.4856996536254883,1.1972589492797852,-0.08349493891000748,-0.02738191746175289,0.40361037850379944,0.5077338218688965,-0.7611209750175476,0.01094043254852295,0.04416126012802124,0.014630436897277832,0.8008075169660354,-0.34297648610000264,0.042504778604203985,0.4891502615933671,-0.5325523168971806,0.48758038296238815,1.2321571725587759
1781116113079782656,2.4957337379455566,1.242408275604248,-0.08080194890499115,-0.03160302713513374,0.4028480052947998,0.4985125958919525,-0.76759272813797,0.011061877012252808,0.03134888410568237,0.018187880516052246,0.8029731225542573,-0.337887582452131,0.04511765606107256,0.48890741500852364,-0.5218821020847633,0.48330587192717406,1.2252737288674433
1781116113089817856,2.5057687759399414,1.215289831161499,-0.08506301045417786,-0.03007517196238041,0.402042955160141,0.48910006880760193,-0.7740430235862732,0.008998274803161621,0.011235594749450684,0.017924249172210693,0.8051427256051928,-0.3327138449969326,0.04774931045373968,0.4886375143876886,-0.5110576767946878,0.4790519887407426,1.2183728199818369
1781116113099851520,2.5158026218414307,1.1899831295013428,-0.08859489113092422,-0.03153884410858154,0.4012354016304016,0.47981661558151245,-0.7802475094795227,0.007745921611785889,-0.00012606382369995117,0.015950024127960205,0.8072373338466878,-0.3276351405163916,0.05031372197767472,0.48835599282964465,-0.5004456883636629,0.47497554581199103,1.2117060529712542
1781116113109886720,2.5258376598358154,1.0994583368301392,-0.08346151560544968,-0.023187438026070595,0.40041840076446533,0.470919668674469,-0.7860659956932068,0.004351496696472168,-0.011080801486968994,0.014474809169769287,0.809193183740295,-0.3227810681394625,0.052719761349391006,0.4880978085470723,-0.49033300167786975,0.47113564079538306,1.2054884797362984
1781116113119920640,2.535871744155884,1.0242687463760376,-0.09178149700164795,-0.02232617326080799,0.3996085524559021,0.4625587463378906,-0.7914242744445801,0.006214171648025513,-0.017917662858963013,0.010586321353912354,0.8109955082139946,-0.3182285836571399,0.054940119982163214,0.48785086721002985,-0.4808790766118375,0.4675784785306668,1.1997556298109333
1781116113129955840,2.5459067821502686,0.9347543120384216,-0.08669792115688324,-0.01895780675113201,0.398797869682312,0.45486122369766235,-0.7962798476219177,0.006918072700500488,-0.022183001041412354,0.009811341762542725,0.812619973537836,-0.3140364889791545,0.056931246935529436,0.4876358841871761,-0.4722163612873783,0.4643084063523708,1.1945939797918657
1781116113139990784,2.5559418201446533,0.8538315296173096,-0.08806625753641129,-0.022635897621512413,0.3980097770690918,0.447722852230072,-0.8007075190544128,0.005112171173095703,-0.02134650945663452,0.004412353038787842,0.8141063890627995,-0.3101528159006728,0.05874928450288676,0.48742655649909883,-0.4642170596834743,0.4613029604154722,1.189863699366447
1781116113150024704,2.5659756660461426,0.7647871375083923,-0.08692429214715958,-0.019875265657901764,0.39719879627227783,0.4413224160671234,-0.8046537637710571,0.004671931266784668,-0.019691556692123413,0.010082840919494629,0.8154318799845638,-0.3066501968464764,0.06032234713760805,0.4872347743878927,-0.4570718179631476,0.4585362193671281,1.18564194401227
1781116113160059648,2.5760107040405273,0.6811110973358154,-0.07784237712621689,-0.0200869869440794,0.39644670486450195,0.43554362654685974,-0.8081656694412231,0.003745526075363159,-0.01881086826324463,0.00715559720993042,0.8166119479338253,-0.3034918743205185,0.06172392237490858,0.4870603761753687,-0.4506421068327474,0.4560601106425792,1.1818813584342562
1781116113170093824,2.5860447883605957,0.6157209277153015,-0.0752967968583107,-0.024713164195418358,0.3957256078720093,0.43040919303894043,-0.811263918876648,0.008678048849105835,-0.016026288270950317,0.010375916957855225,0.8176633811192618,-0.30067586482095937,0.06294493842177123,0.4868865652756809,-0.44494606654326135,0.45383118055292593,1.178519344830051
1781116113180128768,2.5960798263549805,0.5282179713249207,-0.07444964349269867,-0.023715810850262642,0.39501261711120605,0.4258311092853546,-0.8140226602554321,0.011054277420043945,-0.016910821199417114,0.011776566505432129,0.8186060183420134,-0.2981484902356427,0.06400117668639067,0.48671910064542173,-0.4398802374207687,0.45178622100736154,1.1754987231636131
1781116113190162688,2.6061136722564697,0.4640296697616577,-0.07482248544692993,-0.02880990505218506,0.3942824602127075,0.42188066244125366,-0.8164300918579102,0.00931251049041748,-0.012807756662368774,0.018197059631347656,0.8194339453959683,-0.2959356257449007,0.06486190468553789,0.48656249848106015,-0.4355186071620402,0.4499024354254198,1.172841471172964
1781116113200197632,2.6161487102508545,0.3885501027107239,-0.06523004919290543,-0.031248029321432114,0.39357268810272217,0.41849061846733093,-0.8185145854949951,0.006024450063705444,-0.01866459846496582,0.013445675373077393,0.8201629510246995,-0.29401265912777513,0.06556875701908568,0.48640519277984906,-0.43178276617329087,0.44820061444104664,1.17049131989861
1781116113210231808,2.626182794570923,0.30540621280670166,-0.05498526990413666,-0.0278604868799448,0.39294955134391785,0.4157533347606659,-0.8202071785926819,0.004801332950592041,-0.02433490753173828,0.015809595584869385,0.8207620764037629,-0.29244583321635453,0.06611992092670316,0.48626456665899376,-0.4287709782775461,0.44677662666953305,1.1685542970923912
1781116113220266752,2.6362178325653076,0.2400788515806198,-0.05564147233963013,-0.02436775155365467,0.39239436388015747,0.413617342710495,-0.8215517997741699,0.008011549711227417,-0.029675692319869995,0.017947673797607422,0.8212415563030607,-0.2912026907281347,0.06652128113674027,0.4861463816454401,-0.42642362567843123,0.4455885747502372,1.1670022212542428
1781116113230300672,2.646251678466797,0.18444089591503143,-0.04740617796778679,-0.021080078557133675,0.3918616771697998,0.4119713306427002,-0.822632372379303,0.008773088455200195,-0.026320695877075195,0.01564079523086548,0.821623727627564,-0.29021334457925263,0.06678344013815313,0.48605612014586036,-0.4246164695745414,0.44454996358364957,1.1657692049144557
1781116113240335616,2.6562867164611816,0.148850679397583,-0.04087211191654205,-0.01558065228164196,0.39142605662345886,0.41067904233932495,-0.8234854936599731,0.008445769548416138,-0.01567476987838745,0.018706440925598145,0.8219224582216942,-0.2894322311172742,0.06697943463547852,0.48598986401668526,-0.42319868846173175,0.44371627676588854,1.1648089392716343
1781116113250370816,2.6663217544555664,0.1497018188238144,-0.03557268902659416,-0.015238169580698013,0.39105647802352905,0.40950584411621094,-0.8242449760437012,0.01014283299446106,-0.006292372941970825,0.012950479984283447,0.822185272622252,-0.28873211278808014,0.06716597348590782,0.48593611004719145,-0.42191233459367294,0.44299298235699264,1.1639668136138486
1781116113260404736,2.6763558387756348,0.1455952227115631,-0.03773410990834236,-0.018193213269114494,0.3907027244567871,0.40830016136169434,-0.8250105381011963,0.007200717926025391,-0.006688833236694336,0.008527994155883789,0.8224589609096032,-0.28802002326291504,0.06737352733521591,0.4858669161763915,-0.4205911586365132,0.44228339202742706,1.1630814611385292
1781116113270439680,2.6863906383514404,0.12380285561084747,-0.02676694467663765,-0.013301785103976727,0.39037513732910156,0.40725773572921753,-0.8256805539131165,-0.0004215240478515625,-0.0038000941276550293,0.017025768756866455,0.822696519194866,-0.28739826201978574,0.0675423110512046,0.4858092764716705,-0.41944950132405673,0.44164523894989144,1.162314419791577
1781116113280473600,2.696424722671509,0.09491927176713943,-0.02105339989066124,-0.017893873155117035,0.39013224840164185,0.4064030051231384,-0.8262162804603577,-0.006007552146911621,-0.011429280042648315,0.01626455783843994,0.822896364075898,-0.28689536173863867,0.06769714273275723,0.4857464312095041,-0.41851384232430794,0.4411543091592296,1.1616601306459415
1781116113290508800,2.7064597606658936,0.05511194095015526,-0.01600724272429943,-0.019280847162008286,0.3899054229259491,0.4058537483215332,-0.826593279838562,-0.009885311126708984,-0.02394154667854309,0.016794145107269287,0.8230559755674047,-0.28654753993244664,0.06777809448036225,0.485670002908389,-0.4179127872436264,0.4407537497431375,1.1611230468974025
1781116113300542720,2.716493606567383,0.02227836102247238,-0.016274889931082726,-0.01575695350766182,0.3897060751914978,0.4056004583835602,-0.8268116116523743,-0.010372549295425415,-0.03320974111557007,0.015044093132019043,0.823155848299268,-0.2863561897694589,0.06778136292018054,0.4856134121028828,-0.41763566449297895,0.44045457210329564,1.1607839001840674
1781116113310577664,2.7265286445617676,-0.0027657411992549896,-0.010506349615752697,-0.014695150777697563,0.38953250646591187,0.40557608008384705,-0.8269053101539612,-0.010626256465911865,-0.03251391649246216,0.013535618782043457,0.8232094162771514,-0.286287215690119,0.06772711098989187,0.4855706049219114,-0.41760897921449447,0.44023911299475554,1.1605955447791139
1781116113320611840,2.736562728881836,-0.018183045089244843,-0.0057765766978263855,-0.008544047363102436,0.3894188404083252,0.40570661425590515,-0.8268948197364807,-0.012023210525512695,-0.023595988750457764,0.010275006294250488,0.8232233032951456,-0.2863143769902496,0.06765097004896473,0.4855416923988491,-0.4177517821585032,0.44013150730673145,1.160538108207485
1781116113330646784,2.7465977668762207,-0.011717158369719982,-0.0032251346856355667,-0.00905377697199583,0.38934072852134705,0.40585801005363464,-0.826857328414917,-0.010114043951034546,-0.016911476850509644,0.004774808883666992,0.8232242513846396,-0.2863634667060619,0.06758175043338142,0.48552083993191264,-0.4179174365491629,0.44007166969168454,1.1605249050034
1781116113340681728,2.7566328048706055,-0.005166314542293549,-0.002186502330005169,-0.007539236918091774,0.3892833888530731,0.40595895051956177,-0.8268347978591919,-0.00731012225151062,-0.009810268878936768,0.0023719072341918945,0.823233603875185,-0.2863934690073507,0.06753797809847312,0.4854934692586864,-0.41802790223846553,0.44002540189566597,1.160481177099148
1781116113350715648,2.7666666507720947,-0.0003651675651781261,-0.0029297899454832077,-0.0033748517744243145,0.3892473876476288,0.4059976637363434,-0.8268327713012695,-0.0019182860851287842,-0.002219587564468384,0.0015306472778320312,0.8232425422724877,-0.2864001892997449,0.0675170347494208,0.4854773271958533,-0.41807024914439056,0.439990716869185,1.1604447954072978
1781116113360750592,2.7767016887664795,0.006816312205046415,-0.005096537992358208,-0.006978109013289213,0.3892020583152771,0.40600255131721497,-0.8268516659736633,0.0038490891456604004,0.002780407667160034,0.00174790620803833,0.8232586973368686,-0.28638721379124954,0.06750199707595,0.48545960369282665,-0.41807559219438944,0.43993702003128426,1.1603849302869127
1781116113370784768,2.786735773086548,0.016443107277154922,-0.006735846400260925,-0.008038579486310482,0.38912442326545715,0.4059373140335083,-0.8269202709197998,0.004018276929855347,0.004356265068054199,0.0028693675994873047,0.8232962277945133,-0.2863287429260442,0.06749609888676848,0.4854312947127218,-0.4180042123818048,0.43982821539102546,1.160253215603613
1781116113380819712,2.7967708110809326,0.01763780228793621,-0.006933719851076603,-0.009692668914794922,0.38902831077575684,0.40582212805747986,-0.8270220160484314,0.004495859146118164,0.006165206432342529,0.0023607611656188965,0.8233472579723684,-0.28623940744624526,0.06749807360347986,0.4853971725940252,-0.4178781669562126,0.43968563827325563,1.1600764419307679
1781116113390853632,2.806804656982422,0.010705326683819294,-0.009575976058840752,-0.011007205583155155,0.3889092206954956,0.405752956867218,-0.8271119594573975,0.0034552812576293945,0.004922091960906982,0.004586935043334961,0.8233965577159685,-0.286165533049506,0.06747824659620183,0.48535983395306365,-0.41780251245475536,0.4395258618027731,1.1599036188679097
1781116113400888576,2.8168396949768066,0.014600466005504131,-0.003948449157178402,-0.011684447526931763,0.3888113796710968,0.40569937229156494,-0.82718425989151,0.0026528537273406982,0.0003522932529449463,0.0038810372352600098,0.8234425111174349,-0.2861055958417706,0.06746453374347988,0.48531916138618586,-0.41774385797448005,0.43939533398629854,1.1597388708518264
1781116113410922752,2.826873779296875,0.013120015151798725,-0.005819985643029213,-0.013712710700929165,0.388702392578125,0.40559905767440796,-0.8272846341133118,0.005493104457855225,-0.0028738677501678467,0.0037677884101867676,0.8234999563124069,-0.2860187712975194,0.06746080354648837,0.48527316655227437,-0.4176341208853031,0.43924072876001397,1.159534896152999
1781116113420957696,2.8369088172912598,0.025243790820240974,-0.009242947213351727,-0.013212302699685097,0.3885679244995117,0.40548083186149597,-0.8274057507514954,0.009442329406738281,-0.0028166472911834717,0.005857288837432861,0.8235633395783654,-0.28591527961481566,0.06745060157417784,0.485228083460254,-0.41750478494089827,0.43905122861741985,1.15931421276489
1781116113430991616,2.846942663192749,0.04361720383167267,-0.009877445176243782,-0.012486591003835201,0.38841864466667175,0.4052422046661377,-0.8275927305221558,0.010415583848953247,-0.0021507740020751953,0.005250811576843262,0.8236473229289222,-0.28574765208856373,0.06746783855245285,0.4851819891858077,-0.4172437621714659,0.43881646279952713,1.1590292398433202
1781116113441026560,2.856977701187134,0.05217713862657547,-0.00682439748197794,-0.009418097324669361,0.38830211758613586,0.40488868951797485,-0.8278204202651978,0.008365362882614136,-0.0014157891273498535,0.005707383155822754,0.8237448194853835,-0.28553319508871455,0.06753220749776215,0.4851335991160176,-0.416857097887791,0.43859531162353943,1.1586994813736822
1781116113451061760,2.8670127391815186,0.03418242558836937,-0.007781404070556164,-0.007323254831135273,0.38822153210639954,0.4045950770378113,-0.8280017375946045,0.008964747190475464,0.0001748204231262207,0.011137723922729492,0.823822187449019,-0.2853602463334867,0.06759197615025611,0.4850955642368142,-0.41653599583903583,0.4384313315268687,1.1584378154739645
1781116113461095936,2.877046823501587,0.024899177253246307,-0.013862998224794865,-0.00802579615265131,0.38811492919921875,0.40441015362739563,-0.8281420469284058,0.01123809814453125,-0.00719335675239563,0.009126543998718262,0.8238817768559882,-0.2852337467353309,0.0676067589664919,0.4850670273641869,-0.41633379937228143,0.4382606528645861,1.1582386658792496
1781116113471130624,2.8870816230773926,0.008813949301838875,-0.01449496578425169,-0.008410889655351639,0.3879849314689636,0.404325932264328,-0.8282440304756165,0.00967434048652649,-0.015516728162765503,0.0068329572677612305,0.8239263484818609,-0.2851503582929053,0.0675814153538171,0.48504358472013603,-0.4162417041764888,0.438084629997742,1.1580885690697171
1781116113481164800,2.897115707397461,0.006268766708672047,-0.010734316892921925,-0.005706715863198042,0.38787582516670227,0.40430182218551636,-0.8283069133758545,0.004091918468475342,-0.012273043394088745,0.007216274738311768,0.8239507101630393,-0.28510421402280817,0.06754344107318179,0.4850347384466552,-0.41621533875903993,0.43794744857824425,1.1580104104149194
1781116113491199744,2.9071507453918457,0.009237391874194145,-0.006729189306497574,-0.0032994842622429132,0.38779884576797485,0.4042558968067169,-0.8283653855323792,7.957220077514648e-05,-0.004963904619216919,0.006786465644836426,0.8239708961553383,-0.2850575550418603,0.06752395154483433,0.4850306413029269,-0.41616513128253135,0.4378441084230955,1.1579471534168888
1781116113501233920,2.917184829711914,0.003763264510780573,-0.0032913144677877426,-0.004038778133690357,0.3877700865268707,0.4042159616947174,-0.8283983469009399,-0.00424039363861084,-0.0024062693119049072,0.006376862525939941,0.8239869186512094,-0.2850281612956066,0.0675259970380851,0.4850204972134743,-0.4161214866920121,0.4378003504727889,1.157892137375547
1781116113511268608,2.9272196292877197,0.0019935942254960537,-0.0017693182453513145,0.0009871397633105516,0.3877779245376587,0.4041987657546997,-0.828403115272522,-0.0024324655532836914,-0.005379766225814819,0.005023598670959473,0.8239890806679177,-0.28502196217325765,0.06753464857733449,0.48501928159275715,-0.4161026692485263,0.4378059239519871,1.1578845355893008
1781116113521302784,2.937253713607788,-0.0019255137303844094,-0.0015309648588299751,0.000865965848788619,0.3877995014190674,0.40421000123023987,-0.8283874988555908,-0.0017521083354949951,-0.008061319589614868,0.00674748420715332,0.8239849254677749,-0.28503405980398633,0.06754131509975914,0.4850182452385274,-0.4161149590467791,0.4378345092417974,1.1578962008006901
1781116113531337728,2.947288751602173,-0.0006202984368428588,-0.002642301842570305,0.001971976598724723,0.38782641291618347,0.4042401611804962,-0.8283601403236389,0.00015878677368164062,-0.005634814500808716,0.005499482154846191,0.8239742169407275,-0.28505757456784203,0.06754333067587093,0.4850221659557387,-0.4161479349332957,0.43787384586544104,1.1579308427285997
1781116113541372672,2.9573237895965576,0.009565494023263454,0.0022605773992836475,0.0023080676328390837,0.3878854811191559,0.4041750729084015,-0.8283642530441284,0.0012441575527191162,-0.001755058765411377,0.004969477653503418,0.8239700892198631,-0.28504429327815745,0.06758414300989554,0.4850313871898619,-0.4160767874881651,0.43793042814318933,1.1579479220743467
1781116113551406592,2.967357635498047,0.019830383360385895,-2.06860713660717e-05,0.0028497546445578337,0.3879481554031372,0.4039895832538605,-0.828425407409668,0.003104090690612793,-0.0010507404804229736,0.007548332214355469,0.8239825256754679,-0.2849727478138743,0.06765969317155208,0.48504171597474666,-0.41587399308436923,0.43796413267452367,1.157913716832623
1781116113561441536,2.9773926734924316,0.011180168017745018,0.0002553504891693592,0.0032207330223172903,0.3879982829093933,0.4038064777851105,-0.8284912109375,0.0025199055671691895,-0.004789143800735474,0.008453369140625,0.8239925268682288,-0.2848990735745949,0.06772679623036475,0.48505869798951073,-0.4156738302641428,0.43798326816580074,1.1578915603010043
1781116113571475712,2.9874267578125,0.005313224159181118,0.0014050370082259178,0.005258317105472088,0.3880317509174347,0.40371987223625183,-0.828517735004425,6.026029586791992e-05,-0.009203881025314331,0.009471714496612549,0.8239923918370204,-0.28486770796729527,0.06776077454066746,0.4850726009345408,-0.41557915594562134,0.4380040981892236,1.157899402311506
1781116113581510656,2.9974617958068848,-0.004799597430974245,0.005354771390557289,0.007125193253159523,0.3880971372127533,0.4037129282951355,-0.8284904956817627,0.002894073724746704,-0.011989295482635498,0.006362199783325195,0.8239730579538489,-0.28488589241608325,0.06778480500090624,0.485091458813966,-0.41557159455435083,0.4380814279814973,1.1579692711230924
1781116113591544576,3.007495641708374,-0.004308776464313269,0.0015737484209239483,0.0069464948028326035,0.38814786076545715,0.40372517704963684,-0.8284608125686646,0.004903286695480347,-0.00917866826057434,0.005645871162414551,0.82395003573337,-0.2849094450472203,0.06779535340978197,0.4851153449029975,-0.41558495402535567,0.438145405676103,1.158054051667591
1781116113601579776,3.017530679702759,0.0008154116803780198,0.002183079719543457,0.00578242726624012,0.3881976008415222,0.40370553731918335,-0.8284470438957214,0.0066082775592803955,-0.0023078620433807373,0.0032669901847839355,0.8239313860569313,-0.284917061242526,0.06781415472475748,0.48513972369498,-0.4155635037141722,0.43820102182355575,1.1581249383321484
1781116113611613696,3.027564764022827,0.009239789098501205,0.0008899816311895847,0.007329191081225872,0.38825637102127075,0.40363654494285583,-0.8284531235694885,0.006122291088104248,0.001072317361831665,0.0034866929054260254,0.8239154036369722,-0.2849035110557589,0.0678486376960608,0.485170027055103,-0.41548807948374167,0.4382563692067397,1.1581912557933516
1781116113621648896,3.037599802017212,0.01212612260133028,0.00031793443486094475,0.007554494775831699,0.3883039057254791,0.4035225212574005,-0.8284863233566284,0.005662739276885986,0.0027427077293395996,0.003947198390960693,0.8239099480361852,-0.28486397578610717,0.06789212010894746,0.4851963582340698,-0.41536345583648093,0.4382880065729956,1.1582225147635798
1781116113631682560,3.047633647918701,0.010381752625107765,0.0014200839214026928,0.008610437624156475,0.3883686363697052,0.4034062922000885,-0.8285126686096191,0.0036296546459198,5.5730342864990234e-06,0.005224704742431641,0.8239023571801254,-0.28482861028483053,0.0679436546030765,0.4852229455723174,-0.41523643689256035,0.4383398515907352,1.1582605652220375
1781116113641717760,3.057668685913086,0.0021232902072370052,0.0010355236008763313,0.007608024403452873,0.38846564292907715,0.4033065438270569,-0.8285157084465027,0.004539757966995239,-0.004243433475494385,0.006417989730834961,0.8238856455690634,-0.2848116021734884,0.06800355471067272,0.4852529198407176,-0.41512742354611115,0.43843439907181303,1.158327882869821
1781116113651752704,3.0677037239074707,-0.0016818343428894877,0.00335034285672009,0.005543009378015995,0.3885335326194763,0.4032468795776367,-0.828512966632843,0.004136145114898682,-0.005007714033126831,0.006018459796905518,0.8238664197462998,-0.284805556315518,0.06803910213429538,0.4852841784888358,-0.4150622203275173,0.4385028685225787,1.1584046310065108
1781116113661786624,3.07773756980896,-0.0009683736134320498,0.0012080962769687176,0.007639449555426836,0.3886222243309021,0.40317460894584656,-0.8285065293312073,0.005344480276107788,-0.0035469233989715576,0.005966246128082275,0.8238432545837886,-0.28480008473104856,0.0680856178650618,0.4853201793101918,-0.4149832573749627,0.43859359526608765,1.158495766203908
1781116113671821568,3.0877726078033447,0.006804594304412603,0.0004174038767814636,0.004042051732540131,0.3887014091014862,0.4030736982822418,-0.8285185098648071,0.002106696367263794,-0.0012029707431793213,0.007321000099182129,0.8238288371879783,-0.28477710163113457,0.06813781647690598,0.4853508406560094,-0.41487297444435883,0.43866639304248134,1.1585567870991353
1781116113681855744,3.097806692123413,-0.0009465356124565005,0.005159961059689522,0.00754384184256196,0.3887936770915985,0.40301716327667236,-0.8285026550292969,0.0009920895099639893,-0.005022168159484863,0.005336761474609375,0.8238105475132635,-0.2847794381593647,0.06818605273251019,0.48537371651083994,-0.41481122714598967,0.43876501604057844,1.1586248092909859
1781116113691890688,3.107841730117798,-0.01158719602972269,0.003598150098696351,0.006160063669085503,0.3888934254646301,0.4030696153640747,-0.8284303545951843,7.331371307373047e-06,-0.008294254541397095,0.004898250102996826,0.8237725038859195,-0.2848382301751359,0.06820564824807494,0.485401028901692,-0.4148685342786493,0.438897238359298,1.1587568851911756
1781116113701924608,3.117875576019287,-0.0189558956772089,0.0036388966254889965,0.002042017877101898,0.38898172974586487,0.403197705745697,-0.8283265233039856,0.00022420287132263184,-0.011779248714447021,0.0020478367805480957,0.8237292847149115,-0.2849302621347607,0.06820176084567764,0.48542078246259807,-0.4150084879292928,0.43903279221574193,1.1589007048555366
1781116113711959552,3.127910614013672,-0.013276439160108566,-0.001968787983059883,0.0002467808953952044,0.3890337646007538,0.40333911776542664,-0.8282332420349121,0.006077319383621216,-0.006870001554489136,0.0009322166442871094,0.8236919787289261,-0.2850173626810189,0.0681798613285681,0.48543595889811075,-0.4151630318730789,0.43912762203000966,1.1590244722258076
1781116113721993728,3.1379446983337402,0.002277487190440297,-0.002635910175740719,0.0009479912114329636,0.3890381455421448,0.40339645743370056,-0.8282032608985901,0.004302948713302612,-0.0005644559860229492,0.002534925937652588,0.823675231720257,-0.285048091147207,0.06816125803626626,0.485449053697733,-0.4152257073888864,0.4391458648476446,1.1590845430273105
1781116113732028672,3.147979736328125,0.005331067368388176,0.0022195647470653057,-0.002796679502353072,0.3890564441680908,0.4033522605895996,-0.8282161951065063,0.0001342296600341797,0.0006241798400878906,1.4901161193847656e-05,0.8236819711746314,-0.28503149046820947,0.06818325642285701,0.48544426756346193,-0.41517739148363064,0.4391579710636023,1.1590601871235964
1781116113742063872,3.1580147743225098,-0.0015910206129774451,0.0010650847107172012,-0.0009535058052279055,0.3890979290008545,0.40332984924316406,-0.8282076120376587,0.0005962848663330078,-0.0048007965087890625,0.0029054880142211914,0.8236884342876323,-0.28503189679054225,0.06821296905145113,0.4854289351634668,-0.415152909572529,0.4392029849196632,1.1590299645515318
1781116113752097536,3.168048620223999,-0.01296218577772379,-0.0006768889725208282,-0.004890723153948784,0.38910725712776184,0.4034016728401184,-0.8281682729721069,0.002341717481613159,-0.00906875729560852,0.0031865835189819336,0.8236845255697418,-0.2850690902898789,0.0682017316444251,0.4854153627534892,-0.4152313810509034,0.4392304923603003,1.1590340212542511
1781116113762132736,3.178083658218384,-0.01483438815921545,-0.0005650361999869347,-0.0017082456033676863,0.38910627365112305,0.40351325273513794,-0.8281143307685852,0.003563404083251953,-0.01085883378982544,0.003681957721710205,0.8236691263197777,-0.2851237829693571,0.06817081963401507,0.48541349472745016,-0.41535332952771725,0.439254581112219,1.1590805248171154
1781116113772166656,3.188117742538452,-0.0017705176724120975,0.00041966745629906654,0.0009186964598484337,0.3891189992427826,0.4035561978816986,-0.8280873894691467,0.007838398218154907,-0.0015481412410736084,0.004784226417541504,0.8236565789121524,-0.28514952875472693,0.06816185680398693,0.4854208849107235,-0.4154002714038574,0.4392796899496451,1.1591236055129142
1781116113782201856,3.198152780532837,0.027708012610673904,-0.002077045850455761,0.0005083032883703709,0.3891371190547943,0.40338560938835144,-0.8281620740890503,0.010368496179580688,0.00889161229133606,-0.002358555793762207,0.8236730838982342,-0.2850716843263432,0.06821367873842654,0.4854315380008539,-0.4152138346638237,0.4392629179712635,1.159078369014335
1781116113792235520,3.208186626434326,0.026222767308354378,-0.0106447022408247,0.00012001443246845156,0.389107882976532,0.40314385294914246,-0.82829350233078,0.011526882648468018,0.012078315019607544,-0.0012810826301574707,0.8237097354037821,-0.28494376470223365,0.06826636711454763,0.4854370833624891,-0.41494965000016365,0.43917292132939784,1.1589681670457213
1781116113802270720,3.218221664428711,0.03008701466023922,-0.01353849284350872,0.0011927357409149408,0.3890191316604614,0.4029035270214081,-0.8284520506858826,0.0075415074825286865,0.007725715637207031,0.0018529891967773438,0.823747486586418,-0.28479930740791226,0.0682884913137923,0.4854544567946711,-0.41468704717174004,0.43901149040649123,1.1588625647132227
1781116113812304640,3.2282557487487793,0.023853354156017303,-0.005296541377902031,0.00020177348051220179,0.38893985748291016,0.40267500281333923,-0.8286004066467285,0.0021276473999023438,0.0004164278507232666,-0.0022101402282714844,0.8237864050785122,-0.28466298566781767,0.06831392390810022,0.485464746687317,-0.4144373667355313,0.43886422156129196,1.158749270608729
1781116113822339840,3.238290786743164,0.018184814602136612,-0.010295027866959572,0.003094498999416828,0.388886034488678,0.4024726152420044,-0.8287239670753479,-3.1054019927978516e-05,-0.0010291337966918945,0.0057716965675354,0.8238160755199492,-0.2845476453194935,0.06834212178589255,0.48547818868907877,-0.414216299953679,0.43875362670863,1.1586663858080626
1781116113832373504,3.2483246326446533,0.021525751799345016,-0.010837780311703682,0.002805812517181039,0.38881394267082214,0.4022630453109741,-0.8288595676422119,0.0013532936573028564,3.4928321838378906e-05,0.007707834243774414,0.8238401247443982,-0.28442446974932845,0.06835897319503113,0.4855071090793209,-0.41398736648421036,0.43861943842396856,1.15861020592743
1781116113842408704,3.258359670639038,0.021498054265975952,-0.010296359658241272,0.00193921965546906,0.3887585699558258,0.40204331278800964,-0.8289921283721924,-0.0007428228855133057,0.0018110573291778564,0.006909608840942383,0.8238654111892244,-0.2843011356447503,0.06838720574374776,0.485532465281253,-0.4137473859806893,0.4385032079567228,1.1585477700409843
1781116113852443648,3.268394708633423,0.021592063829302788,-0.007582599297165871,0.0022084652446210384,0.38872671127319336,0.4018477499485016,-0.8291018605232239,-0.002511531114578247,-0.0015639662742614746,0.006821036338806152,0.823890226879696,-0.2841960466154406,0.06842277364792868,0.4855468645251488,-0.4135338112424759,0.43842081604741096,1.1584796808594577
1781116113862477824,3.278428792953491,0.019368857145309448,-0.0038973167538642883,0.005215706769376993,0.38872814178466797,0.4016920328140259,-0.829176664352417,-0.0021924972534179688,-0.007008194923400879,0.008467435836791992,0.8239067818667125,-0.28412050988389115,0.06846318525683291,0.4855572779060889,-0.41336375211831977,0.43838754935213525,1.1584340870399221
1781116113872512512,3.288463592529297,0.013284598477184772,-0.001603935845196247,0.0070050847716629505,0.38874903321266174,0.4015546143054962,-0.8292334675788879,0.0009146332740783691,-0.012348711490631104,0.00872260332107544,0.8239152184070665,-0.2840603525039697,0.06850544631283856,0.48557229003546803,-0.4132136848740945,0.4383818966249068,1.1584161818305938
1781116113882546688,3.2984976768493652,0.010434483177959919,-0.002334972843527794,0.003162409644573927,0.3887704908847809,0.4014633893966675,-0.8292675018310547,0.0027394890785217285,-0.013432413339614868,0.007413923740386963,0.823916618701188,-0.2840232162584991,0.06853503096514744,0.48558738946892793,-0.4131141063917188,0.43838731023319605,1.1584199235005335
1781116113892581632,3.30853271484375,0.008992381393909454,0.00020208721980452538,0.0030769221484661102,0.38876327872276306,0.4013896882534027,-0.8293066024780273,0.0018769800662994385,-0.01299247145652771,0.007987022399902344,0.8239227698946018,-0.2839854411406053,0.06854905258011548,0.48559711881624557,-0.41303363317779546,0.4383620744215643,1.1584067501643804
1781116113902615808,3.3185667991638184,0.008072791621088982,-0.001898614689707756,0.004983479157090187,0.3887811601161957,0.4013131558895111,-0.8293352723121643,0.005917936563491821,-0.009925216436386108,0.008442938327789307,0.8239240219287676,-0.2839542119201592,0.0685738263066019,0.4856098362959727,-0.41295005184158134,0.4383664672718122,1.1584099627224753
1781116113912650496,3.328601598739624,0.004923870321363211,-0.004815175198018551,0.0046063754707574844,0.38879743218421936,0.4012618362903595,-0.8293524980545044,0.00770220160484314,-0.008760005235671997,0.008597493171691895,0.8239193995315235,-0.28393528336860996,0.06858948912639358,0.4856265310222985,-0.41289402434737027,0.4383745815058543,1.1584337247549192
1781116113922684672,3.3386356830596924,0.00242183031514287,-0.0024359067901968956,0.004672155249863863,0.3887936472892761,0.401224285364151,-0.8293724060058594,0.005630791187286377,-0.006189495325088501,0.008495330810546875,0.8239148254369921,-0.2839171135278644,0.06859208088536652,0.4856445373101185,-0.4128530561267503,0.43836161228559734,1.1584586620640378
1781116113932719616,3.348670721054077,0.010031280107796192,-0.0016611935570836067,0.0022798380814492702,0.3887802064418793,0.4011804759502411,-0.8293998837471008,0.0036911070346832275,-0.002437800168991089,0.00846177339553833,0.8239163327705357,-0.2838923320115001,0.06859440949482425,0.48565611268983316,-0.4128052066205493,0.43833556892103126,1.1584610815753604
