time,seconds_elapsed,rotationRateX,rotationRateY,rotationRateZ,gravityX,gravityY,gravityZ,accelerationX,accelerationY,accelerationZ,quaternionW,quaternionX,quaternionY,quaternionZ,pitch,roll,yaw
1781533821160628992,0.04551100730895996,-0.1487473100423813,-0.4233737885951996,0.10607845336198807,-0.8405100107192993,-0.540274977684021,0.040567390620708466,-0.008534669876098633,-0.012306749820709229,0.01872825250029564,0.39659169024457314,-0.27411883152986566,-0.6671900495756414,-0.5678303373743641,0.5707638774935384,-1.6190241091267794,-1.324881433474816
1781533821170663936,0.055545806884765625,-0.08475048840045929,-0.39447396993637085,0.1998206526041031,-0.8412060141563416,-0.538972020149231,0.043375931680202484,-0.008113384246826172,-0.015822231769561768,0.007268067449331284,0.39548966915163314,-0.27608616710206096,-0.6674311911195402,-0.5673622058984054,0.5692162129773337,-1.622314684066014,-1.3264788738712294
1781533821180697856,0.06557989120483398,0.012789922766387463,-0.3812476396560669,0.2466358244419098,-0.8422496318817139,-0.5370838642120361,0.04643877223134041,-0.008839845657348633,-0.008417844772338867,-0.0010437965393066406,0.3948010824151213,-0.27799582896024444,-0.6677856725520948,-0.5664916253448716,0.5669762335157632,-1.625877143819387,-1.3270085397936597
1781533821190732032,0.07561397552490234,0.1070498451590538,-0.37465524673461914,0.2734576165676117,-0.8434891700744629,-0.5348114371299744,0.050026558339595795,0.009886324405670166,-0.03637075424194336,-0.0474020279943943,0.3943433845225428,-0.27986292649027866,-0.6683487270277981,-0.5652255928280682,0.5642845565256127,-1.6300360003000145,-1.3264789430340547
1781533821200766976,0.08564901351928711,0.11329389363527298,-0.43011024594306946,0.3162873685359955,-0.8448391556739807,-0.5322909355163574,0.05397477746009827,0.03951078653335571,-0.03747224807739258,-0.08346998691558838,0.3940093113489047,-0.281722873286204,-0.6690438039062448,-0.5637103387595339,0.561304450583398,-1.6345972536350724,-1.3253252123712604
1781533821210800896,0.09568285942077637,-0.1608297973871231,-0.41284844279289246,0.2755063772201538,-0.8463170528411865,-0.5295839309692383,0.057343415915966034,0.0513647198677063,-0.011981010437011719,-0.06651389598846436,0.3934419195716986,-0.2840771681614053,-0.6693070078904064,-0.5626115006636497,0.5581099640939522,-1.6384493481649622,-1.3260555170726371
1781533821220835072,0.10571694374084473,-0.23817625641822815,-0.4856470227241516,0.21670003235340118,-0.847260057926178,-0.5277509689331055,0.06024155393242836,0.053391218185424805,-0.07899940013885498,-0.025939833372831345,0.39232322037979467,-0.28645649165267856,-0.6693754219677303,-0.5621046281997837,0.5559506016696389,-1.6417784804051765,-1.3283014870841712
1781533821230868992,0.11575102806091309,-0.16260506212711334,-0.4303227663040161,0.17421142756938934,-0.8480259776115417,-0.5261927843093872,0.06303416192531586,0.0688815712928772,-0.05466359853744507,0.008651621639728546,0.3909929214853414,-0.2888840149228142,-0.6693751603954836,-0.5617895835140706,0.5541171674929282,-1.6449903454814916,-1.331107584659835
1781533821240903936,0.12578582763671875,-0.39152267575263977,-0.43108952045440674,0.2105071246623993,-0.8487628102302551,-0.5247076749801636,0.06544705480337143,0.04297679662704468,0.04321664571762085,0.012586347758769989,0.38985164367148123,-0.29107997981915407,-0.6693250119115252,-0.5615087601454611,0.5523717101067472,-1.6477528099516945,-1.3336873061507666
1781533821250937856,0.1358199119567871,-0.24636414647102356,-0.5516766309738159,0.10619775950908661,-0.8493192195892334,-0.5234760642051697,0.06804316490888596,0.00010645389556884766,-0.0432354211807251,-0.00944935530424118,0.38812111374536756,-0.2937524881733405,-0.6691270870056412,-0.5615518631682781,0.5509255265819273,-1.6507405296837079,-1.3377915576570094
1781533821260972032,0.14585399627685547,-0.12610936164855957,-0.5236358046531677,0.1340765357017517,-0.8494851589202881,-0.5227312445640564,0.07160355150699615,0.059339284896850586,-0.1712537407875061,-0.05832839012145996,0.3863130296831279,-0.29599917070746595,-0.6694671514701439,-0.5612134224877815,0.5500516132550375,-1.6548880733399212,-1.3401967006091025
1781533821271006976,0.15588903427124023,0.11339855194091797,-0.4473836421966553,0.18010208010673523,-0.8499777913093567,-0.5213485956192017,0.07571882009506226,0.036104559898376465,-0.00955045223236084,-0.08308875560760498,0.3851583538036288,-0.29788849032370773,-0.6701655440177914,-0.560172858084719,0.5484305782771401,-1.659645080651583,-1.3403215827095791
1781533821281040896,0.1659228801727295,0.13430330157279968,-0.47731688618659973,0.13466189801692963,-0.8504531979560852,-0.5198822617530823,0.08032379299402237,0.00462794303894043,0.055831968784332275,-0.08204805850982666,0.3842655167724743,-0.29945327277290396,-0.6711852460046247,-0.5587290555549185,0.5467131191238477,-1.664965205613078,-1.3389298310231745
1781533821291075072,0.17595696449279785,0.0857088714838028,-0.523868978023529,0.1292460858821869,-0.8507106304168701,-0.5186881422996521,0.08516988158226013,0.024721920490264893,-0.052738189697265625,-0.057551510632038116,0.3831055566493348,-0.3010788071259617,-0.6722622203421943,-0.5573554927380066,0.5453158471244542,-1.6705799874500484,-1.3377916465830986
1781533821301108736,0.1859908103942871,0.04503893852233887,-0.5203931331634521,0.14342528581619263,-0.8509588241577148,-0.5174660682678223,0.08998960256576538,0.018332362174987793,-0.06802898645401001,-0.0019464418292045593,0.38180820793330494,-0.3028871670095104,-0.6732415366029303,-0.5560825070643823,0.5438870669133369,-1.676155575427881,-1.3372157303925623
1781533821311143936,0.19602584838867188,-0.003994650207459927,-0.546336829662323,0.1932024359703064,-0.8513317108154297,-0.5160260200500488,0.09461168944835663,-0.021333634853363037,-0.04163694381713867,0.023491382598876953,0.38052110842362574,-0.3048777790131298,-0.6740588869497631,-0.554885415570465,0.5422050496257744,-1.6814759085460154,-1.3371688705487468
1781533821321177856,0.20605993270874023,-0.09138628095388412,-0.5687536597251892,0.1915624588727951,-0.8518112301826477,-0.5143770575523376,0.09916703402996063,-0.037303268909454346,-0.043163836002349854,0.030303850769996643,0.379095254303104,-0.30720674407993126,-0.6746906955884826,-0.5538080848748221,0.5402811154212893,-1.6866936336313807,-1.3379978916205488
1781533821331211008,0.2160930633544922,-0.038560349494218826,-0.4476061463356018,0.09801732748746872,-0.8520396947860718,-0.5132204294204712,0.10311787575483322,-0.03564047813415527,-0.053674161434173584,0.0257730633020401,0.377662820528952,-0.3092445196225188,-0.6752234930401961,-0.5530026151961646,0.5389328554791779,-1.6912353196983252,-1.3390624970790008
1781533821341245184,0.22612714767456055,-0.008824026212096214,-0.42384129762649536,0.0863199234008789,-0.8520542979240417,-0.5124543309211731,0.10674195736646652,-0.0448266863822937,-0.03290998935699463,0.04055117070674896,0.3764145458122462,-0.31079673110025935,-0.675852329341524,-0.5522146628171053,0.5380404837544289,-1.69542306753575,-1.3394073582520096
1781533821351279872,0.2361619472503662,0.030205130577087402,-0.4044654667377472,0.06536537408828735,-0.8519819378852844,-0.5118176937103271,0.11031580716371536,-0.03148674964904785,-0.014930963516235352,0.021886348724365234,0.37524529238468246,-0.31215433869681264,-0.6765482788449534,-0.5513919768700393,0.537299286051534,-1.6995613148007311,-1.3393627291848458
1781533821361314048,0.24619603157043457,0.025540873408317566,-0.3854912519454956,0.0745900347828865,-0.8518924713134766,-0.5111965537071228,0.11383049935102463,-0.030599594116210938,-0.0600772500038147,0.000457763671875,0.37413657181446225,-0.31343106754814476,-0.6772563882450318,-0.5505511615714918,0.5365763992872062,-1.7036302353444877,-1.339158491475533
1781533821371348224,0.25623011589050293,0.08934807777404785,-0.3754327595233917,0.06793319433927536,-0.8518299460411072,-0.5105120539665222,0.11731711030006409,-0.03243213891983032,-0.07019168138504028,-0.00734710693359375,0.37313539665818213,-0.3146263965072427,-0.6779887812116139,-0.5496466770130192,0.5357802058130031,-1.7076589668366535,-1.3386860484614018
1781533821381383168,0.2662651538848877,0.12413748353719711,-0.403988778591156,0.061701931059360504,-0.85169917345047,-0.5098150372505188,0.12123297899961472,-0.00018388032913208008,-0.06686043739318848,-0.03883551061153412,0.3721711229008661,-0.3157083205827245,-0.6789291175241043,-0.5485182895781961,0.5349697734202614,-1.7121889803981152,-1.3374684613439027
1781533821391417088,0.27629899978637695,0.12298060953617096,-0.3881767988204956,0.07760287076234818,-0.8515537977218628,-0.5090889930725098,0.12523819506168365,-0.014077305793762207,-0.08438634872436523,-0.014825582504272461,0.3711945343863225,-0.3168058428576622,-0.6798920149174589,-0.5473532364181335,0.5341260289111436,-1.71681971942629,-1.3361955819444673
1781533821401451008,0.2863330841064453,0.11520763486623764,-0.3633677065372467,0.10194575786590576,-0.8515406847000122,-0.5081532001495361,0.12906919419765472,-0.03436934947967529,-0.07334393262863159,0.024098500609397888,0.3703587705968921,-0.3179190701557685,-0.6807804799196777,-0.5461682906373656,0.5330391354558552,-1.7212227198487533,-1.334942112434762
1781533821411484928,0.29636693000793457,0.05415334179997444,-0.34360384941101074,0.10862097144126892,-0.8516220450401306,-0.507122814655304,0.13253845274448395,-0.020890772342681885,-0.060580432415008545,0.035552382469177246,0.3695887467082503,-0.3190838974041925,-0.6815091264041209,-0.5451008665564959,0.5318431857453985,-1.725188372273552,-1.3341021464097635
1781533821421519872,0.30640196800231934,-0.06678107380867004,-0.34267497062683105,0.10573090612888336,-0.8517021536827087,-0.5062218904495239,0.13543640077114105,-0.00396496057510376,-0.060733675956726074,0.061539292335510254,0.36869947796352864,-0.3203932530842778,-0.6819577429241425,-0.5443735502674827,0.5307981910641801,-1.7284944427413826,-1.3343573838446183
1781533821431554048,0.3164360523223877,-0.11994122713804245,-0.325580894947052,0.11980624496936798,-0.8518127202987671,-0.5053970217704773,0.13780032098293304,-0.0028167366981506348,-0.03923487663269043,0.07516656816005707,0.3676977488311173,-0.32187806820481596,-0.6821251131272354,-0.5439652447572364,0.5298420170385979,-1.731179882392942,-1.3357063806797775
1781533821441588224,0.32647013664245605,-0.13817667961120605,-0.31736505031585693,0.12850147485733032,-0.8520058989524841,-0.5044945478439331,0.13989831507205963,-0.01426619291305542,-0.03729933500289917,0.036294952034950256,0.3667455167763416,-0.32341131646992294,-0.6821688064086303,-0.5436439090680758,0.5287964366522043,-1.7335428522769352,-1.3373767286993277
1781533821451622912,0.3365049362182617,-0.2042960524559021,-0.33149924874305725,0.15975765883922577,-0.8522619605064392,-0.503538966178894,0.14176860451698303,-0.020495116710662842,-0.04840201139450073,0.01419152319431305,0.36573667975652546,-0.32509931289261573,-0.6820518608398011,-0.5434634247046491,0.5276900969967561,-1.7356309829719998,-1.3396674019702461
1781533821461657088,0.3465390205383301,-0.13500139117240906,-0.3451467752456665,0.1894519031047821,-0.8526772260665894,-0.5022683143615723,0.1437646895647049,-0.01077193021774292,-0.046056270599365234,0.0052068233489990234,0.36477845144207516,-0.32695250277735527,-0.6818976488974632,-0.5431891041107444,0.5262199584430106,-1.7378292652803622,-1.342030868294394
1781533821471691008,0.35657310485839844,-0.1162615418434143,-0.38504624366760254,0.1959257870912552,-0.8531127572059631,-0.500800371170044,0.14627978205680847,0.005135953426361084,-0.05243760347366333,-0.048211559653282166,0.363864876939687,-0.3288112537163866,-0.6819259846793105,-0.5426439924239587,0.5245231811990788,-1.7406109043264215,-1.3437469676031701
1781533821481724928,0.3666069507598877,-0.11830657720565796,-0.4241076111793518,0.22747039794921875,-0.8535701632499695,-0.49916577339172363,0.14916956424713135,0.004723727703094482,-0.04545092582702637,-0.04475367069244385,0.3628558539093591,-0.33085258042153715,-0.681998058117498,-0.5419878797723359,0.5226357595097151,-1.7438087090746837,-1.34550235636982
1781533821491760128,0.37664198875427246,-0.131621316075325,-0.4375288784503937,0.24264082312583923,-0.8541014194488525,-0.4973255395889282,0.15224267542362213,-0.015145838260650635,-0.0392497181892395,-0.031820327043533325,0.36181782836968424,-0.33305866540276596,-0.6820507769450442,-0.541263697673197,0.5205133011963914,-1.7471926495310326,-1.347389935800013
1781533821501794048,0.3866760730743408,-0.17816750705242157,-0.494390070438385,0.25583305954933167,-0.8546261787414551,-0.4954220652580261,0.1554693877696991,-0.019992172718048096,-0.0449678897857666,-0.04495003819465637,0.3606557632165765,-0.3354408911383047,-0.682066055235587,-0.5405484052245063,0.5183206383508072,-1.7507436218637062,-1.3496070843279517
1781533821511828224,0.3967101573944092,-0.27921342849731445,-0.5244829654693604,0.2561643719673157,-0.8550935387611389,-0.4935948848724365,0.15867945551872253,-0.018838346004486084,-0.03640389442443848,-0.029559612274169922,0.3592202699248072,-0.3381088323482626,-0.6819253219267825,-0.5400195204920077,0.5162184354531233,-1.754278888106906,-1.352763399339914
1781533821521862912,0.40674495697021484,-0.2228899747133255,-0.5375110507011414,0.25553587079048157,-0.8554983735084534,-0.49182191491127014,0.16196870803833008,-0.02420133352279663,-0.0014031529426574707,-0.019970417022705078,0.3576456137388604,-0.3408931446282311,-0.6817449786381549,-0.5395417851879293,0.5141810178996509,-1.7579083705431435,-1.3562520435017886
1781533821531897088,0.4167790412902832,-0.20617331564426422,-0.5658273696899414,0.24083520472049713,-0.855824887752533,-0.4900192320346832,0.1656651496887207,-0.02770477533340454,0.014997869729995728,-0.0628361701965332,0.3560905237134648,-0.34359837153259004,-0.6817424249264832,-0.5388570958717724,0.5121118223948701,-1.7620051424007832,-1.3591193592720778
1781533821541931264,0.42681312561035156,-0.2860327363014221,-0.6098245978355408,0.2317381054162979,-0.8559899926185608,-0.4884167015552521,0.1694999784231186,-0.03559631109237671,0.004713088274002075,-0.035146355628967285,0.35429807105061245,-0.34641701551520077,-0.6817222598110104,-0.538259121921024,0.5102743765914242,-1.7662837612360494,-1.3623890974522932
1781533821551964928,0.4368469715118408,-0.29766860604286194,-0.6672844290733337,0.2212122231721878,-0.8560264110565186,-0.48693788051605225,0.17352354526519775,-0.027732133865356445,-0.014679580926895142,-0.012589097023010254,0.3522322104928835,-0.34944676315555423,-0.6816514734655951,-0.5377459790093864,0.5085804674566974,-1.7707945341263405,-1.366229652768266
1781533821562000128,0.4468820095062256,-0.37930887937545776,-0.7261284589767456,0.17959368228912354,-0.8557674288749695,-0.4858171343803406,0.1778871715068817,-0.024405300617218018,-0.015205204486846924,-0.0367281436920166,0.34979632268620103,-0.352595016815201,-0.6816306457930841,-0.5373071245403661,0.5072977848775023,-1.7757462636852968,-1.370438395589463
1781533821572034048,0.45691609382629395,-0.4796929955482483,-0.750146210193634,0.16622966527938843,-0.8552811145782471,-0.485093891620636,0.1821487993001938,-0.03903651237487793,0.013765156269073486,-0.01546180248260498,0.34697137614549106,-0.35593956726600395,-0.6814553714886437,-0.5371559176056235,0.506470530831769,-1.780630901246208,-1.3756802260261816
1781533821582067968,0.4669499397277832,-0.5235297083854675,-0.7793971300125122,0.1559400111436844,-0.8546444177627563,-0.4846831262111664,0.18618658185005188,-0.05160564184188843,0.040820151567459106,-0.004194959998130798,0.34386887403980787,-0.3594298812872052,-0.681104580128113,-0.5372718427145843,0.5060008640726675,-1.7852975187766815,-1.3818378658164105
1781533821592102912,0.47698497772216797,-0.5287526845932007,-0.8309034705162048,0.14621442556381226,-0.8538768291473389,-0.4843442440032959,0.19053900241851807,-0.04951977729797363,0.0552518367767334,-0.049624085426330566,0.34059681458972196,-0.3630170695524912,-0.6807996089090357,-0.5373307738679797,0.5056134743548053,-1.7903451816213236,-1.388054358264462
1781533821602137088,0.48701906204223633,-0.5495250821113586,-0.8890682458877563,0.11747864633798599,-0.8528491258621216,-0.48428574204444885,0.19523270428180695,-0.03881353139877319,0.05612406134605408,-0.03947100043296814,0.3370146825030325,-0.366707852826497,-0.6805451507943399,-0.5374056400720328,0.5055466058792437,-1.7958370357774962,-1.394505345574832
1781533821612171264,0.4970531463623047,-0.515137255191803,-0.9441658854484558,0.1052643209695816,-0.8515729904174805,-0.48437315225601196,0.20051495730876923,-0.04320240020751953,0.04519468545913696,-0.048995137214660645,0.33320089971158073,-0.3704623348801309,-0.6804521543828292,-0.5373264669332546,0.5056464977196687,-1.8020481507696486,-1.40072126767096
1781533821622204928,0.507086992263794,-0.5342089533805847,-0.9787556529045105,0.08244449645280838,-0.8500716090202332,-0.484645813703537,0.20614780485630035,-0.05466783046722412,0.04319372773170471,-0.04516753554344177,0.32920516150427764,-0.37423069457056496,-0.680459618621108,-0.5371686583269896,0.5059581977078763,-1.8087098479195456,-1.4068054961957905
1781533821632240128,0.5171220302581787,-0.6048434376716614,-1.0276036262512207,0.06245081126689911,-0.8483375310897827,-0.4851842522621155,0.21194306015968323,-0.045858144760131836,0.0507054328918457,-0.018949836492538452,0.32492369138418753,-0.3781145592947672,-0.6804416999225,-0.5370783384767337,0.5065738552600079,-1.8156181869234371,-1.4132948638462919
1781533821642274048,0.5271561145782471,-0.7275371551513672,-1.088935375213623,0.02033105678856373,-0.8462585806846619,-0.4862687885761261,0.2176901251077652,-0.03240346908569336,0.057481586933135986,0.00032745301723480225,0.32015321721512247,-0.3821849996485274,-0.6802791266396374,-0.5372679237093254,0.5078146075684966,-1.8225758293419179,-1.420825046832843
1781533821652307968,0.5371899604797363,-0.8255502581596375,-1.1208568811416626,-0.014026382938027382,-0.8438367247581482,-0.4879448413848877,0.2232692390680313,-0.03708350658416748,0.06484919786453247,0.024167269468307495,0.31489540276858996,-0.38642232231818674,-0.6799355923716535,-0.5377789314546962,0.5097337335482529,-1.8294572333127075,-1.4294777205233704
1781533821662342912,0.5472249984741211,-0.897148847579956,-1.14460027217865,-0.038903240114450455,-0.8411347270011902,-0.4901471436023712,0.22857823967933655,-0.048071086406707764,0.08238658308982849,0.022672981023788452,0.30926821791781095,-0.39074342590188405,-0.6794179106290186,-0.5385758779068969,0.512258563967095,-1.8361384128409641,-1.4390409834148534
1781533821672377088,0.5572590827941895,-0.9044224619865417,-1.1833833456039429,-0.04488256946206093,-0.8382396697998047,-0.49257537722587585,0.2339303195476532,-0.049424946308135986,0.0873936116695404,0.0011922717094421387,0.3034226076506809,-0.3951355320257671,-0.6788468709708548,-0.539415813818069,0.5150465581481771,-1.8429455065811435,-1.4489268316656063
1781533821682411008,0.5672929286956787,-0.889242947101593,-1.2191847562789917,-0.04525088518857956,-0.8351686596870422,-0.49509984254837036,0.2395191490650177,-0.05028355121612549,0.07656654715538025,-0.027315154671669006,0.2974286226919684,-0.3995771755824817,-0.6783049848360926,-0.5401635235700222,0.517949744072104,-1.8500914725578004,-1.4587771337437612
1781533821692444928,0.5773270130157471,-0.8975797295570374,-1.2633066177368164,-0.03645313158631325,-0.8319669365882874,-0.4975791573524475,0.24545013904571533,-0.039889633655548096,0.07408678531646729,-0.05439487099647522,0.2913140986233536,-0.4041278926416573,-0.677794744662397,-0.5407503235584646,0.5208056665815805,-1.8576816818702948,-1.4685458641901994
1781533821702480128,0.5873620510101318,-0.9590891599655151,-1.3211888074874878,-0.05645719915628433,-0.8285255432128906,-0.5002560019493103,0.25157439708709717,-0.0160486102104187,0.08172261714935303,-0.06051906943321228,0.2849176809881779,-0.4088199163719359,-0.6772395963291835,-0.5413269135563057,0.5238943993294305,-1.8655902125022563,-1.4786635529263552
1781533821712514048,0.5973961353302002,-1.0821266174316406,-1.3741101026535034,-0.09871330857276917,-0.8246967792510986,-0.5034958720207214,0.2576187551021576,0.001286625862121582,0.08020174503326416,-0.04645237326622009,0.27803310335661474,-0.4136575729640415,-0.6765329201417106,-0.5421146705830963,0.527640155331638,-1.8735718473110992,-1.4896907990576196
1781533821722547968,0.6074299812316895,-1.1684231758117676,-1.4302953481674194,-0.14251191914081573,-0.820412814617157,-0.5074543952941895,0.2634640038013458,-0.014533042907714844,0.0782397985458374,-0.026555955410003662,0.2705792313901551,-0.4186258957646801,-0.6756362621542007,-0.5431897006687523,0.5322279451426406,-1.881529303909875,-1.5018126761195443
1781533821732583168,0.6174650192260742,-1.2316391468048096,-1.4614402055740356,-0.20409458875656128,-0.8156694173812866,-0.5120517611503601,0.26923301815986633,-0.03229200839996338,0.07906836271286011,-0.022422075271606445,0.26268659649325343,-0.42359219671480836,-0.6746748498639502,-0.5444072457664569,0.5375717754641666,-1.8896125443827245,-1.5144412853146694
1781533821742617088,0.6274991035461426,-1.2687550783157349,-1.5123753547668457,-0.259894460439682,-0.8104189038276672,-0.5173757672309875,0.2748521566390991,-0.039694130420684814,0.08407187461853027,-0.011500686407089233,0.2543450961250907,-0.42849662250625253,-0.6736592064996014,-0.5457861902280555,0.5437815246257779,-1.897771155023702,-1.5275274438831028
1781533821752651008,0.6375329494476318,-1.2128671407699585,-1.5593074560165405,-0.29168593883514404,-0.8046837449073792,-0.5230887532234192,0.28082406520843506,-0.045688509941101074,0.08725202083587646,-0.037461668252944946,0.24570125559756748,-0.4333372042246642,-0.6727784941489721,-0.5470089829738339,0.5504710696520662,-1.9065683108612457,-1.540285027324977
1781533821762685184,0.6475670337677002,-1.1710057258605957,-1.566724419593811,-0.3110623061656952,-0.7986347079277039,-0.5288978219032288,0.2871399223804474,-0.053751587867736816,0.09950029850006104,-0.04298403859138489,0.23699544737490708,-0.438060365750264,-0.6720662705077637,-0.5479626533604315,0.5573013352390522,-1.9159432710187665,-1.552319532166501
1781533821772720128,0.657602071762085,-1.2557522058486938,-1.5807456970214844,-0.34654945135116577,-0.7923215627670288,-0.5350234508514404,0.2932179272174835,-0.04999423027038574,0.10248249769210815,-0.034886568784713745,0.22813842404015508,-0.44268796627112095,-0.6712945126967123,-0.5489481136158589,0.5645354953341722,-1.9252416616927261,-1.5644439772619791
1781533821782754304,0.6676361560821533,-1.3717079162597656,-1.5948833227157593,-0.38230371475219727,-0.7856445908546448,-0.5417994856834412,0.2986900806427002,-0.04200732707977295,0.08421897888183594,-0.021544724702835083,0.2188560761870824,-0.4473228135407555,-0.6702591559813127,-0.5502335225660177,0.5725765812255889,-1.9341047410523473,-1.5775890088312372
1781533821792787968,0.6776700019836426,-1.417285442352295,-1.5766757726669312,-0.45218586921691895,-0.7785853147506714,-0.54927659034729,0.3034802973270416,-0.03304493427276611,0.07004380226135254,-0.02287113666534424,0.20923318896751053,-0.45181079910143596,-0.6690344896412618,-0.5517983167698762,0.5814982864738418,-1.9424651195502896,-1.591415215186866
1781533821802823168,0.6877050399780273,-1.469732403755188,-1.5761440992355347,-0.5235437154769897,-0.7710427641868591,-0.5574902892112732,0.307730495929718,-0.02905195951461792,0.07583129405975342,-0.06461212038993835,0.19931156155710733,-0.45602312365549885,-0.6677635506436478,-0.5535429618805069,0.5913596123615464,-1.9505347981659025,-1.605414617794578
1781533821812857088,0.6977391242980957,-1.5346035957336426,-1.5776232481002808,-0.593011736869812,-0.7630046010017395,-0.566464900970459,0.3113541603088379,-0.03255802392959595,0.08093029260635376,-0.05885174870491028,0.18901825907412095,-0.46001441108450297,-0.6663811331734972,-0.5555132779494172,0.6022097625328333,-1.9582343936576254,-1.6198600753755674
1781533821822891008,0.707772970199585,-1.3097214698791504,-1.576141357421875,-0.621112048625946,-0.7545411586761475,-0.5756258964538574,0.31515440344810486,-0.050695598125457764,0.0557132363319397,-0.07473698258399963,0.1786901845868345,-0.4637333122660764,-0.6652282417682729,-0.5572185923800702,0.6133693774677348,-1.966447909901125,-1.6333067268943386
1781533821832925184,0.7178070545196533,-1.178834080696106,-1.5276561975479126,-0.6522324681282043,-0.7458869218826294,-0.5843501687049866,0.3196680545806885,-0.0652855634689331,0.03601032495498657,-0.13846993446350098,0.1688658294756218,-0.4670064718116515,-0.6646344771440488,-0.5582564942323797,0.624079034486239,-1.975690665225983,-1.644171571352839
1781533821842960128,0.7278420925140381,-1.0189074277877808,-1.5367915630340576,-0.6510161757469177,-0.7370776534080505,-0.5927789211273193,0.3245449960231781,-0.06428337097167969,0.06038457155227661,-0.11307349801063538,0.15930300489090282,-0.4700662870823201,-0.6643118146941239,-0.5588827944495931,0.6345050142709712,-1.985565549070589,-1.6536169132367156
1781533821852994048,0.7378759384155273,-0.9120316505432129,-1.4810411930084229,-0.6817488074302673,-0.7281434535980225,-0.6008199453353882,0.32988235354423523,-0.038015544414520264,0.08527129888534546,-0.1268337070941925,0.1501399754338494,-0.47282511167526214,-0.6643625420904352,-0.5590319956668213,0.644526420946444,-1.9961802540161964,-1.6611897431244342
1781533821863027968,0.7479100227355957,-0.8585593700408936,-1.4677714109420776,-0.7111780643463135,-0.7190098762512207,-0.6088036298751831,0.3352355360984802,-0.017180919647216797,0.1073235273361206,-0.1282501220703125,0.1411861743969621,-0.4752827747713118,-0.6646232407386523,-0.5589710893183576,0.6545516767150791,-2.0070780533213997,-1.6676105066619993
1781533821873063168,0.7579450607299805,-0.9144484400749207,-1.4539344310760498,-0.7690562605857849,-0.7095215320587158,-0.617071807384491,0.34029555320739746,0.0066408514976501465,0.10388833284378052,-0.11261922121047974,0.1321337267776287,-0.47753307250791405,-0.6649134864331531,-0.5589210411630708,0.6650161319894707,-2.018001489479028,-1.6737362655888082
1781533821883097088,0.7679791450500488,-0.9432539939880371,-1.4035816192626953,-0.8062132000923157,-0.6997021436691284,-0.6258677840232849,0.34453800320625305,0.0006207823753356934,0.09666252136230469,-0.08672550320625305,0.12291199011963226,-0.47950316867061704,-0.6650907564347741,-0.5591275681280509,0.6762436725353043,-2.028350847423996,-1.6801185438184336
1781533821893131008,0.7780129909515381,-0.8839983940124512,-1.3971525430679321,-0.8472879528999329,-0.6896217465400696,-0.6347939968109131,0.34850847721099854,-4.494190216064453e-05,0.09193211793899536,-0.09966817498207092,0.11372067209183126,-0.4812255511495058,-0.6653391725230493,-0.5592971209382552,0.687741862274863,-2.038724162779787,-1.6859526385515258
1781533821903165184,0.7880470752716064,-0.9072094559669495,-1.3517060279846191,-0.9121087789535522,-0.6791669726371765,-0.6439173817634583,0.3522820770740509,0.0029432177543640137,0.09186965227127075,-0.10539495944976807,0.10454602434117648,-0.48262898664507,-0.6657404191625923,-0.5594006751839837,0.6996074468282101,-2.0492896526881634,-1.6909654843635085
1781533821913200128,0.7980821132659912,-0.7289451956748962,-1.3879268169403076,-0.9281409978866577,-0.6682913899421692,-0.6531685590744019,0.356030136346817,-0.002942681312561035,0.06712430715560913,-0.08392015099525452,0.09529427209998088,-0.48384936228017134,-0.6662618606377975,-0.5593781677667715,0.7117613925665445,-2.0602969337462165,-1.695294554484157
1781533821923234048,0.8081159591674805,-0.5419971346855164,-1.386278748512268,-0.9592152833938599,-0.6570337414741516,-0.6617032289505005,0.3611859679222107,0.010045886039733887,0.027578532695770264,-0.1379498541355133,0.08646707450919584,-0.48487140518220945,-0.6674523941726122,-0.5585072965487442,0.7230881869062599,-2.073426136042141,-1.6965820931534048
1781533821933267968,0.8181500434875488,-0.40975093841552734,-1.3387393951416016,-0.9792571663856506,-0.645615816116333,-0.6697282195091248,0.3669387698173523,0.005845427513122559,0.0861559510231018,-0.1882430911064148,0.07806588145430293,-0.4856302316812546,-0.6690535568264625,-0.5571680611372833,0.7338427752598213,-2.0876221251963485,-1.695744369047703
1781533821943303168,0.8281850814819336,-0.38615506887435913,-1.3776419162750244,-0.9860530495643616,-0.6339282989501953,-0.6775326728820801,0.3729400932788849,0.023164808750152588,0.054379045963287354,-0.1420746147632599,0.06978881677255876,-0.4862504680634439,-0.6708431449602404,-0.5555712719562333,0.7444027645502111,-2.102568556219733,-1.6937418783353613
1781533821953336832,0.8382189273834229,-0.41475555300712585,-1.3825067281723022,-1.024771809577942,-0.6218622922897339,-0.6853060126304626,0.37900257110595703,0.04814714193344116,0.040851056575775146,-0.12698841094970703,0.06138369439051959,-0.48686373107106157,-0.6726551844002501,-0.5538327933404947,0.7550238126066109,-2.118145466924248,-1.6912846677403612
1781533821963371008,0.8482530117034912,-0.55203777551651,-1.3745226860046387,-1.0656412839889526,-0.6093150973320007,-0.6936551332473755,0.3841589093208313,0.029358983039855957,0.05074125528335571,-0.09183090925216675,0.0526159563695998,-0.4872876798809532,-0.6742626892195056,-0.5524058591168414,0.7665511061239125,-2.13332418956902,-1.6893609487276509
1781533821973405184,0.8582870960235596,-0.6493262648582458,-1.3541473150253296,-1.0634047985076904,-0.5965805649757385,-0.702410101890564,0.38821664452552795,0.003944337368011475,0.05325525999069214,-0.0460534393787384,0.043584171540395865,-0.4876130132414826,-0.6755308070795268,-0.5513549401813541,0.7787778862723796,-2.147688982012869,-1.6884044860960545
1781533821983440128,0.8683221340179443,-0.59896320104599,-1.2993762493133545,-1.1002415418624878,-0.5837370753288269,-0.7112905383110046,0.39155685901641846,-0.0020478367805480957,0.05726832151412964,-0.06294357776641846,0.03453956458234417,-0.48774995270660376,-0.6766671348884434,-0.5504803341932977,0.7913325622163603,-2.161638489921249,-1.687517930277102
1781533821993474048,0.8783559799194336,-0.5073182582855225,-1.2877848148345947,-1.1121776103973389,-0.5706782341003418,-0.7198747396469116,0.3951030373573303,0.006743967533111572,0.040873944759368896,-0.09362000226974487,0.02574973885265863,-0.48762942652293945,-0.6780627314557935,-0.5493499088738939,0.8036218372860994,-2.1763624499676055,-1.6850559049258336
1781533822003507968,0.888390064239502,-0.4370715022087097,-1.2949399948120117,-1.1162056922912598,-0.5574687123298645,-0.7280659675598145,0.39893409609794617,0.022480368614196777,0.05097252130508423,-0.10869672894477844,0.01713140567066363,-0.4874461492760745,-0.6796052576176004,-0.5479410400951071,0.815496362041103,-2.191926832344185,-1.6814310658164373
1781533822013543168,0.8984251022338867,-0.35443228483200073,-1.2807484865188599,-1.110066533088684,-0.5441635847091675,-0.73585045337677,0.40300148725509644,0.01695716381072998,0.03290855884552002,-0.10055708885192871,0.008709620998203004,-0.48719966117428476,-0.6812761843597179,-0.546281446273787,0.8269217321366071,-2.2082470582261093,-1.6766937294543278
1781533822023577088,0.908458948135376,-0.28490567207336426,-1.2810108661651611,-1.1415530443191528,-0.5305723547935486,-0.7431082129478455,0.40777814388275146,-0.0022797584533691406,0.0033469200134277344,-0.12333911657333374,0.0005051790878023401,-0.48688028220513346,-0.6832544628677012,-0.5441604623163939,0.8377033146449142,-2.2260721455481556,-1.6700760342130891
1781533822033611008,0.9184930324554443,-0.3133231997489929,-1.2357890605926514,-1.173512578010559,-0.5167466402053833,-0.7504757046699524,0.4120185375213623,-0.0111311674118042,0.04593163728713989,-0.1247260570526123,-0.007713460809635672,-0.4863165941381496,-0.6852046731752711,-0.542154300561623,0.8487815461288767,-2.2439081959730616,-1.6630293278120014
1781533822043645184,0.9285271167755127,-0.2643902897834778,-1.1979353427886963,-1.1878433227539062,-0.5027317404747009,-0.7577102184295654,0.41609644889831543,-0.022796273231506348,0.09276258945465088,-0.09058064222335815,-0.01582188520583273,-0.4855437483879952,-0.6872375801349355,-0.5400939972425051,0.8597971775143598,-2.262183537072645,-1.655035128875254
1781533822053680128,0.9385621547698975,-0.16119332611560822,-1.1338027715682983,-1.222590684890747,-0.48865535855293274,-0.7646085619926453,0.420226514339447,-0.02342972159385681,0.13205528259277344,-0.08894279599189758,-0.02362913210139183,-0.48451854770822955,-0.6894599552897221,-0.537892762744934,0.8704337301593217,-2.2810472139083924,-1.6456124877445533
1781533822063714048,0.9485960006713867,-0.10338089615106583,-1.0931434631347656,-1.284696102142334,-0.4742923080921173,-0.7711794972419739,0.4246513843536377,-0.011639028787612915,0.10414165258407593,-0.10450679063796997,-0.031139043506784952,-0.48313792090652463,-0.6920284923935355,-0.535448041382657,0.8806918495611621,-2.30102911992311,-1.6340691299830306
1781533822073748224,0.9586300849914551,-0.0860447809100151,-1.126806378364563,-1.2967636585235596,-0.4594902992248535,-0.7776868939399719,0.4290362000465393,0.0007652640342712402,0.06130188703536987,-0.08444684743881226,-0.0387134390483875,-0.48158847836315816,-0.6946874435800448,-0.5329008160612774,0.8909779408692136,-2.3219330753798477,-1.6214365695634223
1781533822083783168,0.9686651229858398,-0.018261738121509552,-1.1258792877197266,-1.3082698583602905,-0.444410115480423,-0.783775806427002,0.43381431698799133,-0.0036488771438598633,0.003777146339416504,-0.05582362413406372,-0.04623257191396143,-0.4800485261468545,-0.6974672523973388,-0.5300521805144179,0.9007225219244531,-2.3441300332203925,-1.6075230985354187
1781533822093817088,0.9786989688873291,-0.013174033723771572,-1.1092514991760254,-1.324739933013916,-0.4291139543056488,-0.7896299362182617,0.4385719895362854,-0.026650726795196533,-0.0045441389083862305,-0.08266088366508484,-0.05370306135511473,-0.4784046754653516,-0.700296341637457,-0.5270956780628362,0.9102056525280824,-2.3670943621815987,-1.5926398865977542
1781533822103851008,0.9887330532073975,-0.10393775999546051,-1.1075087785720825,-1.346024513244629,-0.4135966897010803,-0.7955113053321838,0.44283121824264526,-0.012993276119232178,0.05709272623062134,-0.07613205909729004,-0.06125235995990842,-0.47661111154017427,-0.7030344682971901,-0.5242447202109092,0.9198509719283301,-2.390316692658855,-1.5773669340734084
1781533822113885184,0.9987671375274658,-0.1534818708896637,-1.1021627187728882,-1.3921996355056763,-0.3977183997631073,-0.8016571998596191,0.44627976417541504,0.012464553117752075,0.11145651340484619,-0.015020668506622314,-0.06905081297523315,-0.47463456443688046,-0.7055933017737432,-0.5216244406763028,0.9300623727038244,-2.4136684034165214,-1.5619971367161594
1781533822123919872,1.0088019371032715,-0.1773110330104828,-1.0690535306930542,-1.4317315816879272,-0.381434828042984,-0.8079256415367126,0.4491805136203766,0.010768413543701172,0.10043680667877197,0.0009688138961791992,-0.07698329007007154,-0.4723988417167508,-0.7081169378025266,-0.519117655315485,0.9406234435906766,-2.437575228260684,-1.545827188907624
1781533822133954048,1.0188360214233398,-0.2547086179256439,-1.0464476346969604,-1.484547734260559,-0.3647773563861847,-0.8143627047538757,0.4513877034187317,-0.006682604551315308,0.06086844205856323,-0.014238715171813965,-0.08505111563524159,-0.46986906791142885,-0.7105750589734795,-0.5167905225948143,0.951630209823578,-2.461917489740477,-1.5289111297102813
1781533822143988224,1.0288701057434082,-0.24712499976158142,-0.9995571374893188,-1.4926708936691284,-0.3478839099407196,-0.8208650350570679,0.452943354845047,-0.027863800525665283,0.04152226448059082,0.003309786319732666,-0.09317795381509131,-0.46707903189407346,-0.7129578203989381,-0.5146321854974835,0.9629239703768503,-2.486638212525309,-1.5112611628731711
1781533822154023168,1.038905143737793,-0.23016732931137085,-0.9591679573059082,-1.5000678300857544,-0.331083744764328,-0.8270265460014343,0.4543245732784271,-0.022920191287994385,0.04867565631866455,-0.018899619579315186,-0.10108501392215681,-0.46413764038174826,-0.7153590231784559,-0.5124642511767586,0.9737976541126765,-2.5118384230702957,-1.4926017989888558
1781533822164057088,1.0489389896392822,-0.24966886639595032,-0.9439620971679688,-1.514841914176941,-0.3141849935054779,-0.8329838514328003,0.4554400146007538,-0.006661534309387207,0.06680965423583984,-0.016581952571868896,-0.10891583848778436,-0.46102767042024795,-0.717755870138769,-0.510310982368286,0.9844788216113365,-2.5377117253560453,-1.472912559047651
1781533822174091008,1.0589730739593506,-0.3084773123264313,-0.9314335584640503,-1.5135910511016846,-0.2971888780593872,-0.8389062881469727,0.45597705245018005,0.007424473762512207,0.06655216217041016,0.02856588363647461,-0.11681988615394505,-0.45781298167342405,-0.7199970817585383,-0.5082957966619763,0.9952706429755126,-2.563979209247725,-1.4527783868674626
1781533822184125184,1.069007158279419,-0.41869863867759705,-0.9102982878684998,-1.5310810804367065,-0.28014013171195984,-0.8449425101280212,0.45562466979026794,0.008136957883834839,0.06961292028427124,0.03137493133544922,-0.12483150957871728,-0.4544358680413646,-0.7220113434892503,-0.5065617476705346,1.0064576279549333,-2.590326661431564,-1.4324372485979107
1781533822194159872,1.0790419578552246,-0.5882136225700378,-0.9182113409042358,-1.5400229692459106,-0.26289916038513184,-0.8514412045478821,0.4537971615791321,0.007924795150756836,0.09761124849319458,0.045912861824035645,-0.13319367398907384,-0.45085460022953844,-0.7236219372049288,-0.5053324122041774,1.0187272145896349,-2.6165089510485355,-1.4123719317924948
1781533822204194048,1.089076042175293,-0.6087870597839355,-0.9071447253227234,-1.5517417192459106,-0.2454976886510849,-0.8581592440605164,0.4508805274963379,0.009581595659255981,0.11639916896820068,0.08839550614356995,-0.14181011793995119,-0.4471379130935873,-0.7249192737570281,-0.5044298933070408,1.0316733569691887,-2.642993471142628,-1.392131507466943
1781533822214228224,1.0991101264953613,-0.5314694046974182,-0.8369291424751282,-1.5745034217834473,-0.2280624657869339,-0.8644213676452637,0.4480666518211365,-0.0056717246770858765,0.08747416734695435,0.05886101722717285,-0.15020227407857611,-0.4432479321833851,-0.726336422361906,-0.5033945966537416,1.0439983130979387,-2.670777135652672,-1.3700542118842864
1781533822224262912,1.109144926071167,-0.5014816522598267,-0.7885874509811401,-1.5974547863006592,-0.21061010658740997,-0.8702466487884521,0.44532516598701477,-0.01848539710044861,0.0552593469619751,-0.0038730502128601074,-0.15831378298655782,-0.43909489537505003,-0.727913629655343,-0.5022691354858799,1.0557027870458795,-2.6998300568399896,-1.3459277097542819
1781533822234297088,1.1191790103912354,-0.38004177808761597,-0.7919808626174927,-1.5920965671539307,-0.19314412772655487,-0.8754362463951111,0.44306549429893494,0.004057183861732483,0.03572970628738403,-0.004085242748260498,-0.16616896486828447,-0.4348937713568608,-0.7296575603316453,-0.5008545122315594,1.0663376835149476,-2.7305034141549145,-1.31984462526212
1781533822244331008,1.1292130947113037,-0.3007251024246216,-0.8015902042388916,-1.5806635618209839,-0.1756414920091629,-0.8798561692237854,0.4415915906429291,0.021710842847824097,0.031925320625305176,-0.03146591782569885,-0.17379496430759403,-0.4307947666424304,-0.7315816167990805,-0.4989985050583931,1.0755595073025976,-2.7630304975638595,-1.291896449246051
1781533822254364928,1.139246940612793,-0.3746805787086487,-0.8151880502700806,-1.5742839574813843,-0.1581236720085144,-0.8839581608772278,0.4400170147418976,0.027371108531951904,0.04033023118972778,-0.005156755447387695,-0.18140800773038532,-0.42672054360595213,-0.7334289889305646,-0.4970740910833367,1.0842610404794,-2.7966054570156,-1.262999156889689
1781533822264400128,1.1492819786071777,-0.4005987048149109,-0.8058894872665405,-1.5654969215393066,-0.1405823677778244,-0.8880393505096436,0.4377470910549164,0.024722397327423096,0.04270249605178833,0.05923160910606384,-0.18915068525534837,-0.42259894877809767,-0.7350399122015049,-0.4953265620222431,1.0930630022960415,-2.8308471164969777,-1.2335704339629805
1781533822274434048,1.159316062927246,-0.46506932377815247,-0.7501223683357239,-1.5798039436340332,-0.12317252904176712,-0.8919695019721985,0.434993714094162,0.01314137876033783,0.03437960147857666,0.06071871519088745,-0.19679992953177658,-0.4183206901234807,-0.7365491544369557,-0.49373385755231325,1.1016829457280568,-2.865656705280961,-1.2032045126283253
1781533822284468224,1.1693501472473145,-0.5741515755653381,-0.7226807475090027,-1.5881929397583008,-0.10573114454746246,-0.8960825800895691,0.43111082911491394,-0.00011903047561645508,0.05675780773162842,0.05184498429298401,-0.20455194485815306,-0.41374166091691444,-0.7378165458806794,-0.4925474011685512,1.1108640639332692,-2.9010869064350424,-1.1718429534880805
1781533822294502912,1.1793849468231201,-0.4804152548313141,-0.6839525103569031,-1.5619492530822754,-0.0885026603937149,-0.8999621868133545,0.42688995599746704,0.013948224484920502,0.05329787731170654,0.07898455858230591,-0.21217191601171467,-0.40907111337404056,-0.7389897159754313,-0.49146514543309755,1.119682758403837,-2.937169011114947,-1.1395255424896449
1781533822304537088,1.1894190311431885,-0.36165904998779297,-0.6640230417251587,-1.5803900957107544,-0.07142125070095062,-0.9029844999313354,0.4236961007118225,0.022226892411708832,0.018096625804901123,0.04676288366317749,-0.2193892087354108,-0.4044664061005174,-0.7404424217873908,-0.4899188111375388,1.126665510994824,-2.974595423755683,-1.105542135869528
1781533822314571264,1.1994531154632568,-0.26578471064567566,-0.6388271450996399,-1.592237114906311,-0.05425745248794556,-0.9053280353546143,0.42123284935951233,0.018506113439798355,0.013085663318634033,0.02586480975151062,-0.22634289919105077,-0.39980279576991795,-0.7421415986400774,-0.48800861186421146,1.1321514446892036,-3.013491673390748,-1.0697431747063728
1781533822324604928,1.209486961364746,-0.20968282222747803,-0.61076420545578,-1.592918872833252,-0.03713417425751686,-0.9070419073104858,0.4193999767303467,0.01912880316376686,0.045698344707489014,-0.015087783336639404,-0.23302972680544765,-0.3951210052686725,-0.7440291554429518,-0.4857954785431728,1.1362042717050518,-3.053281755037908,-1.032755223325603
1781533822334641152,1.2195231914520264,-0.16805681586265564,-0.5840644240379333,-1.548521637916565,-0.02032511681318283,-0.90827876329422,0.4178719222545624,0.03253213316202164,0.09272688627243042,-0.01162189245223999,-0.23944233115536973,-0.39047528480138183,-0.7459658248219281,-0.48345788172662435,1.139151260460807,-3.092991373371255,-0.995587807430261
1781533822344675328,1.2295572757720947,-0.2739616930484772,-0.5939198732376099,-1.558316707611084,-0.0037570397835224867,-0.9093511700630188,0.4160122573375702,0.061740439385175705,0.11482608318328857,-0.0012784302234649658,-0.24579768540133384,-0.3858376026019522,-0.747753618319113,-0.4812248139032561,1.1417218188696372,-3.1325618196732474,-0.9585235391463361
1781533822354709248,1.239591121673584,-0.22263669967651367,-0.6035397052764893,-1.5467711687088013,0.012965126894414425,-0.9104047417640686,0.413515567779541,0.0755816325545311,0.0930982232093811,0.07659673690795898,-0.25233182218875216,-0.3811048061836903,-0.7493443204040603,-0.4791355331326464,1.144261263455221,3.1102495028899066,-0.9207976854481685
1781533822364744192,1.2496261596679688,-0.16455289721488953,-0.5333846807479858,-1.5419827699661255,0.029435569420456886,-0.9108429551124573,0.4117017686367035,0.05831773206591606,0.009796321392059326,0.09926921129226685,-0.25853645744323206,-0.37642855581806034,-0.7511008119080214,-0.4767681832894916,1.1453217432934075,3.0702168009640745,-0.8831352706765934
1781533822374778368,1.259660243988037,-0.19417816400527954,-0.47519490122795105,-1.5485451221466064,0.04563358053565025,-0.9110009074211121,0.40987175703048706,0.016545984894037247,0.011205434799194336,0.03801950812339783,-0.2644568153383869,-0.3715606275558397,-0.7529133926987859,-0.4744751601867985,1.1457045454286272,3.0307130554157298,-0.8453034257104872
1781533822384812032,1.2696940898895264,-0.16035522520542145,-0.43763965368270874,-1.529521107673645,0.06158565729856491,-0.9109367728233337,0.4079230725765228,0.018828153610229492,0.07548761367797852,0.0430656373500824,-0.2701853935627537,-0.36656864072082423,-0.7547111808838544,-0.4722692815391339,1.145549174864589,2.9917505623836584,-0.8075587807949491
1781533822394847232,1.2797291278839111,-0.033554140478372574,-0.3862294852733612,-1.524610996246338,0.07718163728713989,-0.910254955291748,0.40679073333740234,0.04023474454879761,0.1071087121963501,0.02533811330795288,-0.2755145925863806,-0.3616429330747087,-0.7567098198574271,-0.4697832095692411,1.1438993867913454,2.9540883807981757,-0.77073969940829
1781533822404881152,1.2897632122039795,-0.008603782393038273,-0.36445775628089905,-1.5589699745178223,0.09277878701686859,-0.9090079069137573,0.40632131695747375,0.056482695043087006,0.08513998985290527,0.003987610340118408,-0.2805857392492668,-0.3566317976662314,-0.7589297832069375,-0.4670236377650671,1.1408974239912286,2.9171028805975068,-0.7341915703984688
1781533822414915072,1.2997970581054688,0.03956427797675133,-0.346346914768219,-1.554031491279602,0.1084512323141098,-0.9073851704597473,0.40606704354286194,0.0777975469827652,0.056616127490997314,0.0554349422454834,-0.2855725155760755,-0.35153633993883177,-0.7612198964297577,-0.4641280134167552,1.1370203773672127,2.8806070635066225,-0.6979604164311625
1781533822424949248,1.309831142425537,-0.012988677248358727,-0.3015870153903961,-1.5606603622436523,0.12391875684261322,-0.9054654240608215,0.40592703223228455,0.07925201952457428,0.03424948453903198,0.05763500928878784,-0.2903791427615177,-0.3463806797553994,-0.7635338535221113,-0.46121200088477,1.1324750025531711,2.8453048572229855,-0.6626119884504617
1781533822434984192,1.3198661804199219,-0.12034469842910767,-0.25982892513275146,-1.5559992790222168,0.13924983143806458,-0.9037188291549683,0.40484803915023804,0.06622503697872162,0.04831099510192871,0.09383970499038696,-0.29519696905584714,-0.34091578909586123,-0.7656372790011805,-0.4587317347441743,1.1283777474542336,2.8103125470466717,-0.6270394535187026
1781533822445018368,1.3299002647399902,0.0184004046022892,-0.21328100562095642,-1.4908617734909058,0.15399648249149323,-0.9016971588134766,0.4040141999721527,0.06942273676395416,0.04625880718231201,0.12973827123641968,-0.29969498535363687,-0.3355301296055158,-0.767741254016309,-0.45626294688593066,1.1236788744662585,2.777427165885374,-0.5932556100130398
1781533822455052032,1.3399341106414795,0.04549753665924072,-0.15885743498802185,-1.4800653457641602,0.16814716160297394,-0.8991212844848633,0.40411290526390076,0.06683817505836487,0.024548649787902832,0.06887906789779663,-0.3037198988584794,-0.3302970887207565,-0.7700391483111018,-0.45353906739925104,1.1177577495677051,2.7472933853511945,-0.5618503028246042
1781533822465087232,1.3499691486358643,0.05052212253212929,-0.13483412563800812,-1.4520307779312134,0.18195143342018127,-0.8963624238967896,0.4042624533176422,0.06711778044700623,0.02259838581085205,0.06283950805664062,-0.30753686525417767,-0.3250203016295698,-0.7723296113992493,-0.4508767827593249,1.1114949476757279,2.7186701530544313,-0.5315930930251362
1781533822475121152,1.3600032329559326,0.04751062020659447,-0.09626676887273788,-1.428385853767395,0.1953233778476715,-0.893439769744873,0.4044922888278961,0.0719342976808548,0.023017525672912598,0.058917105197906494,-0.3111500383888563,-0.319790431617092,-0.7745839032508983,-0.4482626955321886,1.1049455777543074,2.6917303065248963,-0.5028062111284215
1781533822485155072,1.3700370788574219,0.0376068577170372,-0.08348066359758377,-1.431515097618103,0.20848150551319122,-0.8903636336326599,0.4047074317932129,0.06100398302078247,0.04028123617172241,0.01124715805053711,-0.314636199317715,-0.31450077550490574,-0.7768159183082844,-0.4457021002698872,1.0981432945499034,2.6659055100864917,-0.47486917181495697
1781533822495189248,1.3800711631774902,-0.015858765691518784,-0.08100472390651703,-1.409543752670288,0.2214951515197754,-0.8872561454772949,0.4046187400817871,0.062486156821250916,0.0517612099647522,0.0363297164440155,-0.3181068855026086,-0.30914238604355576,-0.7789353940379486,-0.4432816277604892,1.091362314393466,2.6407347620507875,-0.4474553395205735
1781533822505224192,1.390106201171875,0.09266956895589828,-0.07073703408241272,-1.3536916971206665,0.2341061383485794,-0.8839710354804993,0.4047096371650696,0.06798742711544037,0.046782076358795166,0.08454820513725281,-0.32143594410001564,-0.30395384657115254,-0.7810037651071776,-0.4408222350569827,1.0842886105136715,2.6171660593051547,-0.42173619537281276
1781533822515258368,1.4001402854919434,0.06686940044164658,-0.04475710541009903,-1.3323358297348022,0.2462158203125,-0.8803879618644714,0.40533342957496643,0.0740509182214737,0.034181177616119385,0.06393545866012573,-0.32448964314056733,-0.2989559661958677,-0.7831296505305824,-0.4382235689905315,1.0766796447004714,2.595720378350376,-0.3980805298162633
1781533822525292032,1.4101741313934326,0.20456282794475555,-0.008336910977959633,-1.2717171907424927,0.25783485174179077,-0.8765632510185242,0.4063968360424042,0.08464869856834412,0.02068239450454712,0.09723478555679321,-0.327266754384825,-0.29408812749893465,-0.7853092351465104,-0.4355435332143767,1.0686743393177935,2.5762330481562548,-0.37620667321328977
1781533822535327232,1.4202091693878174,0.19332748651504517,0.03671525418758392,-1.2712501287460327,0.26887401938438416,-0.8723427653312683,0.4083190858364105,0.08949384093284607,-0.005785107612609863,0.054144203662872314,-0.3296476170516709,-0.2894153831620091,-0.7876536517200217,-0.43263469259360215,1.0599740048745492,2.5592722048640346,-0.3566346632225041
1781533822545361408,1.4302432537078857,0.14947479963302612,0.023711970075964928,-1.260716438293457,0.2798263132572174,-0.8681751489639282,0.4098406732082367,0.07263645529747009,0.013804912567138672,0.03448003530502319,-0.3320296754276126,-0.2845932472380908,-0.7898905095437901,-0.4299256228475332,1.0515131776281368,2.5425252716772517,-0.3370160872283522
1781533822555395072,1.440277099609375,0.1754523366689682,0.03454091399908066,-1.2349432706832886,0.2905365228652954,-0.8639428615570068,0.41132867336273193,0.06720578670501709,0.033574819564819336,0.027010560035705566,-0.3343716046595808,-0.27986766106301386,-0.7920469896393685,-0.4272368148139661,1.0430473759090058,2.52662657546364,-0.31835290332589383
1781533822565429248,1.4503111839294434,0.12934423983097076,0.014382384717464447,-1.2261250019073486,0.30108463764190674,-0.8596546649932861,0.4127250611782074,0.055574268102645874,0.04709362983703613,0.024927496910095215,-0.33669431222360746,-0.27517618980691083,-0.7941288232605009,-0.4245873798525797,1.0345933276635884,2.5113384340707126,-0.3003366850315577
1781533822575464192,1.4603462219238281,0.10002415627241135,0.013825250789523125,-1.2156014442443848,0.31152328848838806,-0.8553913235664368,0.4138343632221222,0.05645763874053955,0.04806405305862427,0.041411638259887695,-0.33905820810729537,-0.27048748681801554,-0.7960864898901716,-0.422045434312301,1.0263058811379984,2.4963192362107325,-0.2826518258613898
1781533822585498112,1.4703800678253174,0.035091500729322433,-0.001164750661700964,-1.2103230953216553,0.3218774199485779,-0.851289689540863,0.41436782479286194,0.05902773141860962,0.04872328042984009,0.059860050678253174,-0.3415098540943512,-0.26572469290062506,-0.797856064422943,-0.4197464500240821,1.0184384162144768,2.481164275711767,-0.26480704996094295
1781533822595532288,1.4804141521453857,0.056939806789159775,0.01581210270524025,-1.2091119289398193,0.33215442299842834,-0.8471323847770691,0.41477668285369873,0.05848577618598938,0.05010497570037842,0.050997763872146606,-0.3439715270278152,-0.26095931336030026,-0.7995552354659198,-0.41748663554043725,1.0105653512341288,2.4663622499663584,-0.2473395965449664
1781533822605567232,1.4904491901397705,0.02573048695921898,0.0402856208384037,-1.2479642629623413,0.34242182970046997,-0.8427901268005371,0.4152740240097046,0.06301948428153992,0.05897653102874756,0.004434406757354736,-0.3463440122869999,-0.25604182158403327,-0.801298691323279,-0.4152215754419288,1.0024461261821964,2.452049471011442,-0.2300109812501085
1781533822615601408,1.5004832744598389,0.08767188340425491,0.04841918125748634,-1.2378042936325073,0.3527492582798004,-0.8382404446601868,0.41583728790283203,0.0702548623085022,0.047255516052246094,0.031245172023773193,-0.3487006622328707,-0.2510323456053633,-0.8030575327660064,-0.4129032475059575,0.9940483618619267,2.4380940722300566,-0.21291514606612366
1781533822625635072,1.5105171203613281,0.037377290427684784,0.06589271128177643,-1.260785698890686,0.3629550337791443,-0.8334444165229797,0.4166940748691559,0.06818199157714844,-0.0016232728958129883,0.012001603841781616,-0.35093901828345353,-0.24601496047291113,-0.8048749407277042,-0.4104811251573662,0.9853118132964042,2.4250128235657415,-0.19654756161063897
1781533822635670272,1.520552158355713,-0.05318509787321091,0.029954154044389725,-1.2813634872436523,0.37338998913764954,-0.8288049697875977,0.41672778129577637,0.05030074715614319,-0.007330775260925293,-0.009562313556671143,-0.35337937147125387,-0.24071871095369005,-0.806485211450705,-0.40836144360436943,0.9769685729977364,2.4109893742638677,-0.1790652434260322
1781533822645704192,1.5305862426757812,0.008717949502170086,0.008423561230301857,-1.2572780847549438,0.3838501572608948,-0.8241105675697327,0.4165340065956116,0.05259692668914795,0.004896819591522217,-0.017364084720611572,-0.3559456963680314,-0.23549130030103907,-0.8079671071722551,-0.4062457203181165,0.9686301933736756,2.3970069988090437,-0.16195523985955626
1781533822655738112,1.5406200885772705,-0.051124077290296555,0.032784558832645416,-1.2792222499847412,0.3942009508609772,-0.8191956877708435,0.41656261682510376,0.05175250768661499,0.0028045177459716797,-0.04560616612434387,-0.35844168285446226,-0.23030016884295737,-0.8094709022900842,-0.4040276842076784,0.9600071489312191,2.3837685145839815,-0.14558748659198617
1781533822665772288,1.5506541728973389,-0.14653581380844116,0.020442141219973564,-1.2819032669067383,0.4046071171760559,-0.8144941926002502,0.4158032238483429,0.04700726270675659,-0.002095162868499756,-0.03680539131164551,-0.36104382978457894,-0.22482959859205545,-0.8107732509350879,-0.40217625368107773,0.9518568083082365,2.3698406162627506,-0.12818382540897472
1781533822675807232,1.5606892108917236,-0.18285174667835236,0.018639979884028435,-1.2496145963668823,0.41485440731048584,-0.8099721074104309,0.4145367443561554,0.052537500858306885,-0.02004486322402954,-0.008591949939727783,-0.36370590519281976,-0.21934250542686534,-0.8118849916784981,-0.4005615217211111,0.9441045482426577,2.3558115016531853,-0.1106983997729321
1781533822685841152,1.570723056793213,-0.22245854139328003,0.03538074344396591,-1.2315926551818848,0.42480602860450745,-0.8055976033210754,0.4129799008369446,0.051619142293930054,-0.02272576093673706,0.014586567878723145,-0.3663114558580528,-0.21385211486216235,-0.8128697466720081,-0.39915659650767454,0.9366834514967922,2.3420794927097437,-0.09336766641409226
1781533822695875072,1.5807571411132812,-0.31641486287117004,0.0672348141670227,-1.216044306755066,0.43444713950157166,-0.8014299273490906,0.41105422377586365,0.05920511484146118,-0.025443732738494873,0.02147144079208374,-0.36882213054646823,-0.20825999255023883,-0.8137290037720124,-0.39804907522851085,0.9296822575653946,2.3285340542412056,-0.07584034330446837
1781533822705910272,1.590792179107666,-0.26864093542099,0.07176125794649124,-1.1758923530578613,0.44376933574676514,-0.7973986864089966,0.4089306890964508,0.06263941526412964,-0.05538463592529297,0.0836687684059143,-0.3712380697451263,-0.20266307581100376,-0.8144894240892148,-0.39713603404910247,0.9229721595079446,2.3153603312730184,-0.05848003519877072
1781533822715944192,1.6008262634277344,-0.1479499489068985,0.08686351031064987,-1.1363698244094849,0.4526461362838745,-0.7930657267570496,0.40762487053871155,0.0481472909450531,-0.08252930641174316,0.0556928813457489,-0.37342373344171803,-0.19741529073984615,-0.8153769917123213,-0.39590681761554264,0.9158255505845905,2.303908389052868,-0.043113363850383064
1781533822725978112,1.6108601093292236,-0.1877029538154602,0.09954122453927994,-1.0885052680969238,0.4610983431339264,-0.788623571395874,0.40676936507225037,0.04856044054031372,-0.03442025184631348,0.0004572868347167969,-0.3753974530984283,-0.1923498396449761,-0.8163248256956038,-0.39457841908849167,0.9085672707391309,2.293675555345575,-0.028940642886511176
1781533822736013056,1.6208951473236084,-0.12895788252353668,0.08568399399518967,-1.0296720266342163,0.4690644443035126,-0.7843265533447266,0.40596804022789,0.07303446531295776,-0.011327624320983887,0.010779917240142822,-0.3772593067197321,-0.18754496209562618,-0.8171969862622926,-0.3933081049069664,0.9016097980964891,2.28421160933982,-0.015740312598877065
1781533822746047232,1.6309292316436768,-0.17461538314819336,0.08226808905601501,-0.9775516986846924,0.4766218960285187,-0.7801604270935059,0.4051932096481323,0.0857255756855011,-0.05480062961578369,-0.03094083070755005,-0.3790357451800652,-0.18296609509228137,-0.8179975667144882,-0.39209103424408065,0.8949221853434866,2.2753690771593122,-0.0033546657813175833
1781533822756081152,1.640963077545166,-0.29953786730766296,0.08605803549289703,-0.8955947756767273,0.48358845710754395,-0.7765743732452393,0.4038250744342804,0.09711533784866333,-0.09834945201873779,-0.022904574871063232,-0.38072831812579866,-0.17851245406510358,-0.8185632808911307,-0.3913227555255882,0.8892101595329844,2.2665523805101024,0.00909154712392843
1781533822766115072,1.6509971618652344,-0.3333083689212799,0.08327196538448334,-0.793555498123169,0.48983097076416016,-0.7737624645233154,0.4016934633255005,0.10991576313972473,-0.12446153163909912,0.07038301229476929,-0.3823430927585582,-0.17426655398732005,-0.8188271509615912,-0.39111016751128347,0.8847592097880925,2.25765313073537,0.02160971772700559
1781533822776150272,1.6610321998596191,-0.3634366989135742,0.10774881392717361,-0.6947916150093079,0.495222270488739,-0.7714723944664001,0.39948132634162903,0.09385856986045837,-0.12173134088516235,0.10209035873413086,-0.38370881805214946,-0.17034684142463224,-0.8189765629173131,-0.3911865359697199,0.881152022491457,2.249591570834394,0.03329947921371836
1781533822786184192,1.6710662841796875,-0.3443697988986969,0.1088433712720871,-0.5654962062835693,0.4996744394302368,-0.7697638273239136,0.3972266912460327,0.07791650295257568,-0.07773977518081665,0.0846610963344574,-0.38480828870468514,-0.16683780217393315,-0.8190106758216367,-0.39154722707821704,0.8784711287356313,2.2424632656141448,0.043968561179248654
1781533822796218112,1.6811001300811768,-0.2651471495628357,0.13554982841014862,-0.4328925907611847,0.5030373930931091,-0.7684503197669983,0.39552178978919983,0.0878133773803711,-0.05521911382675171,0.07747018337249756,-0.3855384852045679,-0.16397297031773964,-0.8190688373161759,-0.3919173450455366,0.8764159459961404,2.2371073011282863,0.052513026688352865
1781533822806253312,1.6911351680755615,-0.21858657896518707,0.14429551362991333,-0.3244588077068329,0.5054033398628235,-0.7674918174743652,0.3943648338317871,0.09388554096221924,-0.06427997350692749,0.0677017867565155,-0.38590339625686065,-0.16166505744513796,-0.8191744824267807,-0.3922959327130493,0.8749193833537398,2.2334074172203784,0.059175581850947026
1781533822816287232,1.7011692523956299,-0.18163467943668365,0.16725914180278778,-0.20446503162384033,0.5068220496177673,-0.7669459581375122,0.39360541105270386,0.09599167108535767,-0.08866012096405029,0.04313158988952637,-0.38594325957193837,-0.15987625770877412,-0.819293773903963,-0.39274044606402214,0.8740682689684499,2.231114324715631,0.06421594976333646
1781533822826321152,1.7112030982971191,-0.14772412180900574,0.1900949627161026,-0.0815577581524849,0.507238507270813,-0.7668558955192566,0.39324483275413513,0.10296046733856201,-0.12015289068222046,0.0716295838356018,-0.38563520123647904,-0.15862021968481474,-0.8194278727970198,-0.3932724660164294,0.8739280132128249,2.230272602253283,0.06761530767167223
1781533822836355328,1.7212371826171875,-0.140778586268425,0.21500323712825775,0.017654847353696823,0.506668210029602,-0.7672621011734009,0.39318737387657166,0.09129321575164795,-0.16155564785003662,0.07862973213195801,-0.3849727847119119,-0.1578236857240343,-0.8195641357032386,-0.3939572516242259,0.8745611337412414,2.230746678214677,0.06964936209438892
1781533822846390272,1.7312722206115723,-0.16748690605163574,0.23629720509052277,0.1378113478422165,0.5051895976066589,-0.7682422995567322,0.39317578077316284,0.08427262306213379,-0.18459272384643555,0.046048492193222046,-0.3840102482214962,-0.15739668028364093,-0.8196427084771891,-0.394902816838099,0.8760908944222666,2.232148392127865,0.07078427929990223
1781533822856424192,1.7413060665130615,-0.19342689216136932,0.26019641757011414,0.26198869943618774,0.5026422142982483,-0.7699888348579407,0.3930242955684662,0.10227715969085693,-0.17167681455612183,0.06086373329162598,-0.3827236240802519,-0.15737559754157748,-0.8196005530951753,-0.3962455162633026,0.878823608621498,2.2344131088074417,0.07111118296596709
1781533822866458112,1.7513401508331299,-0.18497268855571747,0.30827245116233826,0.3641323745250702,0.49909812211990356,-0.7722986936569214,0.3930087983608246,0.10376137495040894,-0.1711217164993286,0.09621846675872803,-0.3810910342755439,-0.15776513446869447,-0.8195209385534974,-0.3978256606961187,0.8824517154254266,2.237830416681087,0.07031569691188086
1781533822876493312,1.7613751888275146,-0.19976627826690674,0.36022698879241943,0.4606354832649231,0.49457016587257385,-0.7751571536064148,0.39310482144355774,0.08178472518920898,-0.18562763929367065,0.11731690168380737,-0.37904494535613986,-0.15839987949965634,-0.8194277816129161,-0.39971539004038653,0.8869637842739758,2.2423838184926974,0.06879093811383562
1781533822886527232,1.771409273147583,-0.15359719097614288,0.4256211817264557,0.5805158019065857,0.48894742131233215,-0.7784258723258972,0.3936794698238373,0.06404632329940796,-0.19580191373825073,0.1431400179862976,-0.3765173115637921,-0.15942249858861143,-0.8194047841083449,-0.4017399250116088,0.892154313663624,2.248673928485493,0.06577716174807151
1781533822896561152,1.7814431190490723,-0.11805570870637894,0.46857452392578125,0.6688632369041443,0.4822748601436615,-0.7820172309875488,0.3947911262512207,0.0597783625125885,-0.18563413619995117,0.1228022575378418,-0.37352171497150705,-0.16083538379243725,-0.8194678429338325,-0.40383905091913713,0.897895902552239,2.256777448271758,0.061146872430044075
1781533822906596096,1.791478157043457,-0.04659004509449005,0.5006248354911804,0.7900503873825073,0.4746297597885132,-0.7858415842056274,0.3964589238166809,0.057749420404434204,-0.18861520290374756,0.07680761814117432,-0.37012116058760725,-0.16268837008922987,-0.8196108556205054,-0.4059321504116762,0.9040558407294517,2.2666949809579067,0.0546914376571624
1781533822916630272,1.8015122413635254,-0.02980467677116394,0.5220150947570801,0.8924494385719299,0.46589621901512146,-0.7899492383003235,0.39864853024482727,0.06788671016693115,-0.22868162393569946,0.02473694086074829,-0.36629717151105123,-0.16504297294057252,-0.8198079578113224,-0.4080466062021749,0.9107262400238766,2.2785668757676047,0.04621154664820699
1781533822926664192,1.8115460872650146,-0.07280940562486649,0.5152242183685303,0.9846470355987549,0.45634725689888,-0.7945009469985962,0.40064382553100586,0.080914705991745,-0.2504972219467163,-0.01543569564819336,-0.36227387069834,-0.1677429671669118,-0.8198684060442598,-0.4104092663217452,0.918185367872262,2.291286924047556,0.03674159622907548
1781533822936698112,1.821580171585083,-0.045941565185785294,0.5640617609024048,1.113737940788269,0.445771723985672,-0.7995297908782959,0.4025411903858185,0.08260959386825562,-0.26924145221710205,0.03120499849319458,-0.3579499097150056,-0.17084119452031182,-0.8198072233098382,-0.4130389281528574,0.9265119168353528,2.3052779523351306,0.02594383442360635
1781533822946733312,1.8316152095794678,-0.08097998052835464,0.6166614294052124,1.2087446451187134,0.4339533746242523,-0.8048956990242004,0.4047561287879944,0.07128039002418518,-0.28998345136642456,0.09536588191986084,-0.353110500610175,-0.17430777773098058,-0.8197529309161028,-0.41585450052308554,0.9354996930462307,2.321396431038402,0.013324190409857897
1781533822956766976,1.841649055480957,-0.03655685484409332,0.6260480284690857,1.3323209285736084,0.42114967107772827,-0.8106326460838318,0.40682634711265564,0.06028038263320923,-0.2056637406349182,0.09790384769439697,-0.34796440582564375,-0.17808687451297944,-0.8195719881094852,-0.4189362584293044,0.9452317046428993,2.3388970371672375,-0.0006151686839767554
1781533822966801152,1.8516831398010254,0.028046641498804092,0.6717562675476074,1.4729408025741577,0.40702614188194275,-0.8164554834365845,0.4095487892627716,0.06910908222198486,-0.10363423824310303,0.10488605499267578,-0.34233503716918173,-0.1825065240495455,-0.8194301436460917,-0.4219387861416665,0.9552454253032776,2.3592837845940577,-0.01769002156669101
1781533822976836096,1.8617181777954102,0.04898148402571678,0.7453750967979431,1.5928752422332764,0.3914869725704193,-0.8224371671676636,0.4127165973186493,0.0725938081741333,-0.07171255350112915,0.13510450720787048,-0.33612356003714133,-0.18737329380129153,-0.8192982044013282,-0.42504427932261585,0.9656822097278014,2.3825866928463424,-0.03744250375490791
1781533822986870272,1.8717522621154785,0.05246569588780403,0.8005782961845398,1.697870135307312,0.3746037185192108,-0.8285478353500366,0.41614991426467896,0.09167435765266418,-0.11084425449371338,0.11720585823059082,-0.32935318201994396,-0.1925791875894038,-0.819138701537475,-0.42831249880102723,0.9765091368419387,2.408686207433898,-0.05962608884814384
1781533822996904192,1.8817861080169678,0.11325740814208984,0.8191594481468201,1.7953335046768188,0.35662344098091125,-0.8346496224403381,0.4197375476360321,0.11638373136520386,-0.1424468755722046,0.04423639178276062,-0.3221921046478874,-0.19815226791972274,-0.8189044210009805,-0.43165199632411316,0.9874963795560965,2.4373109085704336,-0.08431808283087755
1781533823006939136,1.8918211460113525,0.05499090626835823,0.8319411873817444,1.8132227659225464,0.3379141688346863,-0.8405214548110962,0.4234832227230072,0.14266139268875122,-0.14718008041381836,-0.07218009233474731,-0.3147461286907074,-0.20393237201955317,-0.8186288570115667,-0.4349636690177602,0.9982450235567047,2.4681091172493215,-0.11112927418935101
1781533823016973312,1.901855230331421,0.016669347882270813,0.7747393846511841,1.8564403057098389,0.318989634513855,-0.8464674353599548,0.426307737827301,0.16114342212677002,-0.08434909582138062,-0.10649877786636353,-0.30741494461130514,-0.209725756824131,-0.8180274871925038,-0.4385682584306269,1.0093152315245555,2.499205156957519,-0.1384441155165171
1781533823027006976,1.9118890762329102,0.029807522892951965,0.7675104737281799,1.8950883150100708,0.29968106746673584,-0.8521782755851746,0.42893344163894653,0.17437902092933655,-0.06514972448348999,-0.09716147184371948,-0.30008443575891564,-0.2157823474572876,-0.8172543670188452,-0.4421343206771649,1.0201342128902147,2.531762780278988,-0.16770830342626278
1781533823037041152,1.9219231605529785,-0.057499684393405914,0.7874181866645813,1.9127768278121948,0.2800024449825287,-0.8577348589897156,0.4311489760875702,0.13102349638938904,-0.12020087242126465,-0.025646716356277466,-0.29266198127249465,-0.22183267705675253,-0.8163116733923178,-0.4458412842770255,1.0308472685252053,2.565615994252405,-0.19816099164040754
1781533823047076352,1.9319581985473633,-0.07556870579719543,0.7663373947143555,1.950954556465149,0.25998592376708984,-0.8633134961128235,0.432547390460968,0.09131717681884766,-0.10944956541061401,0.03951370716094971,-0.2852508558333884,-0.22787485529132334,-0.8150746881685186,-0.4498425057784128,1.0417989084185868,2.600395844571868,-0.22955465247039064
1781533823057110272,1.9419922828674316,-0.06493843346834183,0.7934401035308838,1.9888033866882324,0.23947028815746307,-0.8685160279273987,0.43397510051727295,0.06929135322570801,-0.058302998542785645,0.052749842405319214,-0.27767189850307256,-0.23408333228001985,-0.813752139260039,-0.4537741185243206,1.0522005328058863,2.6373635426270536,-0.26322917892908254
1781533823067144192,1.952026128768921,-0.09535838663578033,0.816491425037384,2.0053505897521973,0.2185104787349701,-0.87347012758255,0.4350895881652832,0.03885950148105621,-0.006580471992492676,0.06175181269645691,-0.2699238638203967,-0.24027293833680483,-0.8122891786906993,-0.4578168368485846,1.0622846875290723,2.6761710250539075,-0.29851397204057384
1781533823077179136,1.9620611667633057,-0.06812543421983719,0.8513005375862122,2.018122911453247,0.1971837729215622,-0.87804114818573,0.4360761046409607,0.02554875612258911,-0.03179466724395752,0.07503223419189453,-0.2619924728020669,-0.24642919081406262,-0.810747001339136,-0.46186785821431764,1.0717536988792256,2.7169294292748707,-0.33550360883177854
1781533823087213312,1.972095251083374,0.017121821641921997,0.8976507782936096,2.022228240966797,0.17550885677337646,-0.8819233775138855,0.4375016987323761,0.016904473304748535,-0.1411784291267395,0.05840885639190674,-0.2537731808987102,-0.2525862728380826,-0.8092904467115661,-0.4656697306695492,1.0799269468845287,2.7600853482430736,-0.3745990529269178
1781533823097247232,1.9821290969848633,-0.07639375329017639,0.9293040633201599,1.952600359916687,0.15383373200893402,-0.88531893491745,0.4388003945350647,0.014180794358253479,-0.1996573805809021,-0.0046266913414001465,-0.24541580186751807,-0.2584748764036092,-0.8078310090601013,-0.46943684502023175,1.087179433262021,2.804403083224672,-0.4143340190423381
1781533823107282176,1.992164134979248,-0.06928417831659317,0.8932163715362549,1.907996654510498,0.13266755640506744,-0.888469934463501,0.43934115767478943,0.012611374258995056,-0.17006278038024902,-0.017405152320861816,-0.23727694416346407,-0.26401006249395703,-0.8062067143943494,-0.4733171502032769,1.0940003765233564,2.8483301256506515,-0.45353120681689163
1781533823117316352,2.0021982192993164,-0.11149021983146667,0.8988377451896667,1.884580373764038,0.11178655177354813,-0.8911228179931641,0.439777135848999,0.002471253275871277,-0.14287376403808594,-0.061557650566101074,-0.22924233109098371,-0.26945939389414714,-0.8045372644016312,-0.4770318766993647,1.0998137038937883,2.8926752165765324,-0.49329040096386817
1781533823127350016,2.0122320652008057,-0.18147115409374237,0.8862887024879456,1.8722450733184814,0.09103980660438538,-0.8937198519706726,0.4392910897731781,-0.011846698820590973,-0.11278039216995239,-0.006719708442687988,-0.22134100167938317,-0.2746996149958453,-0.8026117745903727,-0.4810017263271312,1.1055696022636938,2.937242886232236,-0.5331763274446027
1781533823137384192,2.022266149520874,-0.24272732436656952,0.8817805051803589,1.8471099138259888,0.07042734324932098,-0.8961412906646729,0.43814483284950256,-0.013893529772758484,-0.12868475914001465,0.045726656913757324,-0.21357178887298056,-0.2798349344478215,-0.8004778751769732,-0.4850924778754401,1.1109963668184404,2.9822160823496047,-0.57355666303893
1781533823147419136,2.032301187515259,-0.29202377796173096,0.9043018817901611,1.8179845809936523,0.05003514885902405,-0.8984302282333374,0.43625637888908386,-0.040025386959314346,-0.1416240930557251,0.06800079345703125,-0.20589865726031745,-0.2847041544460116,-0.7981677330585693,-0.48936444354929814,1.1161814833259092,3.027399542556251,-0.6139199326073642
1781533823157453312,2.042335271835327,-0.3443668782711029,0.9405698776245117,1.7953572273254395,0.02968299388885498,-0.900540828704834,0.43375709652900696,-0.06754003465175629,-0.11531305313110352,0.07599329948425293,-0.1982076163710675,-0.28933989815325656,-0.7957141225050354,-0.49379675419613805,1.1210118922867314,3.0732668788311686,-0.6546232228748727
1781533823167487232,2.0523691177368164,-0.24723632633686066,1.0147252082824707,1.7826625108718872,0.009303863160312176,-0.902226448059082,0.43116191029548645,-0.07390956580638885,-0.07360345125198364,0.052999407052993774,-0.19032956498665762,-0.29373091308273525,-0.7932862686916498,-0.4981903244443931,1.1249045657291812,3.120017418691261,-0.6956356855607033
1781533823177522176,2.062404155731201,-0.23276284337043762,1.0716774463653564,1.761008620262146,-0.011327429674565792,-0.9031754732131958,0.42912235856056213,-0.04334482550621033,-0.09420013427734375,-0.01261836290359497,-0.18201934228441954,-0.2979362570615451,-0.7910721622366609,-0.5023025757334248,1.1271102913972668,-3.1152020466765395,-0.7370635691041602
1781533823187556352,2.0724382400512695,-0.30085694789886475,1.0133229494094849,1.7222188711166382,-0.031577158719301224,-0.9039480686187744,0.42647477984428406,0.0026159733533859253,-0.10857939720153809,-0.009497880935668945,-0.17387827927044505,-0.30194026779651084,-0.7887138064772716,-0.5064868621606162,1.1289134546751665,-3.0676852530543988,-0.7780375734450876
1781533823197590016,2.082472085952759,-0.37884601950645447,0.9567906856536865,1.7108708620071411,-0.05135827139019966,-0.9046931266784668,0.42295750975608826,0.03315451741218567,-0.06274473667144775,-0.003356039524078369,-0.16613170462714702,-0.3059258024693135,-0.7860586219534881,-0.5108048835520772,1.1306588920913434,-3.020757668185022,-0.8190184036589107
1781533823207625216,2.0925071239471436,-0.4711173474788666,0.9110451340675354,1.6897104978561401,-0.07074914872646332,-0.9054234623908997,0.4185725152492523,0.03614220768213272,0.015881836414337158,-0.027642369270324707,-0.15872580684117701,-0.30987547348444866,-0.7831113851369812,-0.5152862134955897,1.1323762134859878,-2.97415042804594,-0.8601595103276657
1781533823217659136,2.102541208267212,-0.5504526495933533,0.8516119122505188,1.694959282875061,-0.08977990597486496,-0.9062557816505432,0.41308560967445374,0.03876980394124985,0.03755784034729004,0.031006157398223877,-0.15169595202840916,-0.3137848940967165,-0.7797960276760224,-0.5200436896031484,1.1343410258382478,-2.927581236545856,-0.9017675396750287
1781533823227693056,2.112575054168701,-0.48096704483032227,0.8128994107246399,1.7459337711334229,-0.10886978358030319,-0.906637966632843,0.40762072801589966,0.03414753079414368,-0.011803627014160156,0.10769909620285034,-0.14476131959011526,-0.31797572191674095,-0.7763387202703942,-0.5246271864646107,1.13524594258051,-2.880598833112122,-0.9444584250096286
1781533823237727232,2.1226091384887695,-0.49715322256088257,0.839638352394104,1.729038119316101,-0.12801949679851532,-0.9065923690795898,0.4021209478378296,0.00019663572311401367,0.005194664001464844,0.05568850040435791,-0.13775524128270286,-0.32218043999525425,-0.7728261347644227,-0.5291153021691439,1.135137848561859,-2.833377452908125,-0.9873835171456052
1781533823247762176,2.1326441764831543,-0.4159310758113861,0.8530694842338562,1.745105504989624,-0.14721356332302094,-0.9060240983963013,0.39679810404777527,0.007076814770698547,0.04468059539794922,0.05066591501235962,-0.13058196476199374,-0.32632313406346286,-0.7693583420242935,-0.5334316993956433,1.1337932062967182,-2.786330184539346,-1.0298819968810602
1781533823257796352,2.1426782608032227,-0.32061147689819336,0.8492984175682068,1.7918546199798584,-0.1666673719882965,-0.9046840667724609,0.3921342194080353,0.03664717078208923,0.010839223861694336,0.06485137343406677,-0.12314136279629066,-0.33060979490289644,-0.7660054006542829,-0.5373725608636074,1.1306376120851753,-2.7396997095565108,-1.0719177828367532
1781533823267830016,2.152712106704712,-0.3924235999584198,0.8143359422683716,1.80046808719635,-0.18624615669250488,-0.9028494954109192,0.38752466440200806,0.05061076581478119,-0.01598912477493286,0.04268163442611694,-0.1156547351469432,-0.33504867742772143,-0.7625645658715153,-0.5411669851023075,1.1263514098763463,-2.6935813632950154,-1.1136940669736213
1781533823277865216,2.1627471446990967,-0.3961690664291382,0.7656499147415161,1.8302803039550781,-0.2056797593832016,-0.9008462429046631,0.3823241889476776,0.06914412975311279,0.01717931032180786,0.03517147898674011,-0.10839046725153287,-0.3395806932527328,-0.758845866068872,-0.5450590681013971,1.1217148795309069,-2.6480307723696486,-1.1554162671891774
1781533823287899136,2.172781229019165,-0.42487528920173645,0.7148779034614563,1.824973464012146,-0.22506268322467804,-0.8984124064445496,0.37709665298461914,0.09821636974811554,0.04009026288986206,-0.01627206802368164,-0.10123320079791454,-0.34430397087443737,-0.7549854931600467,-0.5488200931293907,1.1161409036092138,-2.603507116077981,-1.1966453909865016
1781533823297933056,2.1828150749206543,-0.46318647265434265,0.6525900363922119,1.8093812465667725,-0.24394015967845917,-0.8958334922790527,0.3714505732059479,0.11034946143627167,0.07436132431030273,-0.03197312355041504,-0.09443182305586734,-0.3490488411898489,-0.7509262252682427,-0.5525914594849362,1.1103032191548325,-2.560505729844954,-1.2369553303173009
1781533823307968256,2.192850112915039,-0.4455094635486603,0.6248095631599426,1.8444597721099854,-0.2626984417438507,-0.8928658962249756,0.3657592833042145,0.1234315037727356,0.09249675273895264,0.0022216737270355225,-0.08774892814710086,-0.35392804424131685,-0.746735950124247,-0.5562557338579945,1.1036697082319968,-2.518737791022637,-1.276487194814172
1781533823318002176,2.2028841972351074,-0.48463690280914307,0.6012988686561584,1.8356328010559082,-0.28141510486602783,-0.8895483613014221,0.35987389087677,0.11964142322540283,0.05396181344985962,0.03648841381072998,-0.08114669741598235,-0.35890707604860256,-0.7423763533929585,-0.5598912770610708,1.0963555502097462,-2.4779349039493987,-1.3153916338643703
1781533823328036352,2.212918281555176,-0.3479174077510834,0.5908676385879517,1.881250023841858,-0.3000721037387848,-0.885621964931488,0.35444381833076477,0.09716072678565979,-0.03286558389663696,0.054339051246643066,-0.07447017769401396,-0.36397015311457603,-0.7380702119780191,-0.5632337581074435,1.0878315675057166,-2.4390758180813514,-1.3524738235300724
1781533823338071552,2.2229535579681396,-0.35066285729408264,0.6364623308181763,1.8946728706359863,-0.31902527809143066,-0.8809558749198914,0.3494846522808075,0.07892826199531555,-0.07076525688171387,-0.01900985836982727,-0.06746035348845564,-0.36908697027174586,-0.733837270362914,-0.5663097653686132,1.0778784999809723,-2.401726113937036,-1.3877461583266473
1781533823348105472,2.232987403869629,-0.35965368151664734,0.6209765672683716,1.904833197593689,-0.337954580783844,-0.8759474158287048,0.3442423641681671,0.11055287718772888,-0.01312112808227539,-0.039356499910354614,-0.06040214485531229,-0.3741391563344979,-0.729480001969001,-0.5694123379811598,1.067396318751699,-2.365411176218703,-1.4218674899350328
1781533823358139392,2.2430214881896973,-0.2562521994113922,0.5633582472801208,1.9215223789215088,-0.3567374050617218,-0.8703630566596985,0.33942097425460815,0.1875021755695343,0.028459370136260986,0.00416111946105957,-0.05336234602843058,-0.3793320979739041,-0.7251328470096148,-0.5722254727208066,1.0559391801520737,-2.3313253565481875,-1.4541037521844997
1781533823368173568,2.2530555725097656,-0.22582237422466278,0.5552483797073364,1.8964742422103882,-0.3752434551715851,-0.8641169667243958,0.33540162444114685,0.20112544298171997,0.03948628902435303,0.0001544654369354248,-0.04629248019862589,-0.38461435127965693,-0.7209525766682249,-0.5745922060333196,1.0433932033314883,-2.300188822873509,-1.4835967025473114
1781533823378208512,2.2630903720855713,-0.298600435256958,0.5941917896270752,1.9041130542755127,-0.39356401562690735,-0.8576808571815491,0.33089402318000793,0.18818074464797974,0.11068689823150635,-0.039420634508132935,-0.03924804797270856,-0.38973983821841424,-0.7166239369659755,-0.5770723878124553,1.0307421554584748,-2.2699032642533292,-1.512066207227685
1781533823388242432,2.2731244564056396,-0.31084540486335754,0.536400556564331,1.892732858657837,-0.41174474358558655,-0.8510177135467529,0.3259377181529999,0.23588714003562927,0.12216627597808838,0.03395608067512512,-0.03228876999638264,-0.3948361366898323,-0.7120907850319949,-0.5796452905973755,1.0179202059929424,-2.2403951600269862,-1.539882290696973
1781533823398276608,2.283158540725708,-0.3299977779388428,0.48352882266044617,1.869142770767212,-0.4293680191040039,-0.8441160917282104,0.32110926508903503,0.2342691719532013,0.06665033102035522,0.05212077498435974,-0.025642867719610656,-0.4000073372625533,-0.7074947075298134,-0.5820548269655761,1.0049144282407125,-2.212929560622161,-1.5662965074737272
1781533823408311296,2.2931933403015137,-0.39634138345718384,0.47117096185684204,1.8458648920059204,-0.44656020402908325,-0.8371434807777405,0.3158709704875946,0.19593468308448792,0.0763251781463623,0.008393466472625732,-0.01927433811201051,-0.4051428976116998,-0.7027052805054259,-0.5845450481239137,0.9920398918924004,-2.186433097748753,-1.5921283315414843
1781533823418345472,2.303227424621582,-0.17217779159545898,0.4877784252166748,1.828786015510559,-0.4634268581867218,-0.8296744227409363,0.3112489581108093,0.1988394558429718,0.08359593152999878,0.0008542537689208984,-0.012803264129583375,-0.41018158011544614,-0.6981228736771603,-0.5866954878337856,0.9785241885215096,-2.1622236006700084,-1.6154527366593725
1781533823428379648,2.3132615089416504,-0.13252173364162445,0.5537199378013611,1.7728010416030884,-0.4799908399581909,-0.8215433955192566,0.30769363045692444,0.18235284090042114,0.05024200677871704,-0.11398336291313171,-0.00594312167856311,-0.4149458934934798,-0.6940221375364566,-0.5883178465609433,0.9641127305721571,-2.1408474404015245,-1.6350274822233473
1781533823438414592,2.323296546936035,-0.25117728114128113,0.5221495032310486,1.6939888000488281,-0.49590009450912476,-0.8136359453201294,0.3034461438655853,0.20618149638175964,0.11150282621383667,-0.1366828978061676,0.0006997952971258745,-0.4193298493595995,-0.6898445790001798,-0.5901494756368458,0.950379066682646,-2.119927057269425,-1.65384662653739
1781533823448448512,2.3333303928375244,-0.21641795337200165,0.4000440537929535,1.6239042282104492,-0.5107342600822449,-0.8060183525085449,0.29914048314094543,0.2803112864494324,0.15535306930541992,-0.04128217697143555,0.006657948626128681,-0.4237002337689722,-0.6856007215947331,-0.5919336691484741,0.9373939666085409,-2.1006397466887967,-1.6720261717220608
1781533823458482432,2.3433644771575928,-0.26316389441490173,0.40068480372428894,1.5396586656570435,-0.5246884822845459,-0.7984318137168884,0.2953110337257385,0.2474362850189209,0.10470622777938843,-0.0357896089553833,0.012254114220700423,-0.42798649643675785,-0.6815299531571887,-0.5934596254844973,0.9246861377217737,-2.0834373112354427,-1.688549195062138
1781533823468517632,2.3533995151519775,-0.46372470259666443,0.43614307045936584,1.4280959367752075,-0.5377478003501892,-0.7916191220283508,0.29011422395706177,0.16140508651733398,0.11936277151107788,-0.03721514344215393,0.017322205089452546,-0.4317968495459305,-0.6772064650219217,-0.5955188934920415,0.9134543901683128,-2.065541387704307,-1.7057069463061383
1781533823478551296,2.363433361053467,-0.38139092922210693,0.43128758668899536,1.3985151052474976,-0.5501487255096436,-0.7851879596710205,0.2842819392681122,0.13452982902526855,0.11035275459289551,0.08029627799987793,0.022043583656995554,-0.4353311305034234,-0.6727761743651531,-0.5978069134455544,0.9029996258740919,-2.0477433506282945,-1.7228085691020867
1781533823488585472,2.373467445373535,-0.3628513514995575,0.48857805132865906,1.3564749956130981,-0.5622832775115967,-0.7784661054611206,0.27897700667381287,0.06585383415222168,0.038384318351745605,0.044600844383239746,0.0269669160432716,-0.438649012190784,-0.6686370769184676,-0.5998202544750799,0.892218366811348,-2.0313593972364345,-1.7378891637808604
1781533823498619648,2.3835015296936035,-0.421806275844574,0.5227493047714233,1.2830960750579834,-0.573917806148529,-0.7721044421195984,0.2728981673717499,0.014393150806427002,0.06728559732437134,0.016316920518875122,0.031732839989559045,-0.44156687691050894,-0.664430420631229,-0.6021163260642709,0.8821460567032774,-2.0146529329710314,-1.7528410814922277
1781533823508654592,2.3935365676879883,-0.250627338886261,0.5708408355712891,1.276862382888794,-0.5852767825126648,-0.7655607461929321,0.2671477496623993,0.027705371379852295,0.07403242588043213,0.04056096076965332,0.03667075547245757,-0.44423963611920436,-0.6604733292807295,-0.604219684867582,0.8719124975267586,-1.9989985109396935,-1.7661103795816302
1781533823518688512,2.4035704135894775,-0.31634774804115295,0.5812112092971802,1.196895956993103,-0.5963015556335449,-0.7589421272277832,0.26159414649009705,-0.0033689141273498535,0.04919475317001343,-0.050534576177597046,0.04173973250439457,-0.4466259349044366,-0.6567513613503695,-0.606185458902339,0.8616870163415262,-1.984208846104261,-1.7778620217802785
1781533823528722432,2.413604497909546,-0.3369949758052826,0.5700076818466187,1.171050786972046,-0.6067480444908142,-0.7526777386665344,0.25560370087623596,-0.018053650856018066,0.04485291242599487,-0.023929446935653687,0.04648860807914284,-0.44881723570457405,-0.6529662603302185,-0.6083067237414149,0.8521198114273566,-1.9695019056760499,-1.7896570804211043
1781533823538757632,2.4236395359039307,-0.3162340223789215,0.5891355872154236,1.1585725545883179,-0.6169853210449219,-0.7463394999504089,0.24961337447166443,-0.0411415696144104,0.01007235050201416,-0.0030160844326019287,0.05120196117461615,-0.45094808236942463,-0.6491937422145555,-0.6103866345485579,0.8425451728695861,-1.955235600752332,-1.8009784322504108
1781533823548791296,2.43367338180542,-0.2632344663143158,0.5890961289405823,1.1157464981079102,-0.626949667930603,-0.7399555444717407,0.2437208890914917,-0.08555948734283447,0.03129160404205322,-0.0694197416305542,0.05595196963152392,-0.4529138641326267,-0.6455458755755132,-0.6123797026319054,0.8330042554095197,-1.9415589555655777,-1.8113897546340398
1781533823558825472,2.4437074661254883,-0.16272863745689392,0.5952520370483398,1.1033785343170166,-0.6365474462509155,-0.7334609627723694,0.23841731250286102,-0.0901983380317688,0.08587777614593506,-0.07054013013839722,0.06075427024205088,-0.45475458353880166,-0.6421891671834403,-0.614085026789995,0.8233996863468416,-1.929170318020364,-1.8202435956978442
1781533823568860416,2.453742504119873,-0.16081275045871735,0.6441619396209717,1.0975209474563599,-0.6460915803909302,-0.7267118692398071,0.2333572506904602,-0.11524569988250732,0.05518782138824463,-0.02675318717956543,0.06583416114320328,-0.45641078733055446,-0.6390366346674264,-0.6156194296632033,0.8135231702047139,-1.9173987306220277,-1.827779752223951
1781533823578894336,2.4637763500213623,-0.13224689662456512,0.6622618436813354,1.1048702001571655,-0.65557461977005,-0.7199235558509827,0.2278861701488495,-0.13081759214401245,0.043623507022857666,-0.026241302490234375,0.07093862597952359,-0.4579601873419447,-0.63577948489359,-0.6172719586391567,0.8036921812228043,-1.905342948346885,-1.8353863633038126
1781533823588928512,2.4738104343414307,-0.04419000446796417,0.6580493450164795,1.1260244846343994,-0.6651110649108887,-0.7126920223236084,0.22292929887771606,-0.08911561965942383,0.0188138484954834,-0.05073392391204834,0.07633273028636642,-0.4594934892429755,-0.6327166712425883,-0.618634544764577,0.7933283750280287,-1.8942044126306998,-1.8416542203709543
1781533823598963456,2.4838454723358154,-0.08438403159379959,0.5930898189544678,1.1028972864151,-0.6744566559791565,-0.7053226828575134,0.21823887526988983,-0.032666146755218506,0.05178874731063843,-0.11637115478515625,0.08167873295160152,-0.4610735958221572,-0.6297067378231184,-0.6198460952259527,0.7828782793063074,-1.8837409270151801,-1.8474092256102004
1781533823608997632,2.493879556655884,-0.038547299802303314,0.47460007667541504,1.0527681112289429,-0.6832088828086853,-0.6981813907623291,0.21393592655658722,0.08568990230560303,0.11297625303268433,-0.07199868559837341,0.0865113985264933,-0.46283856670203655,-0.6266964373167273,-0.6209250160463305,0.7728540693110906,-1.8742586901945715,-1.8532476437972376
1781533823619031552,2.503913402557373,0.043103087693452835,0.3488466739654541,1.0110301971435547,-0.6912581920623779,-0.6910245418548584,0.21129906177520752,0.13718104362487793,0.0611417293548584,-0.04943382740020752,0.09102246926031579,-0.4648259907282304,-0.6241685132615821,-0.6213416182954263,0.7629054779586354,-1.8674496881830542,-1.8572783168011016
1781533823629065472,2.5139474868774414,-0.10802864283323288,0.31499800086021423,0.9741605520248413,-0.6988124847412109,-0.6841433644294739,0.2088276892900467,0.11231040954589844,0.06616240739822388,-0.06681406497955322,0.09512219787952256,-0.4668890576684652,-0.6216336976619381,-0.6217217486530293,0.7534285112449384,-1.8611814256763621,-1.8614947681196077
1781533823639100672,2.523982524871826,-0.13109560310840607,0.23703502118587494,0.9326807260513306,-0.7058936953544617,-0.6777356266975403,0.20588459074497223,0.11635518074035645,0.06279122829437256,0.05055461823940277,0.09862588602188223,-0.46904639833341877,-0.6188196622767655,-0.6223589251510374,0.7446787745129592,-1.8545890443086614,-1.8670582703766405
1781533823649134336,2.5340163707733154,-0.09401615709066391,0.22093914449214935,0.9558781981468201,-0.7127218842506409,-0.6712159514427185,0.20370720326900482,0.06277376413345337,-0.039538443088531494,0.11074590682983398,0.10202619154325768,-0.4713340260665075,-0.6161962653456694,-0.6226853444381822,0.7358479315727515,-1.8491898671186688,-1.8718241619177307
1781533823659168512,2.544050455093384,-0.3578920066356659,0.31446295976638794,0.9680275321006775,-0.7197577357292175,-0.6646924018859863,0.20033156871795654,-0.01527339220046997,0.04954957962036133,0.06880295276641846,0.10534406619142135,-0.4736196348511684,-0.6130662462932996,-0.6234876367263185,0.7270820451194895,-1.8422575553427212,-1.8782538195918983
1781533823669203456,2.5540854930877686,-0.15001869201660156,0.2696431577205658,0.9036581516265869,-0.7265481948852539,-0.6584404110908508,0.19642850756645203,0.07298368215560913,0.19818955659866333,0.08439421653747559,0.10854978856857066,-0.47569776119161383,-0.6098572755578875,-0.6245020031501659,0.7187446822991742,-1.8348423244533418,-1.88496375427077
1781533823679237632,2.564119577407837,-0.21233665943145752,0.3747994303703308,0.7948621511459351,-0.732821524143219,-0.6525036692619324,0.19290348887443542,0.15834331512451172,0.19196289777755737,-0.024309128522872925,0.1118042767024751,-0.4774009823057134,-0.6070749904558924,-0.6253384247372056,0.7108837166317877,-1.8281911460327067,-1.8901647542011595
1781533823689271552,2.574153423309326,-0.16751593351364136,0.23432540893554688,0.628541886806488,-0.738090455532074,-0.6476231813430786,0.18922680616378784,0.24143213033676147,0.2500402331352234,-0.19717657566070557,0.11457122158798912,-0.4786442970182488,-0.6045767442945456,-0.6263067013357675,0.704460976928589,-1.821764489472756,-1.89499333990854
1781533823699306496,2.584188461303711,-0.15625129640102386,-0.08025730401277542,0.4627830684185028,-0.741773247718811,-0.6438612341880798,0.18765749037265778,0.39094316959381104,0.19918960332870483,-0.16399109363555908,0.11613133500178764,-0.4801625958115031,-0.6027210210127604,-0.6266456904461893,0.6995340174287452,-1.818582413592761,-1.8987839455345987
1781533823709340672,2.5942225456237793,-0.17267580330371857,-0.17370909452438354,0.3800272047519684,-0.7441485524177551,-0.6411095261573792,0.18767426908016205,0.2864001393318176,0.03930288553237915,-0.04225802421569824,0.11659554215135358,-0.4819468026045949,-0.6013022631569405,-0.6265528019476932,0.6959431417523931,-1.8178444990290303,-1.902167938267828
1781533823719374336,2.6042563915252686,-0.10846833139657974,-0.04730748012661934,0.4108503460884094,-0.7464743852615356,-0.6384264230728149,0.18758395314216614,0.052184224128723145,0.004500031471252441,-0.0560380220413208,0.11712477976502403,-0.4835985402462238,-0.599937023082966,-0.6264900873261506,0.692452115491229,-1.8169917828075566,-1.905337915675186
1781533823729409536,2.6142914295196533,0.022958938032388687,0.04254531487822533,0.3315182328224182,-0.7489014863967896,-0.6356556415557861,0.187320277094841,0.012558043003082275,0.12535589933395386,-0.018207058310508728,0.11822450299417614,-0.48475838693508566,-0.5988901756271222,-0.626388866873762,0.6888575257093171,-1.8158942478547229,-1.9070399503548647
1781533823739443456,2.6243255138397217,0.050684310495853424,0.07494693249464035,0.1961742490530014,-0.750683069229126,-0.6336154937744141,0.18709975481033325,0.06115365028381348,0.22243690490722656,0.0075109004974365234,0.11932159624281799,-0.4853305275013306,-0.5983344850877954,-0.6262687000816173,0.6862176245016268,-1.8150589419909031,-1.907390931367293
1781533823749477376,2.634359359741211,0.03260543942451477,0.08693993836641312,0.08239150047302246,-0.7517321705818176,-0.6324637532234192,0.1867847740650177,0.09357470273971558,0.24768280982971191,-0.01780889928340912,0.12012342458829683,-0.48547034239952636,-0.5980894039236317,-0.6262411934173368,0.684729778878282,-1.814336840399376,-1.907242475380791
1781533823759512320,2.6443943977355957,-0.028927162289619446,0.07251758873462677,-0.043891604989767075,-0.7520193457603455,-0.6323040723800659,0.18616808950901031,0.11594146490097046,0.23006713390350342,-0.06573045253753662,0.12045198781710105,-0.4852609106818455,-0.5980015813390047,-0.6264242158908033,0.684523670062477,-1.8134749241182162,-1.9072546694817198
1781533823769546496,2.654428482055664,-0.09378552436828613,-0.05326070636510849,-0.1849440634250641,-0.7513433694839478,-0.6332694292068481,0.18561473488807678,0.1593482494354248,0.21386641263961792,-0.09838022291660309,0.1199946143028694,-0.48490878973971896,-0.5980558776272752,-0.626732684789721,0.685770411816321,-1.812990778961809,-1.9077343476017
1781533823779580672,2.6644625663757324,-0.03714940696954727,-0.19139887392520905,-0.3040507435798645,-0.7495397329330444,-0.6352461576461792,0.1861514002084732,0.1813482642173767,0.1849135160446167,-0.0824374109506607,0.11867330762348365,-0.484614073027748,-0.5985189253234607,-0.6267701872510832,0.6883271688863951,-1.8142254821357973,-1.9078148380999587
1781533823789614336,2.6744964122772217,-0.012664304114878178,-0.2142983376979828,-0.3827279806137085,-0.7469374537467957,-0.6378961801528931,0.18754352629184723,0.1150863766670227,0.13904064893722534,-0.05477681756019592,0.11689087523890061,-0.48424672596528084,-0.5993970917452903,-0.6265497937677597,0.6917633923622353,-1.8167943119620102,-1.9070706806603768
1781533823799649536,2.6845314502716064,0.056281208992004395,-0.1935911923646927,-0.4277244806289673,-0.743949294090271,-0.6408875584602356,0.18921594321727753,0.043921828269958496,0.1287110447883606,-0.007941484451293945,0.11504597661937631,-0.483664348354467,-0.6005637088020725,-0.6262239897525413,0.6956538949547826,-1.81985534487908,-1.905521433927846
1781533823809683456,2.694565534591675,0.08060598373413086,-0.16885387897491455,-0.5086028575897217,-0.7405923008918762,-0.6442236304283142,0.1910470575094223,0.034461379051208496,0.15556097030639648,-0.00154818594455719,0.11321089464364109,-0.4827842212925254,-0.6020323264385603,-0.625827277514088,0.7000077783603067,-1.8232574985945493,-1.9030645958580843
1781533823819717376,2.704599380493164,0.026188552379608154,-0.1517113745212555,-0.59330815076828,-0.736728847026825,-0.6481842994689941,0.19258086383342743,0.064686119556427,0.2184358835220337,-0.003173619508743286,0.1111487114483286,-0.4815851897229128,-0.6036274821241793,-0.6255840522844767,0.7051975931300789,-1.8264752134266828,-1.9005271165413002
1781533823829752320,2.714634418487549,-0.04851151630282402,-0.19345936179161072,-0.7096605896949768,-0.7321591973304749,-0.6530050039291382,0.19371972978115082,0.13058143854141235,0.2822774648666382,-0.03896510601043701,0.10856346241339737,-0.4801480369174408,-0.6052418723702684,-0.6255830121343825,0.7115454473137949,-1.829456005499939,-1.8985324579421292
1781533823839786496,2.724668502807617,-0.13922862708568573,-0.3252061903476715,-0.8597353100776672,-0.726518452167511,-0.6588984131813049,0.194996640086174,0.22282588481903076,0.3237391710281372,-0.09822548925876617,0.10511949342466201,-0.47862055148198646,-0.6069766798381309,-0.6256608501410967,0.7193533662850623,-1.8330151129055794,-1.8970086466620757
1781533823849820416,2.7347023487091064,-0.22504447400569916,-0.5123366713523865,-1.0463693141937256,-0.7193784713745117,-0.6661590337753296,0.19679132103919983,0.3035459518432617,0.3560546636581421,-0.11891043186187744,0.10042317264585275,-0.47712164430215465,-0.6088929294161387,-0.6257152519974463,0.7290468202533715,-1.8378208880546938,-1.8960590257954657
1781533823859855360,2.744737386703491,-0.25454750657081604,-0.7407016754150391,-1.244022250175476,-0.7104181051254272,-0.6748713850975037,0.19963684678077698,0.31462037563323975,0.32871049642562866,-0.08161008358001709,0.09433264994093646,-0.47568738790089216,-0.6111791317466286,-0.6255261743053168,0.7407903973080993,-1.8447442906023857,-1.8950723941031424
1781533823869889536,2.7547714710235596,-0.0544290617108345,-0.7862035036087036,-1.2781479358673096,-0.7001216411590576,-0.6842623353004456,0.203996941447258,0.1758754849433899,0.10983002185821533,0.05746243894100189,0.08749605272677641,-0.4743065264163283,-0.6140291418881343,-0.6247767308230834,0.7535916691419735,-1.8543202994474588,-1.8925767209611153
1781533823879923456,2.764805555343628,0.18946883082389832,-0.5300034284591675,-1.1357364654541016,-0.6903196573257446,-0.6925874352455139,0.2092399150133133,-0.1517060399055481,-0.2549527883529663,0.12842176854610443,0.08178278664492535,-0.47263262731823347,-0.6174450262782525,-0.6234513301623643,0.7650698968524373,-1.8651000882743074,-1.8867664016723034
1781533823889958400,2.7748403549194336,0.3391054570674896,-0.20692910254001617,-0.9576916694641113,-0.6822845339775085,-0.6992007493972778,0.2135559469461441,-0.40557557344436646,-0.27249419689178467,-0.00795900821685791,0.07803171046314782,-0.47041837836710243,-0.6208740017192274,-0.6222001859426497,0.7742789178706123,-1.8741378435831195,-1.8789739505251053
1781533823899992576,2.784874439239502,0.3746402859687805,-0.10126951336860657,-1.008086085319519,-0.6752089858055115,-0.7049450874328613,0.21712972223758698,-0.20970922708511353,0.20058107376098633,-0.11303424835205078,0.07549439836622553,-0.46768522548939173,-0.624367994830422,-0.621076307926328,0.7823457505583493,-1.8819265031385501,-1.869806584056642
1781533823910026496,2.7949085235595703,0.18753670156002045,-0.2412969172000885,-1.3130111694335938,-0.6666527390480042,-0.7121016979217529,0.22019316256046295,0.15641415119171143,0.6379440426826477,-0.17521026730537415,0.07206835613970156,-0.46443699548528955,-0.6280086444147378,-0.620249502565086,0.7924871993126241,-1.889811375994382,-1.8608886398291395
1781533823920061696,2.804943561553955,-0.021220240741968155,-0.6424432992935181,-1.5508497953414917,-0.6553143858909607,-0.7214650511741638,0.22372114658355713,0.35431957244873047,0.6371755599975586,-0.24421371519565582,0.06641401309192017,-0.4612061263855501,-0.6317827795534369,-0.6194582985139674,0.8059157710747351,-1.899784871225195,-1.8530761144455237
1781533823930095360,2.8149774074554443,-0.16335341334342957,-0.8855495452880859,-1.6360677480697632,-0.6418151259422302,-0.7321771383285522,0.2280135154724121,0.2946166396141052,0.24584901332855225,-0.1714949607849121,0.05864805091744193,-0.4585932269776038,-0.6353731260777097,-0.6185092791119237,0.8215129373684937,-1.9121525535421902,-1.8469687580446543
1781533823940129536,2.8250114917755127,-0.21870587766170502,-0.7277145981788635,-1.5638960599899292,-0.6280483603477478,-0.742775022983551,0.2320353090763092,0.024349689483642578,-0.1821669340133667,-0.02778114378452301,0.050663508750083505,-0.4560676620705769,-0.6387643870992299,-0.6175884522774534,0.8372055783110167,-1.9246963840174913,-1.8411664072732743
1781533823950163712,2.835045576095581,-0.17529502511024475,-0.5963631272315979,-1.4896245002746582,-0.6150624752044678,-0.7528793811798096,0.23424604535102844,-0.15010488033294678,-0.20555579662322998,0.06482630968093872,0.043268730704375,-0.45324572366358434,-0.6416317756141098,-0.6172560113467487,0.8524261442756272,-1.934685160735816,-1.836576408015813
1781533823960198400,2.8450803756713867,0.12624751031398773,-0.4653864800930023,-1.4762098789215088,-0.6025810241699219,-0.7618938088417053,0.23751649260520935,-0.1157112717628479,-0.06839805841445923,0.13102903962135315,0.036962394361040915,-0.45015216896828253,-0.6450746250737038,-0.6163404633072634,0.8662319569865801,-1.9462626555738785,-1.8284221939253555
1781533823970232576,2.855114459991455,0.19547292590141296,-0.29714635014533997,-1.512866497039795,-0.59017413854599,-0.7704485654830933,0.2410469949245453,-0.10767132043838501,0.07438838481903076,0.021449923515319824,0.031507171776887444,-0.4464130993596736,-0.6490291536355547,-0.6152104139127429,0.8795444740909133,-1.9585519184513647,-1.8172628249609635
1781533823980266496,2.8651485443115234,0.08413254469633102,-0.30737021565437317,-1.5629314184188843,-0.577552855014801,-0.7790711522102356,0.24388760328292847,0.02936553955078125,0.2919952869415283,-0.1209779679775238,0.026147991322919742,-0.4422930571227882,-0.6529323473587704,-0.6143066238304309,0.893182929132662,-1.9703587700493534,-1.805819228326969
1781533823990301440,2.875183343887329,-0.029302138835191727,-0.4821898341178894,-1.7038047313690186,-0.5637873411178589,-0.788329005241394,0.24633637070655823,0.2377222180366516,0.3918445110321045,-0.18952783942222595,0.01992410884713358,-0.4381276466759693,-0.6566676090670718,-0.613542984246217,0.9080883052177916,-1.982729393008759,-1.7949869469651862
1781533824000335360,2.8852174282073975,-0.25066009163856506,-0.7579391002655029,-1.8523728847503662,-0.5480575561523438,-0.7986083626747131,0.24871177971363068,0.325599730014801,0.3138214349746704,-0.2259761244058609,0.012102947115740663,-0.43415088022996945,-0.6602036853384005,-0.612778588692933,0.924979382685026,-1.996810786825687,-1.7850579547551457
1781533824010369536,2.895251512527466,-0.19555875658988953,-0.8981273770332336,-1.8529595136642456,-0.5308873057365417,-0.8093388676643372,0.25125545263290405,0.29895371198654175,0.08773547410964966,-0.006458759307861328,0.0029998102169839095,-0.4305831408767834,-0.6634952039080323,-0.6118523407398543,0.9430255790815278,-2.0128359004655247,-1.7757384337713633
1781533824020404480,2.9052865505218506,-0.041204869747161865,-0.7523419260978699,-1.7463902235031128,-0.5140524506568909,-0.8190266489982605,0.25484415888786316,0.08787447214126587,-0.289661705493927,0.13626909255981445,-0.005516416235361944,-0.42713020542725505,-0.6670696171673454,-0.6103667164135743,0.9597124864880202,-2.031042326420575,-1.7636663982152605
1781533824030438400,2.91532039642334,-0.26683080196380615,-0.5717103481292725,-1.6456447839736938,-0.49837449193000793,-0.8280285000801086,0.25688835978507996,-0.14016005396842957,-0.28955572843551636,0.06523990631103516,-0.013210556488697527,-0.42342686093270776,-0.6701894279060604,-0.6094106068586568,0.9755822730522388,-2.0467293377111924,-1.7525438314630044
1781533824040472576,2.925354480743408,-0.18411807715892792,-0.5236632227897644,-1.612853765487671,-0.48343443870544434,-0.8366493582725525,0.25750598311424255,-0.07387763261795044,0.12514716386795044,0.08143749833106995,-0.020526310544585816,-0.4196167008974064,-0.6728111327211228,-0.6089546779805337,0.9911370736063104,-2.0602289631880475,-1.7429087273777626
1781533824050507520,2.935389518737793,-0.020506780594587326,-0.49615225195884705,-1.7236140966415405,-0.4680844843387604,-0.8448240160942078,0.2591700553894043,0.04945966601371765,0.3652861714363098,-0.040404826402664185,-0.027511023190983593,-0.415527365150085,-0.6759600874459943,-0.6079950945163057,1.0062361377480908,-2.0764621838487622,-1.7296600994318994
1781533824060541440,2.9454233646392822,-0.20434638857841492,-0.5556014180183411,-1.8243659734725952,-0.4515732228755951,-0.8532717823982239,0.2607852816581726,0.07184299826622009,0.3482974171638489,-0.15510296821594238,-0.03489389484617191,-0.41105361203478274,-0.6792846056741018,-0.6069512206973761,1.0222276142780793,-2.094510324287319,-1.714559502291519
1781533824070575360,2.9554574489593506,-0.23456287384033203,-0.6177726984024048,-1.8273204565048218,-0.4342452883720398,-0.8620797991752625,0.2612460255622864,0.0819503664970398,0.15796297788619995,-0.0505373477935791,-0.04301985733171322,-0.40655372322098626,-0.6821561970848066,-0.6062394621382824,1.0393594251675597,-2.1123983048539854,-1.7006558306294828
1781533824080610560,2.9654924869537354,-0.17641301453113556,-0.5257818102836609,-1.850881814956665,-0.4168173372745514,-0.8703454732894897,0.2622249126434326,0.010430067777633667,-0.1061863899230957,-0.059069424867630005,-0.050901003955660835,-0.4019782312273023,-0.6852196428782437,-0.6052243921819987,1.055903441072516,-2.132347351806092,-1.684283948071877
1781533824090644480,2.9755265712738037,-0.30302688479423523,-0.5686653256416321,-1.8699930906295776,-0.39897266030311584,-0.8787381052970886,0.2619921863079071,-0.04577520489692688,-0.11163347959518433,-0.05770757794380188,-0.05898425546571248,-0.39707604140783537,-0.6879874374692112,-0.6045863470908347,1.0732119099588342,-2.1518441296311823,-1.6681376500025096
1781533824100678400,2.985560417175293,0.05806605890393257,-0.5327499508857727,-1.7469748258590698,-0.3814644515514374,-0.8861322999000549,0.2631627023220062,0.0047706663608551025,-0.15206056833267212,0.14418593049049377,-0.06667579568770486,-0.39251772679423175,-0.6910218409061688,-0.603301802687781,1.0889316409918441,-2.1746944734020484,-1.6487430151333788
1781533824110713600,2.9955954551696777,0.05965916067361832,-0.3888857364654541,-1.7126655578613281,-0.36485496163368225,-0.8924046158790588,0.26550793647766113,-0.09499910473823547,-0.26946043968200684,0.14222198724746704,-0.07332618396434394,-0.38791064621425864,-0.6944633218951372,-0.6015556053359855,1.1026463736329968,-2.1998773878071813,-1.6255348212496066
1781533824120747520,3.005629539489746,-0.02920599654316902,-0.31855884194374084,-1.6668919324874878,-0.3487231433391571,-0.8984109163284302,0.2669268250465393,-0.187516450881958,-0.08364468812942505,0.07493111491203308,-0.07963885003508105,-0.383097843789576,-0.69763848763365,-0.6001618124667604,1.1161374844402394,-2.2241063784929866,-1.6024904307201755
1781533824130781440,3.0156633853912354,-0.11447349190711975,-0.2022605687379837,-1.716995120048523,-0.33282023668289185,-0.9043562412261963,0.2671522796154022,-0.14468827843666077,0.21960288286209106,-0.013947993516921997,-0.08573863589312268,-0.3779408630906404,-0.7005261169984043,-0.5992267466370078,1.1298688850970329,-2.2471768137753374,-1.5797565558678335
1781533824140816384,3.02569842338562,-0.07366933673620224,-0.23488456010818481,-1.8101074695587158,-0.31617429852485657,-0.9103677868843079,0.26695412397384644,-0.06708073616027832,0.3278786540031433,-0.12564250826835632,-0.0919489814169101,-0.37228542878245674,-0.7034775169860189,-0.5983881608180455,1.1441719501751926,-2.271986974596157,-1.5546759262634826
1781533824150850560,3.0357325077056885,-0.08815187215805054,-0.34499868750572205,-1.8043073415756226,-0.2987585663795471,-0.916192352771759,0.2670856714248657,0.035895466804504395,0.1371701955795288,-0.05344739556312561,-0.09860865829705383,-0.36673395704858325,-0.7064340335916267,-0.5972716616385512,1.1584732405463913,-2.300278254624122,-1.5269993440378913
1781533824160884480,3.0457663536071777,-0.020608514547348022,-0.24981838464736938,-1.7709672451019287,-0.28148895502090454,-0.9214950203895569,0.2676015794277191,0.045588135719299316,-0.20084983110427856,0.06919035315513611,-0.10510332106144413,-0.36128515431192215,-0.709417954421188,-0.5959466204564169,1.1719123082086962,-2.3309082899201377,-1.4969855818747202
1781533824170918400,3.055800437927246,-0.1294092983007431,-0.24666281044483185,-1.733899474143982,-0.264547735452652,-0.9265559911727905,0.26741015911102295,-0.017968684434890747,-0.34447044134140015,0.044799864292144775,-0.1113674927300775,-0.3556760403763872,-0.7121794961823094,-0.5948883080268883,1.1851513385222,-2.361575343252606,-1.4663817234539989
1781533824180953600,3.065835475921631,-0.03418051451444626,-0.24061208963394165,-1.650046944618225,-0.24815641343593597,-0.9310849905014038,0.26739266514778137,-0.012280553579330444,-0.22861331701278687,0.04005664587020874,-0.11741313119706498,-0.350337868296969,-0.7148144542676341,-0.5937320141030041,1.197375813266376,-2.3934893361498046,-1.4347103592080215
1781533824190987520,3.075869560241699,-0.08604717999696732,-0.24197456240653992,-1.6780370473861694,-0.23197120428085327,-0.9352551102638245,0.26737087965011597,-0.013374865055084229,-0.006395280361175537,-0.025290250778198242,-0.12331740857370783,-0.34503977971060273,-0.7173792538340894,-0.5925431437105502,1.2089791650726827,-2.4269687174459618,-1.4013863800049338
1781533824201021440,3.0859034061431885,-0.08827278017997742,-0.30023521184921265,-1.7121299505233765,-0.21526673436164856,-0.9393264651298523,0.2670694589614868,-0.01892516016960144,0.1853744387626648,-0.059900879859924316,-0.12951323873304882,-0.33966738360135607,-0.7198338698255065,-0.5913472822739405,1.2206614376353517,-2.4631840088030756,-1.3656760791601072
1781533824211056384,3.0959384441375732,0.0108207818120718,-0.29384496808052063,-1.709302306175232,-0.19831079244613647,-0.9429510235786438,0.2674247622489929,0.0030593574047088623,0.17250436544418335,-0.07672050595283508,-0.1357155829175652,-0.3343516137486066,-0.7224412684632956,-0.5898040342863609,1.231385542407584,-2.503516827983789,-1.3260260215091497
1781533824221090560,3.1059725284576416,-0.11064492911100388,-0.3307710289955139,-1.728004813194275,-0.18118517100811005,-0.9463477730751038,0.26757732033729553,0.01986926794052124,-0.0056174397468566895,-0.04495158791542053,-0.14199323136217548,-0.32898888367487666,-0.7249517094408601,-0.5882594555787339,1.2417402234619486,-2.546379779767862,-1.2839310152804475
1781533824231124480,3.116006374359131,-0.15497669577598572,-0.38991835713386536,-1.6947156190872192,-0.16390272974967957,-0.9496873021125793,0.266888827085495,0.03510333597660065,-0.15706300735473633,0.08174389600753784,-0.1486081448782093,-0.32372794276189915,-0.727079521218835,-0.5869166060907954,1.2522360021962196,-2.590852803534245,-1.24090374919761
1781533824241159424,3.1260414123535156,-0.07660360634326935,-0.3418853282928467,-1.6250883340835571,-0.14705803990364075,-0.9525865912437439,0.2663693428039551,-0.007589772343635559,-0.23559999465942383,0.13096949458122253,-0.155039296989607,-0.3186710080777275,-0.729131986601794,-0.585472563927759,1.2616268687780956,-2.6371514331950716,-1.1961618461949524
1781533824251193600,3.136075496673584,-0.013281891122460365,-0.3136819005012512,-1.596626877784729,-0.13081668317317963,-0.9549413323402405,0.2664095461368561,-0.06829525530338287,-0.14718574285507202,0.05390298366546631,-0.16099571005440808,-0.3136875457605095,-0.7313035567174453,-0.5838455446130306,1.2694620901954214,-2.685141902073102,-1.1492167901076789
1781533824261227264,3.1461093425750732,0.10051657259464264,-0.3504692018032074,-1.5694119930267334,-0.11474330723285675,-0.9567981362342834,0.26715394854545593,-0.05842868238687515,0.026088356971740723,0.004986494779586792,-0.16680423843490733,-0.3088865816036797,-0.7335980195141435,-0.5818929102738326,1.2757826130769305,-2.735914484322879,-1.0996331947094702
1781533824271262464,3.156144380569458,0.14239905774593353,-0.3570203185081482,-1.5898711681365967,-0.09862209111452103,-0.9581249356269836,0.2688317596912384,-0.030772455036640167,0.07496136426925659,-0.04017874598503113,-0.17249702863175953,-0.30420618450832887,-0.7361212386119395,-0.5795075239680009,1.2803806132239204,-2.789982455965056,-1.0468593441094212
1781533824281296384,3.1661784648895264,0.026327837258577347,-0.40219125151634216,-1.6145107746124268,-0.08221665024757385,-0.9593201875686646,0.2700839638710022,-0.020703889429569244,0.06024169921875,-0.07271155714988708,-0.17838443075895982,-0.2994612645428917,-0.7384882783356704,-0.5771802763181564,1.2845843496390055,-2.84609360469062,-0.9922635146956367
1781533824291330560,3.1762125492095947,-0.017735227942466736,-0.47606587409973145,-1.6189500093460083,-0.06540100276470184,-0.9605631232261658,0.27026063203811646,0.030717797577381134,0.028663277626037598,-0.026623666286468506,-0.18473412223059776,-0.2947095475544422,-0.7404570183230788,-0.5751024415211535,1.289020262243517,-2.904164679287919,-0.9363901155532918
1781533824301365248,3.1862473487854004,-0.05867200717329979,-0.479387104511261,-1.587897777557373,-0.04867579787969589,-0.9615197777748108,0.27038896083831787,0.06761197745800018,-0.06033068895339966,0.02521952986717224,-0.1911413223956837,-0.2901202658643641,-0.7423103924089933,-0.5729489078329091,1.2924815696371321,-2.9634789974233566,-0.8796621088077059
1781533824311399424,3.1962814331054688,-0.1664501279592514,-0.5436227321624756,-1.5917487144470215,-0.031870875507593155,-0.9625426530838013,0.26925015449523926,0.07595352828502655,-0.07647395133972168,0.08621856570243835,-0.1978253598965889,-0.2854865094877264,-0.7437220831252038,-0.571174191427532,1.296229233465349,-3.0237718769376443,-0.8222960834423299
1781533824321433600,3.206315517425537,-0.03218181058764458,-0.4421629309654236,-1.5170071125030518,-0.015546166338026524,-0.9631398320198059,0.2685517966747284,0.06023915112018585,-0.1540476679801941,0.17064189910888672,-0.2042556024254143,-0.28105309015786706,-0.7451745170050709,-0.5692132867203963,1.2984403477322308,-3.083768294536153,-0.7652257081152103
1781533824331468544,3.216350555419922,-0.03600424900650978,-0.4036373794078827,-1.4847623109817505,7.304996688617393e-05,-0.9633597731590271,0.2682129442691803,-0.017437554895877838,-0.17012423276901245,0.10585632920265198,-0.21013089001188304,-0.27656974045397437,-0.7467366638608777,-0.567220096237401,1.299259267827201,3.1413202954777097,-0.7092060725243247
1781533824341502208,3.226384162902832,-0.014748760499060154,-0.4604934751987457,-1.467746376991272,0.015481315553188324,-0.9633209109306335,0.2679046392440796,-0.024880729615688324,0.012973189353942871,0.036660730838775635,-0.2159581244883214,-0.27221530228576246,-0.7482320110934335,-0.5651633933779637,1.2991143496637945,3.083870179516799,-0.6540051307739412
1781533824351536384,3.2364182472229004,0.11319348961114883,-0.44500306248664856,-1.4694854021072388,0.030891796573996544,-0.96284419298172,0.2682855725288391,-0.003990570083260536,0.12583845853805542,-0.003926962614059448,-0.22177040233194895,-0.2680639291045694,-0.7498563308542692,-0.5627390533023419,1.2973434947654934,3.026952321027394,-0.5997080824978335
1781533824361571328,3.246453285217285,0.013372622430324554,-0.4624781906604767,-1.49614679813385,0.04643481597304344,-0.9620422124862671,0.2689216732978821,-0.0028557293117046356,0.05742478370666504,-0.05233845114707947,-0.227520890255998,-0.26382118359092976,-0.7515711636318962,-0.5601549102067972,1.294389465645265,2.970608229362446,-0.5458147954379066
1781533824371605248,3.2564871311187744,0.01642380654811859,-0.47197380661964417,-1.4178980588912964,0.061869408935308456,-0.9612795114517212,0.26854005455970764,0.030400488525629044,-0.08260470628738403,0.06091246008872986,-0.2334741023315821,-0.2596434114933414,-0.7528979483790385,-0.5578707661917506,1.291608374921742,2.9151522408432538,-0.4932126319211661
1781533824381639168,3.2665212154388428,-0.01656210795044899,-0.3341597616672516,-1.406853437423706,0.07641977816820145,-0.960227370262146,0.26855799555778503,0.04194263368844986,-0.289772629737854,0.10390901565551758,-0.23881221042893538,-0.2554615533110823,-0.7543330824075156,-0.5555985209993324,1.2878153737175941,2.864364236473985,-0.4443916197694466
1781533824391674368,3.2765562534332275,-0.18075397610664368,-0.44470757246017456,-1.388994574546814,0.09096131473779678,-0.9593485593795776,0.2671632468700409,0.024959713220596313,-0.2023792266845703,0.05192849040031433,-0.2443133712765758,-0.25108522182995907,-0.7553395499633836,-0.5538314551811424,1.2846848439939038,2.8134320875454204,-0.39534679950361307
1781533824401708032,3.286590099334717,-0.10935383290052414,-0.46017229557037354,-1.3481062650680542,0.10536220669746399,-0.958448588848114,0.2650947868824005,0.05009434372186661,0.033765971660614014,0.07076632976531982,-0.2500730407696215,-0.24697327333672606,-0.7560103170342969,-0.552192126070699,1.2815131394750292,2.7632855783004238,-0.34789260192091503
1781533824411742208,3.296624183654785,-0.03351099416613579,-0.33344414830207825,-1.3173030614852905,0.11922571063041687,-0.9571003913879395,0.26409071683883667,-0.025948747992515564,-0.022361159324645996,0.08857032656669617,-0.2553441130184217,-0.24294886267796084,-0.7569816460943968,-0.5502308256161896,1.2768239079759678,2.7175274280529167,-0.30430321743323585
1781533824421776384,3.3066582679748535,-0.03531821817159653,-0.27812471985816956,-1.284774899482727,0.13250592350959778,-0.9555422067642212,0.2634037733078003,-0.08337262272834778,-0.10520315170288086,0.0667201578617096,-0.2601132204986372,-0.2387947789801832,-0.7580758115657937,-0.5483058746275733,1.2714932085986401,2.675506031639403,-0.263526866799912
1781533824431811072,3.316693067550659,0.05431419610977173,-0.2930687665939331,-1.2528362274169922,0.145447239279747,-0.9537683129310608,0.2630036175251007,-0.021454334259033203,-0.03700000047683716,0.04822978377342224,-0.2647026360558219,-0.23474868499963653,-0.7592067331426668,-0.5462880483335397,1.26553458466711,2.6364309148000187,-0.22563087957797073
1781533824441845248,3.3267271518707275,0.10978890210390091,-0.26240992546081543,-1.2473005056381226,0.1580757349729538,-0.9516227841377258,0.2634885907173157,0.036855295300483704,-0.03128737211227417,0.0189974308013916,-0.26904337979241294,-0.23087758980820686,-0.7605523206161968,-0.5439406306449142,1.2584747660217694,2.601221774304506,-0.19156209280152472
1781533824451879168,3.336761236190796,-0.00937210489064455,-0.30011671781539917,-1.2803962230682373,0.1708676666021347,-0.9493817090988159,0.263588547706604,0.046219125390052795,-0.05716443061828613,-0.028572648763656616,-0.2734891071499266,-0.22689913427138378,-0.7617815060524193,-0.5416729024525966,1.251261623563863,2.566458319469483,-0.15795594108816408
1781533824461914368,3.3467962741851807,-0.004372286144644022,-0.3112061023712158,-1.2392154932022095,0.1837170571088791,-0.9471921920776367,0.26282134652137756,0.05293150246143341,-0.05618000030517578,0.024883031845092773,-0.2781357417001401,-0.22288188613664228,-0.762715108224599,-0.539657166722997,1.2443633329714845,2.531525540527438,-0.12442127506239652
1781533824471948032,3.35683012008667,-0.030922401696443558,-0.2690655589103699,-1.226711630821228,0.1961422711610794,-0.9448686242103577,0.26220545172691345,0.03479953110218048,-0.11316066980361938,0.06157079339027405,-0.28256351580584294,-0.21893862555022858,-0.7636547630299353,-0.5376385393413341,1.2371930819370585,2.4993419702255903,-0.09344173629835535
1781533824481982208,3.3668642044067383,-0.026033107191324234,-0.268048495054245,-1.185616135597229,0.20830927789211273,-0.9425132870674133,0.2612967789173126,0.0033606290817260742,-0.09671705961227417,0.07767713069915771,-0.2868959217672947,-0.21496958607474273,-0.7644844430770324,-0.5357633572912165,1.2300732991389929,2.4685531815168997,-0.0636790409233506
1781533824492017152,3.376899242401123,0.05412404611706734,-0.23788967728614807,-1.1333452463150024,0.21989259123802185,-0.9399830102920532,0.2609196901321411,-0.015440091490745544,-0.09283852577209473,0.10829731822013855,-0.29094544000619593,-0.21122974440335032,-0.7654030549585567,-0.5337516892790323,1.2225805073841112,2.441317008559936,-0.037423011021168025
