time,seconds_elapsed,rotationRateX,rotationRateY,rotationRateZ,gravityX,gravityY,gravityZ,accelerationX,accelerationY,accelerationZ,quaternionW,quaternionX,quaternionY,quaternionZ,pitch,roll,yaw
1781555978874274048,0.06959795951843262,-0.08804161101579666,-0.06411769241094589,0.0057145580649375916,-0.12068892270326614,-0.5274244546890259,-0.8409861326217651,0.044944293797016144,0.010822892189025879,-0.008379101753234863,0.9210343719469248,0.28148104014792136,0.01659413208007862,0.2686796522114981,0.5555662093982618,-0.14253563814014333,0.6083857051343705
1781555978884308992,0.07963299751281738,-0.02311001904308796,-0.09256451576948166,-0.008758656680583954,-0.12138353288173676,-0.5269492268562317,-0.8411840200424194,0.038558825850486755,0.03297644853591919,0.0013402700424194336,0.921122245481595,0.2813318626387151,0.016136169705647574,0.2685623715191137,0.5550069536318741,-0.14331156165962358,0.6082785920473546
1781555978894344192,0.08966803550720215,0.0199652798473835,-0.052149444818496704,-0.022081652656197548,-0.12193647027015686,-0.5269553065299988,-0.8411002159118652,0.005756057798862457,0.029625654220581055,0.00742107629776001,0.9211508328184442,0.28142489052073194,0.015808873659923298,0.26838632654996497,0.5550141374963131,-0.14396956830889399,0.6080985179718886
1781555978904378880,0.09970283508300781,0.0301462784409523,-0.0007839947938919067,-0.02204037457704544,-0.12201251089572906,-0.5272202491760254,-0.8409231305122375,-0.024365052580833435,0.00819253921508789,0.009334385395050049,0.921145663442498,0.2815843851547535,0.015769118413200302,0.2682389847218396,0.555325900488076,-0.14408802749353355,0.6078648351915695
1781555978914414848,0.10973882675170898,0.015865609049797058,0.027143511921167374,-0.010708623565733433,-0.121809221804142,-0.5274354219436646,-0.8408176302909851,-0.028138883411884308,-0.004806339740753174,0.011639833450317383,0.9211336737222342,0.28167137612382975,0.01588749305364311,0.26818172696389636,0.555579171124989,-0.14386906135890248,0.6077142030055287
1781555978924450048,0.11977386474609375,0.013363568112254143,0.029621582478284836,-0.005622252356261015,-0.12151256948709488,-0.5275685787200928,-0.8407770991325378,-0.01918872445821762,-0.007892787456512451,0.012163758277893066,0.9211219700911895,0.2816977568933906,0.016057265179989007,0.26818455054749724,0.5557359085841709,-0.14353031675005753,0.6076419346533182
1781555978934484992,0.12980890274047852,-0.0033091509249061346,0.01924324408173561,0.0038199853152036667,-0.12128959596157074,-0.5276209115982056,-0.8407764434814453,-0.004107140004634857,-0.009549498558044434,0.0008411407470703125,0.9211110156297085,0.28169084506865,0.01618783596434574,0.26822167472073744,0.5557975112674949,-0.1432706314485011,0.607653007146113
1781555978944520960,0.1398448944091797,-0.02745203673839569,0.004828351084142923,0.007761197164654732,-0.12123989313840866,-0.5274972319602966,-0.8408612012863159,0.006753206253051758,-0.00794893503189087,-0.003987371921539307,0.9211216579483328,0.28161461452621883,0.0162052713351722,0.26826368354615004,0.5556518700310106,-0.1431984886626818,0.6076987826664416
1781555978954555904,0.14987993240356445,-0.044689882546663284,-0.0031282417476177216,0.015020974911749363,-0.12130635231733322,-0.527185320854187,-0.8410472273826599,0.0045308396220207214,-0.008398175239562988,-0.010515272617340088,0.9211582320161643,0.2814533960407842,0.01613626532412145,0.2683116690008517,0.5552847899616405,-0.14324465754806612,0.6077583355869121
1781555978964591104,0.15991497039794922,-0.052571505308151245,0.0004433230496942997,0.02165730483829975,-0.12143384665250778,-0.5267645716667175,-0.8412923812866211,0.0005232095718383789,-0.004119157791137695,-0.006119668483734131,0.921199268660908,0.2812415317166256,0.016031340334800838,0.26839912325720766,0.5547897324232726,-0.14335193019572137,0.6079017089834277
1781555978974626048,0.16995000839233398,-0.0358886681497097,0.007104687858372927,0.016975201666355133,-0.12149512022733688,-0.526332676410675,-0.8415538668632507,-0.0016890764236450195,0.007015109062194824,0.013413608074188232,0.9212414486376684,0.2810130388776365,0.01596092543165404,0.26849795450850517,0.5542816869151923,-0.14337933026037736,0.6080433303646179
1781555978984662016,0.17998600006103516,0.008201830089092255,0.018100347369909286,0.010524493642151356,-0.1214606761932373,-0.5262097716331482,-0.8416356444358826,-0.0027611181139945984,0.01597118377685547,0.027106285095214844,0.9212380562513709,0.28093889887873547,0.01598480300545422,0.2685856140968057,0.5541371723173363,-0.14332549460661462,0.6081940767401314
1781555978994697216,0.19002103805541992,0.016932737082242966,0.01872831955552101,0.006251451093703508,-0.12134695053100586,-0.5263232588768005,-0.8415811061859131,-0.0028748586773872375,0.016084611415863037,0.027051687240600586,0.9212047152864985,0.2809820421032875,0.0160791001085877,0.2686492549657447,0.5542705976694061,-0.14320227303335087,0.6083160163928693
1781555979004731904,0.20005583763122559,0.02598216012120247,0.019277730956673622,-0.0041825477965176105,-0.1211877167224884,-0.5264993906021118,-0.8414939045906067,0.0011925995349884033,0.020029664039611816,0.02911597490310669,0.9211711597989611,0.2810528574027635,0.016197157649008642,0.2686833187912888,0.5544777706114108,-0.1430315444312816,0.6083710528111088
1781555979014767872,0.21009182929992676,0.017636612057685852,0.014824126847088337,-0.00873841717839241,-0.12099778652191162,-0.5267148613929749,-0.8413863778114319,0.005824439227581024,0.021008074283599854,0.017991602420806885,0.9211460093858471,0.28114123530873236,0.01632227542268667,0.2686695599451136,0.5547312272176534,-0.14282841389505785,0.6083197309356747
1781555979024802816,0.22012686729431152,-0.023081524297595024,0.00217597559094429,-0.006140237208455801,-0.1208757683634758,-0.5267031192779541,-0.8414112329483032,0.005244657397270203,0.0041353702545166016,-0.0030406713485717773,0.9211582956518906,0.2811160481514709,0.01637511443847601,0.2686504600713679,0.5547174309934232,-0.14268216687418112,0.6082314085410302
1781555979034838016,0.2301619052886963,-0.04243391752243042,0.008180205710232258,-0.015039456076920033,-0.12075939029455185,-0.5264283418655396,-0.8415999412536621,0.0021528154611587524,-0.0007628798484802246,-0.0023941993713378906,0.9212205245396602,0.28094811344121845,0.016376700349657033,0.2686127539005033,0.5543941813827874,-0.1425151214770599,0.6080469682627007
1781555979044872960,0.24019694328308105,-0.03664367273449898,0.022795632481575012,-0.022302430123090744,-0.12052120268344879,-0.5261009931564331,-0.8418387174606323,-0.005226485431194305,0.00397568941116333,-0.0009652376174926758,0.9213037985037226,0.2807328638325436,0.0164224119718887,0.26854935808916575,0.5540092043217913,-0.14219799467426664,0.6077512582889144
1781555979054908928,0.2502329349517822,0.00727265328168869,0.03436267375946045,-0.020604930818080902,-0.1201581060886383,-0.525985836982727,-0.8419625759124756,-0.009160131216049194,0.01606762409210205,0.00045561790466308594,0.9213546094755235,0.2806141237283829,0.016565955619264786,0.2684903101433785,0.5538738253082058,-0.1417547482226757,0.6074664918445666
1781555979064944128,0.260267972946167,0.03290317952632904,0.042111143469810486,-0.02294265292584896,-0.11973674595355988,-0.5261982679367065,-0.8418898582458496,-0.009810373187065125,0.018874049186706543,0.0029006004333496094,0.9213481317486056,0.280665243406347,0.01679578217714219,0.2684448341424556,0.5541236376942728,-0.14127629027255195,0.6072617530728455
1781555979074979072,0.27030301094055176,0.032074935734272,0.055641066282987595,-0.0255229901522398,-0.11921797692775726,-0.5264990925788879,-0.8417754173278809,-0.006606005132198334,0.018259286880493164,0.01282644271850586,0.9213293745323542,0.28074944316659917,0.017089363317793895,0.2684027412707533,0.5544774133756137,-0.14069113263432967,0.6070482639001483
1781555979085015040,0.28033900260925293,0.030164387077093124,0.057086095213890076,-0.021207071840763092,-0.11862855404615402,-0.5268140435218811,-0.8416615724563599,-0.006066270172595978,0.010395586490631104,0.009416699409484863,0.9213081416160325,0.2808302842519966,0.01742302590126082,0.26836939102796614,0.5548479518103804,-0.140023309999038,0.6068310183600559
1781555979095049984,0.2903740406036377,0.0042206705547869205,0.048330288380384445,-0.011772822588682175,-0.11808779090642929,-0.526989221572876,-0.8416279554367065,-0.0005645602941513062,-0.0061376094818115234,-0.001481175422668457,0.9213000226487549,0.28084168405487797,0.01771895456243266,0.26836602758313716,0.5550540430651559,-0.1393987653036223,0.6066659408921338
1781555979105084928,0.30040884017944336,-0.02641713246703148,0.019579067826271057,-0.0017438909271731973,-0.11775236576795578,-0.5268718004226685,-0.8417484760284424,0.01042204350233078,-0.018065333366394043,-0.005709409713745117,0.9213240973724403,0.2807244721867488,0.017875401705321113,0.2683956331521147,0.5549158761159115,-0.13898825616672195,0.6065832871204956
1781555979115120896,0.31044483184814453,-0.03088165633380413,-0.007051744032651186,0.008109805174171925,-0.11771651357412338,-0.5266263484954834,-0.8419070839881897,0.013941481709480286,-0.019699394702911377,-0.009197652339935303,0.9213586019574607,0.280584017710026,0.017862225062330338,0.26842502712870075,0.5546270969087388,-0.13892063804035842,0.6065809635614214
1781555979125155840,0.3204798698425293,-0.04105067253112793,-0.012737061828374863,0.010894406586885452,-0.11788295954465866,-0.5262963771820068,-0.8420901298522949,0.011361345648765564,-0.015314340591430664,-0.012524127960205078,0.9213971909940638,0.280428792232803,0.017737528805061593,0.2684631250561839,0.5542389697203327,-0.13908469179435967,0.606652412937788
1781555979135191040,0.33051490783691406,-0.02587438002228737,-0.02027367241680622,0.012046489864587784,-0.11812430620193481,-0.5259259343147278,-0.8422877192497253,0.0047972723841667175,-0.003126800060272217,-0.007870972156524658,0.9214385495136785,0.2802631417729432,0.01757027231579218,0.2685050854004814,0.5538034097412331,-0.139333504660055,0.6067504822716977
1781555979145225984,0.34054994583129883,-0.006785375066101551,-0.009622626006603241,0.007169442716985941,-0.11836167424917221,-0.5257238149642944,-0.8423805236816406,-0.005661755800247192,0.003964781761169434,-0.0058249831199646,0.9214538808001919,0.2801890985335602,0.017429776183061626,0.2685385392575401,0.5535657602749746,-0.1395946851669426,0.6068649719475736
1781555979155261952,0.3505859375,0.006011380348354578,0.005216240417212248,-0.004049922339618206,-0.11841794103384018,-0.5256786942481995,-0.842400848865509,-0.01155642420053482,0.011259138584136963,0.005044221878051758,0.9214565796243506,0.28017300700058567,0.01739751721917687,0.26854845714070175,0.553512715696853,-0.13965687295043633,0.606897069568856
1781555979165297152,0.36062097549438477,0.046108998358249664,0.01171488594263792,-0.005060059018433094,-0.11834952980279922,-0.5259008407592773,-0.8422717452049255,-0.015927821397781372,0.01212221384048462,0.006669938564300537,0.9214240532390353,0.2802839467641906,0.017465022362076244,0.2685400163666715,0.5537739163429075,-0.13959834066658783,0.606902206155529
1781555979175332096,0.37065601348876953,0.04103034734725952,0.023750510066747665,-0.003272278932854533,-0.1181710809469223,-0.5263136625289917,-0.8420389294624329,-0.013268135488033295,0.005149662494659424,0.009092211723327637,0.9213620498241615,0.2804818639643154,0.017619505095967224,0.2685360195135008,0.5542592991947015,-0.139428613312916,0.606918531122296
1781555979185368064,0.3806920051574707,0.028263956308364868,0.0341847725212574,-0.004006512463092804,-0.11785904318094254,-0.5266476273536682,-0.841873824596405,-0.011108241975307465,0.005651593208312988,0.01597660779953003,0.9213143398081938,0.2806156180300026,0.017831708050919097,0.2685457413853391,0.5546521662179523,-0.13909210665703078,0.6068991595237839
1781555979195403008,0.39072704315185547,0.013887944631278515,0.026590637862682343,0.006342531181871891,-0.1175367459654808,-0.5268768072128296,-0.8417754769325256,-0.008180424571037292,0.00226438045501709,0.011285364627838135,0.9212760005193469,0.28068980502074287,0.01804121760370845,0.2685858612264492,0.5549217499609356,-0.13873260682392616,0.6069192808778433
1781555979205437952,0.40076184272766113,-0.03804263100028038,0.014331309124827385,0.01828893832862377,-0.11738363653421402,-0.5267917513847351,-0.8418500423431396,-0.00404580682516098,-0.009218990802764893,0.008857488632202148,0.9212746502941177,0.28061794347750824,0.01812584393544327,0.2686595751113047,0.5548217046680848,-0.13854207722701933,0.6070054564161108
1781555979215472896,0.4107968807220459,-0.08343594521284103,0.011714087799191475,0.028647836297750473,-0.11737401783466339,-0.526231050491333,-0.8422020077705383,0.0005222111940383911,-0.013228178024291992,0.01717454195022583,0.9213313566586471,0.28030718844142416,0.018079822164900398,0.2687926661797248,0.5541621798418216,-0.13847371961609453,0.6071696831567674
1781555979225508864,0.42083287239074707,-0.13039812445640564,0.024334274232387543,0.03387056291103363,-0.11739250272512436,-0.5252693891525269,-0.8427994847297668,-0.004570983350276947,-0.006331503391265869,0.01926743984222412,0.92144061737595,0.27978091701351254,0.017969074984160865,0.26897362203778824,0.5530316937341218,-0.13839831119896742,0.6073616279098232
1781555979235544064,0.43086791038513184,-0.1853514015674591,0.048895277082920074,0.0314532108604908,-0.117301344871521,-0.5238805413246155,-0.8436762690544128,-0.006813645362854004,0.0017552971839904785,0.028475463390350342,0.921612325630743,0.2790035763030732,0.017857028619087976,0.269200606264253,0.5514003109378903,-0.13815031951578424,0.6075228550654617
1781555979245579008,0.4409029483795166,-0.31328460574150085,0.07224880158901215,0.035165924578905106,-0.11695321649312973,-0.5217829942703247,-0.8450233340263367,-0.008977577090263367,-9.810924530029297e-05,0.03942030668258667,0.9219024351775358,0.27779972246299395,0.017766219801391713,0.2694578952529596,0.5489396696531106,-0.1375286572362191,0.6075081210255654
1781555979255614976,0.4509389400482178,-0.5330451726913452,0.11503848433494568,0.05240057036280632,-0.1163952574133873,-0.5182241797447205,-0.8472872972488403,-0.007979117333889008,-0.018732547760009766,0.04867285490036011,0.9224102596929685,0.2757671315690716,0.01757344675558855,0.2698202560298542,0.5447732846462778,-0.13651951200171356,0.6073429342128953
1781555979265649920,0.46097397804260254,-1.0292656421661377,0.16258575022220612,0.06851962208747864,-0.11553903669118881,-0.5116976499557495,-0.8513614535331726,-0.009521998465061188,-0.05661588907241821,0.04797095060348511,0.9233573068712239,0.2720788642744125,0.017099019312962465,0.27035551515620715,0.537159550994246,-0.13488684730148806,0.6068465908220623
1781555979275685120,0.4710090160369873,-1.974797248840332,0.24990761280059814,0.08924620598554611,-0.1141931563615799,-0.4989902973175049,-0.859050989151001,-0.011829182505607605,-0.11380267143249512,0.05741524696350098,0.9252162611271457,0.2649915484103006,0.015936957527677962,0.271109440323412,0.5224332646932882,-0.13215466126475295,0.6054628949690816
1781555979285720064,0.48104405403137207,-3.3890023231506348,0.28103089332580566,0.12696562707424164,-0.11230619996786118,-0.47577372193336487,-0.8723684549331665,-0.018217481672763824,-0.21784505248069763,0.076027512550354,0.9285021456206997,0.25225885366771167,0.013462837903093378,0.27215447391419023,0.4958434785114589,-0.1280329146250043,0.6027003592355903
1781555979295756032,0.49108004570007324,-4.888541221618652,0.13811223208904266,0.22348497807979584,-0.11118652671575546,-0.4388786852359772,-0.8916406631469727,-0.020847775042057037,-0.3888190686702728,0.059563636779785156,0.9332996677652335,0.23260692755766205,0.008584469941968986,0.27344476229409037,0.45435038034994907,-0.12405842543551439,0.5987340767872497
1781555979305790976,0.5011148452758789,-6.16205358505249,0.015370873734354973,0.3002423346042633,-0.11165813356637955,-0.38832613825798035,-0.9147323369979858,-0.001974068582057953,-0.5683693885803223,0.04508817195892334,0.9390381597522441,0.2064772157911102,0.0009933990012785882,0.2749063984892952,0.3988145020272097,-0.1214655476957367,0.5941666140913547
1781555979315825920,0.5111498832702637,-7.209010124206543,0.02002088725566864,0.2909542918205261,-0.11261797696352005,-0.32568249106407166,-0.9387481808662415,0.02076006680727005,-0.6125651597976685,0.09154969453811646,0.945028497488851,0.17479635275207478,-0.0084944140382828,0.2762158509679369,0.33173347938997005,-0.11939552567910976,0.5887347020520434
1781555979325861888,0.5211858749389648,-7.861378192901611,0.01496274396777153,0.22087667882442474,-0.11324895173311234,-0.2531646192073822,-0.9607717394828796,0.02293217182159424,-0.4876953959465027,0.14924830198287964,0.9506296088208963,0.13873496355273904,-0.01915030863534925,0.27692820138037744,0.2559500335014032,-0.1173314927627658,0.5820463831377338
1781555979335897088,0.5312209129333496,-7.936978340148926,0.010738038457930088,0.15639355778694153,-0.11356190592050552,-0.17576809227466583,-0.9778595566749573,0.016821183264255524,-0.32816869020462036,0.19090276956558228,0.9551354840812274,0.10077660287144179,-0.030237527792137956,0.27685013226569344,0.17668595256749084,-0.1156152370663365,0.574497840725245
1781555979345932032,0.5412559509277344,-7.676879405975342,-0.0712582916021347,0.15356527268886566,-0.11397397518157959,-0.09835704416036606,-0.9886029958724976,0.02959287166595459,-0.18710438907146454,0.21301400661468506,0.9581416664006224,0.06321794087408991,-0.04125540844350963,0.27616311357411455,0.09851632282309732,-0.1147811780857709,0.5669086615043378
1781555979355968000,0.5512919425964355,-7.119281768798828,-0.15926790237426758,0.17088061571121216,-0.11535483598709106,-0.024363135918974876,-0.993025541305542,0.03506308048963547,-0.049046896398067474,0.211836576461792,0.9604118219858601,0.027498088295877972,-0.05225983871251554,0.2722534455640866,0.02436554667204401,-0.1156466899298165,0.5538682261827904
1781555979366002944,0.5613269805908203,-6.357447624206543,-0.20443671941757202,0.15253490209579468,-0.11718641221523285,0.04301246628165245,-0.9921780228614807,0.025862574577331543,0.05540671944618225,0.197485089302063,0.9605149682958627,-0.004790642523108474,-0.06235404550587796,0.27110910526482146,-0.043025740425132235,-0.11756560509201419,0.5476626426769643
1781555979376038144,0.5713620185852051,-5.57921838760376,-0.2673472464084625,0.10105998814105988,-0.11937198787927628,0.10239670425653458,-0.987555205821991,0.005953408777713776,0.13602188229560852,0.17230862379074097,0.9596974290715331,-0.033242198003233685,-0.07153574763939581,0.2697378690223359,-0.1025764934629796,-0.12029266667308904,0.5418105850263256
1781555979386073088,0.5813970565795898,-4.819284439086914,-0.32538843154907227,0.04928147420287132,-0.12221729755401611,0.15383563935756683,-0.9805088043212891,-0.015569567680358887,0.20534099638462067,0.15961647033691406,0.9582979898984497,-0.05788634921765382,-0.07996727507208108,0.26817776251295894,-0.1544489518990227,-0.1240072223583139,0.5361277237708993
1781555979396109056,0.591433048248291,-4.161698818206787,-0.32990649342536926,-0.0022735935635864735,-0.12532822787761688,0.19770333170890808,-0.9722171425819397,-0.035316288471221924,0.23077870905399323,0.16319620609283447,0.9566009248247321,-0.07895833704618722,-0.08750425955978054,0.26650186300340684,-0.19901445307859933,-0.12820267436390348,0.5305893862737251
1781555979406144000,0.6014678478240967,-3.818559408187866,-0.3129808008670807,-0.04647567495703697,-0.12838175892829895,0.2361150085926056,-0.9632070660591125,-0.056966766715049744,0.2091059535741806,0.14069730043411255,0.9547513290462366,-0.09751978619233899,-0.09426751204979707,0.26467609511982393,-0.23836585733422566,-0.13250475706852669,0.5249673494230881
1781555979416178944,0.6115028858184814,-3.4305694103240967,-0.2796718180179596,-0.05641006678342819,-0.13149145245552063,0.2708854675292969,-0.9535885453224182,-0.06925317645072937,0.14987564086914062,0.1255856156349182,0.9527410040127869,-0.11441711940359706,-0.10057067909340685,0.2628285623510485,-0.2743127606706052,-0.1370270625905804,0.5193997751011189
1781555979426214912,0.6215388774871826,-3.261214256286621,-0.21907451748847961,-0.07162763178348541,-0.13408561050891876,0.3027692139148712,-0.9435845613479614,-0.06289009749889374,0.030620068311691284,0.10812008380889893,0.95063017587225,-0.13008541766398,-0.10623321831582286,0.2609492820003338,-0.30759690632492404,-0.1411573084789107,0.5138870209499298
1781555979436249856,0.6315739154815674,-3.4343957901000977,-0.2450384646654129,-0.12098080664873123,-0.1365107148885727,0.3339763283729553,-0.9326438903808594,-0.05063833296298981,-0.05387076735496521,0.10311508178710938,0.9483274555349114,-0.14559580360753482,-0.111713548996434,0.2588375980264385,-0.34051899198565777,-0.14533755933320083,0.5078724142367121
1781555979446285056,0.6416089534759521,-3.526719570159912,-0.21794001758098602,-0.15683919191360474,-0.13925425708293915,0.3659062385559082,-0.9201743602752686,-0.03896839916706085,-0.0662846565246582,0.11057353019714355,0.9457096724975582,-0.1616216919632908,-0.11743610409635785,0.2563599625887885,-0.37460637027004556,-0.15019496137206165,0.5009130722648167
1781555979456320000,0.6516439914703369,-3.8307301998138428,-0.16922041773796082,-0.1843738853931427,-0.14148426055908203,0.39970821142196655,-0.9056575298309326,-0.02564525604248047,-0.06384703516960144,0.13684344291687012,0.9426561851555,-0.17890448025543867,-0.12314392192196733,0.25343271136443496,-0.41119851639168503,-0.1549700933124456,0.4928981553133562
1781555979466354688,0.6616785526275635,-4.166356563568115,-0.09850496053695679,-0.2176295667886734,-0.1437547504901886,0.4353379011154175,-0.8887156248092651,-0.0198194682598114,-0.06898963451385498,0.11993205547332764,0.939029942396834,-0.19740051676188394,-0.12913255262485002,0.2501612542865004,-0.45041359179940005,-0.16036658524418304,0.4839005342135017
1781555979476389632,0.6717135906219482,-4.619487285614014,-0.10875147581100464,-0.2824532985687256,-0.145885169506073,0.4732497036457062,-0.8687647581100464,-0.011402428150177002,-0.11683493852615356,0.1346338987350464,0.9347384644784461,-0.21749033757983535,-0.13533500970451,0.24626499173452218,-0.4929761085810348,-0.16637033422245306,0.4732599252768219
1781555979486424576,0.681748628616333,-5.06378698348999,-0.11667490750551224,-0.4409867525100708,-0.14860087633132935,0.5144584774971008,-0.8445414900779724,0.0007737278938293457,-0.11158061027526855,0.1482829451560974,0.929560879707256,-0.239829117411724,-0.14216627755049438,0.2412207875612306,-0.5403759997966321,-0.17417166194290287,0.4594473198507915
1781555979496460800,0.6917846202850342,-5.325850009918213,-0.025095591321587563,-0.500590980052948,-0.15163718163967133,0.5576155781745911,-0.8161317706108093,0.0041610002517700195,-0.06100296974182129,0.1472017765045166,0.923459909117416,-0.2639018515548798,-0.14929807624007327,0.23513361959190385,-0.5915105363842676,-0.18370505509141213,0.44253240333558436
1781555979506495488,0.7018194198608398,-5.4251885414123535,0.08001777529716492,-0.4700298607349396,-0.15434697270393372,0.6001595854759216,-0.7848473787307739,0.02791266143321991,0.009413719177246094,0.1274072527885437,0.9165544209637205,-0.28840767135663686,-0.15619640156901696,0.2288046422564451,-0.6437005937287479,-0.19418060335458429,0.4243415231820204
1781555979516530432,0.7118544578552246,-5.379191875457764,0.1111646443605423,-0.5222824215888977,-0.15686659514904022,0.6408606767654419,-0.7514588236808777,0.06539013981819153,0.11179429292678833,0.09566658735275269,0.9090347011424422,-0.3127133442529647,-0.16272966251980314,0.222227851813722,-0.6956189315735619,-0.2057941260499317,0.40468659833538734
1781555979526566400,0.7218904495239258,-5.0889668464660645,0.06657480448484421,-0.7151182293891907,-0.1602233499288559,0.6783367991447449,-0.7170688509941101,0.0826629251241684,0.24970275163650513,0.03841894865036011,0.9013037511946744,-0.3360109305354266,-0.1690036489893539,0.21490952492957696,-0.745496655262425,-0.21983108861506243,0.38189000433657566
1781555979536601600,0.7319254875183105,-4.47564697265625,0.04197864979505539,-0.8834336996078491,-0.16529138386249542,0.7110213041305542,-0.6834672689437866,0.08693751692771912,0.4038620591163635,-0.06120741367340088,0.8938224136303492,-0.3571942909565624,-0.17515309591426506,0.20691840159032587,-0.7909496004039082,-0.23728633495133553,0.3555368887973139
1781555979546636544,0.7419605255126953,-3.892296552658081,-0.02162642404437065,-1.04491126537323,-0.17242911458015442,0.7372366189956665,-0.6532613635063171,0.10994437336921692,0.5285714864730835,-0.18339329957962036,0.8871313102490874,-0.3748350055127837,-0.18129544757566923,0.1990697588234893,-0.8289711299304066,-0.2580654783311859,0.3274284054660841
1781555979556671744,0.7519955635070801,-3.140333890914917,-0.15088948607444763,-1.2856477499008179,-0.1814621388912201,0.7577586770057678,-0.6267961263656616,0.1286209523677826,0.604301929473877,-0.2699781656265259,0.8815054359532384,-0.3893376964762336,-0.1871312170417002,0.1906471405785183,-0.8598714022130047,-0.2818029976038718,0.29609025767444286
1781555979566707712,0.7620315551757812,-2.185554027557373,-0.2889400124549866,-1.4736746549606323,-0.19354072213172913,0.771989107131958,-0.6054542660713196,0.12559334933757782,0.5907732844352722,-0.3763114809989929,0.877188383156516,-0.39981146955190877,-0.19345195394612122,0.18239458121415575,-0.8819645866239699,-0.3093963143250219,0.2630790440458943
1781555979576742656,0.772066593170166,-2.3094899654388428,-0.20437493920326233,-1.6198387145996094,-0.2064814269542694,0.7814093232154846,-0.5888674855232239,0.1587214320898056,0.4818047881126404,-0.4212033152580261,0.8741508310988265,-0.40729077887619575,-0.19919957898647953,0.17405197269997755,-0.896921068228657,-0.3372462654090631,0.22961946270557881
1781555979586777600,0.7821016311645508,-1.4168697595596313,-0.761762797832489,-1.764352798461914,-0.22298552095890045,0.788601815700531,-0.5730485320091248,0.21210601925849915,0.3815793991088867,-0.49851518869400024,0.8712639084878542,-0.4133082124495233,-0.20652376280763432,0.1656002411776945,-0.9085318641801833,-0.3710933643791253,0.192844206595684
1781555979596813568,0.792137622833252,-1.5154932737350464,-0.9851563572883606,-1.6004115343093872,-0.24134819209575653,0.7931349277496338,-0.559185266494751,0.22106924653053284,0.2034471035003662,-0.401660680770874,0.8685730819589434,-0.41727105558509114,-0.21515632813972604,0.1586616190680222,-0.9159391404538153,-0.40745338369607176,0.15838575898121077
1781555979606848512,0.8021724224090576,-1.5457899570465088,-1.022032618522644,-1.625030279159546,-0.25969207286834717,0.7975574731826782,-0.5444834232330322,0.24707305431365967,0.11922109127044678,-0.3380544185638428,0.8655197633688324,-0.4213817839691619,-0.22404394664350583,0.15204365624195115,-0.9232352714619376,-0.44503922615202324,0.12361063059549901
1781555979616883456,0.8122074604034424,-1.4212397336959839,-1.1604188680648804,-1.6064260005950928,-0.27858030796051025,0.8012210130691528,-0.5295637845993042,0.21205201745033264,0.08604699373245239,-0.3258896470069885,0.8623085335883215,-0.42517501181711603,-0.23333302963517075,0.14562215996354355,-0.9293329901703272,-0.4842746143491755,0.08823357984099447
1781555979626918656,0.8222424983978271,-1.2283869981765747,-1.2702363729476929,-1.5739072561264038,-0.29775184392929077,0.8035778999328613,-0.5153701305389404,0.21622416377067566,0.11570310592651367,-0.31248021125793457,0.8591529805128368,-0.42812891756576443,-0.2429415088949473,0.13978965420138476,-0.9332823007713793,-0.5238938334881574,0.05409366366637709
1781555979636954624,0.8322784900665283,-0.9794042706489563,-1.3651930093765259,-1.6377074718475342,-0.31739604473114014,0.8043242692947388,-0.5023168325424194,0.21345317363739014,0.16575324535369873,-0.31671392917633057,0.8562159847658519,-0.4300225241535253,-0.2528284382415114,0.13435976730816057,-0.9345373438145284,-0.5635201952436568,0.02127106699071334
1781555979646989568,0.8423135280609131,-0.631317675113678,-1.4428633451461792,-1.7102621793746948,-0.3379266560077667,0.8028045296669006,-0.4912335276603699,0.2016351819038391,0.2182067632675171,-0.30014827847480774,0.8537778771816219,-0.4303640214457558,-0.2630019806106379,0.12915100452099673,-0.9319840607605095,-0.6025687320789029,-0.009795904927698178
1781555979657024512,0.8523485660552979,-0.2418796569108963,-1.4854280948638916,-1.7480659484863281,-0.35899224877357483,0.798868715763092,-0.4826315939426422,0.19563168287277222,0.2654012441635132,-0.2654304802417755,0.8519714781918837,-0.42895112714832695,-0.27328579995558944,0.12433953007429427,-0.9254120936963385,-0.6395357773776363,-0.03755635165073091
1781555979667060736,0.862384557723999,0.03837118297815323,-1.5493056774139404,-1.821001410484314,-0.38047030568122864,0.7927740216255188,-0.476184606552124,0.17871856689453125,0.3005792498588562,-0.2650415897369385,0.8507249041376899,-0.42599027810737594,-0.28361942260508777,0.11983127830159006,-0.9153468301148845,-0.6741293350773488,-0.06197626321387321
1781555979677095680,0.8724195957183838,0.3572455644607544,-1.6600135564804077,-1.8301328420639038,-0.40258973836898804,0.7845731377601624,-0.4715576469898224,0.12120243906974792,0.29329246282577515,-0.3257140517234802,0.849933168529145,-0.4214883918671487,-0.2942256155002801,0.11572617395979026,-0.9020073805650966,-0.7066639206283681,-0.08284202464624463
1781555979687130624,0.8824546337127686,0.4439184069633484,-1.7056204080581665,-1.7163418531417847,-0.42429959774017334,0.7752892374992371,-0.46786391735076904,0.06519925594329834,0.22866284847259521,-0.33279526233673096,0.8492953289678257,-0.41609173112158115,-0.304853593334668,0.11238132240664674,-0.8871728896423456,-0.7366069351445249,-0.09960033099908
1781555979697166592,0.8924906253814697,0.515069305896759,-1.7434216737747192,-1.6872007846832275,-0.44543126225471497,0.7661476731300354,-0.4632587134838104,0.023159533739089966,0.21120822429656982,-0.2763195037841797,0.8483727238986558,-0.41100198257573756,-0.3153537854980464,0.109055221782594,-0.8728252759087236,-0.7657818380581373,-0.11568842467929581
1781555979707201536,0.9025254249572754,0.7077106833457947,-1.6736661195755005,-1.589431643486023,-0.46581926941871643,0.7557899951934814,-0.4602106213569641,-0.04602152109146118,0.23818272352218628,-0.2636968195438385,0.8477841732292984,-0.4047926293140414,-0.3256341822585828,0.10661723612824196,-0.8568597335803498,-0.7914547579073212,-0.12686730944605432
1781555979717236480,0.9125604629516602,0.9405026435852051,-1.552425503730774,-1.503516674041748,-0.4848663806915283,0.7446651458740234,-0.45867010951042175,-0.1343199908733368,0.262292742729187,-0.27883294224739075,0.8475714062668309,-0.3978978944464599,-0.33517490621258395,0.10467880112515796,-0.8400330370876045,-0.8131549709633594,-0.13417531388542506
1781555979727271680,0.9225955009460449,1.2714059352874756,-1.4337819814682007,-1.483797550201416,-0.502773106098175,0.7322192788124084,-0.45942795276641846,-0.23463833332061768,0.2844127416610718,-0.27773937582969666,0.8479800995509409,-0.38990432511470746,-0.3438904509726575,0.10316814544041811,-0.8215748181391692,-0.8304156475954222,-0.13727397402123612
1781555979737307648,0.9326314926147461,1.7379642724990845,-1.3538976907730103,-1.4601860046386719,-0.5199296474456787,0.7177370190620422,-0.46317028999328613,-0.3155043125152588,0.29355448484420776,-0.28307604789733887,0.8491998085024042,-0.38024658125978084,-0.3518911696384814,0.10219970214247427,-0.8005468726083883,-0.8430692365719039,-0.13546051817838717
1781555979747342592,0.9426665306091309,2.236058235168457,-1.253506064414978,-1.4213602542877197,-0.5362870693206787,0.7007834911346436,-0.4704238176345825,-0.3698256015777588,0.27368849515914917,-0.26036536693573,0.8513483885458349,-0.36851515594216133,-0.3591443521119877,0.10206752420716651,-0.7764952321151362,-0.8507292449064945,-0.12778446493729478
1781555979757377536,0.9527015686035156,2.667905569076538,-1.1008754968643188,-1.4191043376922607,-0.5517467260360718,0.6813133955001831,-0.481027752161026,-0.4094043970108032,0.23567885160446167,-0.21475785970687866,0.8543895066180613,-0.35480913416275656,-0.3655086969077358,0.10262819372743386,-0.7495554178676109,-0.8537662236629582,-0.11501251560725297
1781555979767413504,0.9627375602722168,2.909022331237793,-0.9068659543991089,-1.4659475088119507,-0.5663342475891113,0.6595260500907898,-0.49425795674324036,-0.4652666449546814,0.18784022331237793,-0.19197556376457214,0.8581648218726363,-0.3395992485324853,-0.3708684109155356,0.1033544723667194,-0.7201881001889037,-0.8532523771967809,-0.09927799043987705
1781555979777448704,0.9727725982666016,2.933441162109375,-0.7449754476547241,-1.4600605964660645,-0.5800700187683105,0.636253833770752,-0.5086253881454468,-0.5128560066223145,0.10268348455429077,-0.16956675052642822,0.862278052525629,-0.3237219126079954,-0.3753550624473107,0.10387131652645518,-0.6896326858711683,-0.8509282691828489,-0.08290905441165114
1781555979787483648,0.9828076362609863,2.5905849933624268,-0.60420823097229,-1.3589168787002563,-0.5923609733581543,0.6135101914405823,-0.5222200155258179,-0.5094914436340332,-0.033599853515625,-0.07780134677886963,0.866180237361179,-0.3085832225430148,-0.37903349943056514,0.10412377386648544,-0.6604979779663155,-0.8482456211425012,-0.06785977122975667
1781555979797518592,0.992842435836792,2.2702348232269287,-0.48721131682395935,-1.2595701217651367,-0.6031932830810547,0.5927935242652893,-0.5336233377456665,-0.4570637345314026,-0.15031909942626953,0.013786852359771729,0.8694920388370572,-0.29522040378325043,-0.3821429728307469,0.10390079395504136,-0.6345230874867978,-0.8465191036280114,-0.05584416539487663
1781555979807554560,1.0028784275054932,1.9596554040908813,-0.5392113327980042,-1.2273902893066406,-0.6131439208984375,0.5738492012023926,-0.5429104566574097,-0.388153076171875,-0.19785737991333008,0.025362849235534668,0.872234845842829,-0.2833739026070888,-0.38502467739987783,0.10325574563406398,-0.6111982658458938,-0.8460763108549881,-0.04652127817063144
1781555979817589504,1.012913465499878,1.8613266944885254,-0.6573453545570374,-1.2500178813934326,-0.6234464049339294,0.5557809472084045,-0.5499292016029358,-0.32085901498794556,-0.18302398920059204,0.034594178199768066,0.8743502152539919,-0.2723574264063643,-0.3884029118339775,0.10235431406569914,-0.5893021025074741,-0.847970818927338,-0.039202478824735654
1781555979827624448,1.0229485034942627,1.9202510118484497,-0.7237176895141602,-1.2666447162628174,-0.6341928839683533,0.537365734577179,-0.5559113621711731,-0.25550132989883423,-0.16427308320999146,0.1191285252571106,0.8761627900127784,-0.2612447032586566,-0.3921677169276147,0.10146164469248636,-0.5673104195750402,-0.8510805666719649,-0.03215075033445582
1781555979837660672,1.0329844951629639,1.934243083000183,-0.708732008934021,-1.358554482460022,-0.645147442817688,0.5181324481964111,-0.5615366697311401,-0.215936541557312,-0.1556141972541809,0.2082194685935974,0.8778818778630121,-0.24978567237320184,-0.39602875158984313,0.10045714148294108,-0.5446660161740686,-0.8545772502970916,-0.025099792849610402
1781555979847695616,1.0430195331573486,1.8096987009048462,-0.5981993675231934,-1.4967496395111084,-0.656154453754425,0.49813172221183777,-0.5668562650680542,-0.21167385578155518,-0.15229129791259766,0.2517470717430115,0.879591721529926,-0.23829505122464084,-0.3997340661435765,0.09872440288196763,-0.5214428148881498,-0.8582838705091036,-0.019416440903360085
1781555979857730560,1.0530545711517334,1.561525583267212,-0.5517408847808838,-1.5952948331832886,-0.6669796109199524,0.4782084822654724,-0.5713622570037842,-0.20368683338165283,-0.1858806312084198,0.26612550020217896,0.8811789166095246,-0.227443399690715,-0.4032224861707399,0.0959418612211716,-0.4986137035024681,-0.8624592906771548,-0.016324955330189024
1781555979867766528,1.0630905628204346,1.3098422288894653,-0.6130556464195251,-1.6389740705490112,-0.6779056191444397,0.4590091109275818,-0.5742427110671997,-0.12693440914154053,-0.2018832564353943,0.2711879014968872,0.882380047348783,-0.21751527228270617,-0.4068977283939551,0.09234119614906125,-0.4768795611476458,-0.8679978679651029,-0.015818290201229282
1781555979877801728,1.0731256008148193,1.0311890840530396,-0.7466369867324829,-1.6785638332366943,-0.6892942786216736,0.4408809542655945,-0.5748891234397888,0.003030240535736084,-0.19127768278121948,0.2720479369163513,0.882994693088026,-0.2086212479284828,-0.4111357749384182,0.08811936297678213,-0.45657993052146123,-0.8756496129423058,-0.017743876172151656
1781555979887836672,1.083160638809204,0.7225671410560608,-0.8896042704582214,-1.7200913429260254,-0.7013654708862305,0.4239640235900879,-0.5730105638504028,0.1505078673362732,-0.1731095314025879,0.29321014881134033,0.8829353700786747,-0.20085322643519232,-0.41611620220145545,0.08324980657259272,-0.4378177104819569,-0.88577941380769,-0.022248310209079934
1781555979897871616,1.0931954383850098,0.44665107131004333,-1.065303087234497,-1.7683498859405518,-0.7142539620399475,0.40824612975120544,-0.5684860944747925,0.2974448800086975,-0.14556607604026794,0.3236435651779175,0.8821592134278388,-0.19422308717293135,-0.42194115794450265,0.07770603934928703,-0.42053196211377614,-0.8985506290841954,-0.029365658040925252
1781555979907907584,1.103231430053711,0.2687508463859558,-1.2734880447387695,-1.8056509494781494,-0.728057861328125,0.393341600894928,-0.5614394545555115,0.4431610107421875,-0.10110527276992798,0.3575515151023865,0.8806714266540093,-0.1884281701063471,-0.4286899906461433,0.07167766161753415,-0.4042633567567078,-0.9138981177215348,-0.038410461567035634
1781555979917942528,1.1132664680480957,0.12611886858940125,-1.4615575075149536,-1.8487502336502075,-0.7428001165390015,0.37872934341430664,-0.5520979166030884,0.5779747366905212,-0.06593942642211914,0.3902784585952759,0.8785112682147574,-0.18310473781882183,-0.4363756317512481,0.06532239235605632,-0.38842298913980666,-0.9316190681623573,-0.0486757420210139
1781555979927977472,1.1233015060424805,-0.10449755191802979,-1.5972939729690552,-1.8876545429229736,-0.7581726908683777,0.36457157135009766,-0.5406123995780945,0.6929413676261902,-0.046975135803222656,0.4281246066093445,0.8757171618021913,-0.1784266599514969,-0.4448120223795182,0.05852921517759053,-0.3731726695757495,-0.9513678876862282,-0.06041481384645981
1781555979938013440,1.1333374977111816,-0.3384442627429962,-1.69608736038208,-1.9491490125656128,-0.7738977670669556,0.3510177731513977,-0.5271326303482056,0.8025690317153931,-0.017338573932647705,0.46170294284820557,0.8723293471483121,-0.17462953606907042,-0.45380416597806705,0.05106700691720587,-0.3586578253378918,-0.9728406452767553,-0.07418489614057745
1781555979948048640,1.1433725357055664,-0.5346169471740723,-1.8042881488800049,-2.0182042121887207,-0.7898764610290527,0.33770430088043213,-0.5119090676307678,0.9033103585243225,0.019793838262557983,0.4492870569229126,0.8683974843314545,-0.17155599439207117,-0.4632645015441604,0.04289852002237089,-0.3444768537471567,-0.9957667228323911,-0.08983709466892145
1781555979958083584,1.1534075736999512,-0.6865127682685852,-1.9718742370605469,-2.0425055027008057,-0.8061683773994446,0.3244987726211548,-0.49476560950279236,1.0059365034103394,0.040567755699157715,0.41766297817230225,0.8638356276583995,-0.16907637630047648,-0.4733184661915152,0.03421625654706569,-0.3304817719360645,-1.0203460602821313,-0.10691780765003635
1781555979968119552,1.1634435653686523,-0.7626807689666748,-2.2046868801116943,-2.031592607498169,-0.822818398475647,0.3113715350627899,-0.47541308403015137,1.107028603553772,0.042403459548950195,0.38550829887390137,0.8585224129975172,-0.1670109456821409,-0.48414956724222047,0.02541183938581179,-0.3166359825869193,-1.0468706965145826,-0.12458251353991788
1781555979978154752,1.173478603363037,-0.8653551936149597,-2.5206222534179688,-1.9949748516082764,-0.8399502038955688,0.2983390688896179,-0.45329615473747253,1.179900884628296,0.018341779708862305,0.34799525141716003,0.8522720569048453,-0.16528125008329356,-0.49601818098837797,0.016743237982495083,-0.30295201528893984,-1.0759183843764792,-0.14236740390587455
1781555979988189696,1.1835136413574219,-1.0216723680496216,-2.9112322330474854,-1.9497277736663818,-0.8577501177787781,0.28569868206977844,-0.427365243434906,1.2025225162506104,-0.01766282320022583,0.3053559958934784,0.8447575292390526,-0.16415377605367593,-0.5092847167151677,0.008206038859659858,-0.28973543457364165,-1.1085578734410346,-0.16069770724924903
1781555979998224384,1.1935484409332275,-1.180998682975769,-3.1192376613616943,-1.8421874046325684,-0.875634491443634,0.27372169494628906,-0.39792048931121826,1.1565945148468018,-0.05751991271972656,0.27014338970184326,0.8360383994834439,-0.16381312278835924,-0.5236458951033646,-0.00017800240237395145,-0.27726039399837515,-1.14425893587209,-0.17964654838756688
1781555980008260608,1.2035844326019287,-1.2896274328231812,-3.154754877090454,-1.6484386920928955,-0.8923975229263306,0.2629792392253876,-0.3666995167732239,1.0640742778778076,-0.07296153903007507,0.24917632341384888,0.8266090623453686,-0.16440726068300537,-0.5381640090342085,-0.008196228235705975,-0.26610883275762576,-1.1809160509882648,-0.19876262293005792
1781555980018295552,1.2136194705963135,-1.2417185306549072,-3.12935471534729,-1.4173775911331177,-0.9074526429176331,0.25361916422843933,-0.33497321605682373,0.9436007738113403,-0.05430886149406433,0.2144593596458435,0.8168533082125823,-0.1656586076234,-0.5523319769192935,-0.015405948572774468,-0.2564199292263955,-1.2171767954868764,-0.21689878201951499
1781555980028330496,1.2236545085906982,-1.0975853204727173,-3.0707335472106934,-1.1701799631118774,-0.9206290245056152,0.24552050232887268,-0.3035820424556732,0.8180440664291382,-0.016363978385925293,0.17409595847129822,0.8070529567661471,-0.16709498854002686,-0.5659401396224638,-0.021370195773836687,-0.248056597031686,-1.2522697024396483,-0.232782910846771
1781555980038366464,1.2336905002593994,-0.9682232737541199,-2.974757432937622,-0.9395827651023865,-0.9319490790367126,0.23871001601219177,-0.2729257047176361,0.6893191337585449,0.03780977427959442,0.16568690538406372,0.7973617664778337,-0.16857885533310288,-0.5788940490824177,-0.02602087377473105,-0.24103724084323258,-1.2859076518853225,-0.2462001195831366
1781555980048401664,1.2437255382537842,-0.9139615893363953,-2.804474115371704,-0.7473901510238647,-0.941434919834137,0.23324786126613617,-0.24350719153881073,0.5331860184669495,0.09341228008270264,0.16271191835403442,0.7879559666706354,-0.170244898693377,-0.5909848377303383,-0.029648053838078246,-0.2354163450668874,-1.3176881736766635,-0.25782708596533166
1781555980058436608,1.253760576248169,-0.826406717300415,-2.51192045211792,-0.578586757183075,-0.949164092540741,0.22902236878871918,-0.21595460176467896,0.33351773023605347,0.12846054136753082,0.11044013500213623,0.7790489810373047,-0.17214696343867042,-0.6019868109638767,-0.032558410274006466,-0.23107323590129494,-1.3470838172740134,-0.26823906681201815
1781555980068472576,1.2637965679168701,-0.8234090805053711,-2.1299829483032227,-0.353920578956604,-0.9549669027328491,0.22613580524921417,-0.19209541380405426,0.11970090866088867,0.11894166469573975,0.07120004296302795,0.7712508256835825,-0.1742810675286328,-0.6112106063287566,-0.03492497356064822,-0.22810888919311484,-1.372291400181831,-0.27756519064262036
1781555980078507776,1.2738316059112549,-0.7214465141296387,-1.5694659948349,-0.1007104218006134,-0.9588560461997986,0.22537246346473694,-0.17263329029083252,-0.06264352798461914,0.09315474331378937,0.058436572551727295,0.7648405352356769,-0.17688049372619297,-0.6183822802611241,-0.03654557940276544,-0.22732532040832154,-1.392663789369444,-0.2857900449319276
1781555980088542720,1.2838666439056396,-0.671962320804596,-1.1372703313827515,0.15965673327445984,-0.9610186815261841,0.22681307792663574,-0.1581108123064041,-0.18348205089569092,0.05814482271671295,0.02423018217086792,0.760037234798344,-0.17988779080154785,-0.6233658478704716,-0.037401601289539406,-0.22880422654144228,-1.4077329602197106,-0.292814091148086
1781555980098577408,1.2939014434814453,-0.5171146392822266,-0.8742000460624695,0.33679741621017456,-0.9619643688201904,0.23017166554927826,-0.1471244841814041,-0.24940043687820435,0.03317980468273163,-0.037506893277168274,0.7564135929126052,-0.18316082911687828,-0.6268092753914213,-0.037426866114010256,-0.23225408364422595,-1.4190306419004928,-0.29854681478881256
1781555980108613376,1.3039374351501465,-0.3297754228115082,-0.7133491039276123,0.4852001965045929,-0.9621390700340271,0.23473390936851501,-0.13852329552173615,-0.25313204526901245,0.014045432209968567,-0.11317040026187897,0.7536123999939431,-0.18619647702543957,-0.6293403057807612,-0.03647155252599534,-0.2369448225589262,-1.4278046253102479,-0.3022292318103157
1781555980118648576,1.3139724731445312,-0.13300137221813202,-0.619334876537323,0.6152194142341614,-0.9617202281951904,0.2403942495584488,-0.1315479725599289,-0.23620152473449707,-0.0014568567276000977,-0.1438273787498474,0.7513871694773002,-0.18896557443134523,-0.6312828439149538,-0.03451572226505218,-0.2427719907121865,-1.4348559198044217,-0.3038808384861209
1781555980128683520,1.324007511138916,0.15740302205085754,-0.5559439063072205,0.7109347581863403,-0.9608473777770996,0.24680130183696747,-0.12594281136989594,-0.2474656105041504,-0.0038661062717437744,-0.15738236904144287,0.749656237008052,-0.19113097593200384,-0.6328487526557524,-0.031416475641742894,-0.2493780553435177,-1.4404645939618792,-0.30285127307840065
1781555980138719488,1.3340435028076172,0.4273405075073242,-0.5341560244560242,0.7924546599388123,-0.9596249461174011,0.25372275710105896,-0.12142901122570038,-0.3001713156700134,-0.008132517337799072,-0.1690068393945694,0.7483176328068573,-0.1925112987425092,-0.6342120274557292,-0.02711746948105064,-0.2565270127164149,-1.4449272923606455,-0.2988325840228447
1781555980148754688,1.344078540802002,0.6714639663696289,-0.4124487638473511,0.8535281419754028,-0.9580742716789246,0.26099154353141785,-0.11822478473186493,-0.40270453691482544,-0.012670010328292847,-0.13731414079666138,0.7474200846621465,-0.1931311549643257,-0.6352857358242001,-0.021808042685856645,-0.26404919124378845,-1.44801865255053,-0.2921033362117683
1781555980158789632,1.3541135787963867,0.9054927229881287,-0.22651951014995575,0.9060075879096985,-0.9561088681221008,0.26853007078170776,-0.11724872887134552,-0.5520239472389221,-0.03368210792541504,-0.1102444976568222,0.7472473165633949,-0.19301567905719638,-0.6357047914001659,-0.015676159514384534,-0.271866736311535,-1.4487744152277349,-0.2828360905483434
1781555980168825600,1.364149570465088,1.1019809246063232,-0.06717060506343842,0.9392834901809692,-0.9537519216537476,0.2762026786804199,-0.11861418187618256,-0.6966234445571899,-0.06929346919059753,-0.11179351806640625,0.7478158860851636,-0.19219921374356883,-0.6354151164775093,-0.008857661567246988,-0.2798408223818493,-1.4470657569275245,-0.271236279545752
1781555980178860544,1.3741846084594727,1.2237480878829956,0.07595272362232208,0.9547415971755981,-0.9510809183120728,0.2838610112667084,-0.12193451821804047,-0.7988733053207397,-0.10556206107139587,-0.10359036922454834,0.7489758665751436,-0.19081444498854375,-0.6345254828967875,-0.0015521873050274085,-0.28781838157725764,-1.4432856630356286,-0.25781283572416036
1781555980188895488,1.3842194080352783,1.1045095920562744,0.23666438460350037,0.9563202857971191,-0.9481121897697449,0.291534960269928,-0.12684911489486694,-0.8462298512458801,-0.13139396905899048,-0.11105065047740936,0.7505948621990435,-0.18943842035944883,-0.6329996281996771,0.0056492423723641045,-0.29583109875681424,-1.4377949046620027,-0.24427656265959888
1781555980198930432,1.394254446029663,0.8407760262489319,0.4016374945640564,0.9336903691291809,-0.9448869228363037,0.29924702644348145,-0.1328151822090149,-0.827436625957489,-0.14020469784736633,-0.1346866339445114,0.7525045092204761,-0.1887555886909584,-0.6308436706513441,0.012022123698358323,-0.303903419128652,-1.431149246324785,-0.2327203451032809
1781555980208966400,1.4042904376983643,0.53165203332901,0.4247385561466217,0.8712621331214905,-0.9415535926818848,0.3068946897983551,-0.1388966292142868,-0.7180227041244507,-0.1571754813194275,-0.1296275109052658,0.7544218037197806,-0.18906957827688142,-0.6283346103262939,0.01720281851521055,-0.31192853547155397,-1.4243341019271176,-0.22424720639075665
1781555980219001600,1.414325475692749,0.2438841164112091,0.3177921175956726,0.7809932231903076,-0.9384364485740662,0.31414657831192017,-0.14369671046733856,-0.5426272749900818,-0.15754568576812744,-0.10151205956935883,0.7559092617288432,-0.19023537002714444,-0.6260688050357838,0.021199929680448697,-0.31955759727178346,-1.418852983722753,-0.2188871010680352
1781555980229036544,1.4243605136871338,0.00110796804074198,0.16128160059452057,0.6483765840530396,-0.9358081221580505,0.3207146227359772,-0.14630521833896637,-0.3525371551513672,-0.13431328535079956,-0.04453645646572113,0.7566862986929151,-0.1920730820808361,-0.6244640265849485,0.024049807938776434,-0.3264838643394672,-1.4157107064054946,-0.21652570624720852
1781555980239072512,1.434396505355835,-0.09365608543157578,0.050022192299366,0.48909133672714233,-0.9338048696517944,0.32615095376968384,-0.1470852643251419,-0.19595587253570557,-0.09917646646499634,0.03255283832550049,0.7568816684726967,-0.1940891018468723,-0.6235276988439179,0.02593789006091822,-0.3322290023729025,-1.4145681186453598,-0.21618572127342545
1781555980249107712,1.4444315433502197,-0.0563310906291008,-0.014840157702565193,0.31844663619995117,-0.9324551224708557,0.33003702759742737,-0.1469794660806656,-0.06945222616195679,-0.06311503052711487,0.0922156572341919,0.756802339753534,-0.1956514224587184,-0.6230816868303628,0.02720198191430327,-0.3363427945819027,-1.4144563568540014,-0.21635283546318598
1781555980259142656,1.4544665813446045,0.03511786460876465,-0.06639309972524643,0.139974907040596,-0.931750476360321,0.3322061002254486,-0.14656075835227966,0.03587651252746582,-0.013007551431655884,0.12039192020893097,0.7566320980375851,-0.19641286792597912,-0.6230101180413942,0.02807462572849698,-0.3386415634709457,-1.4147785359011604,-0.21610631372715558
1781555980269178624,1.4645025730133057,0.14186455309391022,-0.13958129286766052,-0.037355948239564896,-0.9317299723625183,0.33254188299179077,-0.14592814445495605,0.13178807497024536,0.04903462529182434,0.13156963884830475,0.7564019052989408,-0.19621810352629548,-0.6233252602600559,0.028638642190044413,-0.3389975633529514,-1.4154377939253036,-0.2150925263700268
1781555980279213568,1.4745376110076904,0.20579533278942108,-0.2655063569545746,-0.18772466480731964,-0.932408332824707,0.33119380474090576,-0.14465557038784027,0.2157793641090393,0.09602174162864685,0.13640059530735016,0.7559690777954483,-0.19514488399677898,-0.6241720021211723,0.028955805993201855,-0.33756850230168073,-1.416881484879588,-0.21339682494177223
1781555980289248512,1.484572410583496,0.16644392907619476,-0.43578219413757324,-0.2870589792728424,-0.9337055087089539,0.3286660313606262,-0.14203029870986938,0.28787732124328613,0.10349336266517639,0.14261014759540558,0.7550992577205868,-0.19361216615206928,-0.6256989512450768,0.02898616286734135,-0.33489079047014503,-1.41983888435929,-0.21176696976195317
1781555980299283456,1.4946074485778809,0.06727846711874008,-0.6320127248764038,-0.33324965834617615,-0.9354888200759888,0.32554540038108826,-0.13740769028663635,0.33479607105255127,0.07081690430641174,0.14433521032333374,0.7535788769091667,-0.19209625401183106,-0.6280089068810019,0.028682747494565643,-0.3315884929379737,-1.4249558787013823,-0.21101935625006574
1781555980309319424,1.504643440246582,-0.0777072161436081,-0.7862747311592102,-0.31649118661880493,-0.9375113844871521,0.32246118783950806,-0.13073328137397766,0.3517265319824219,0.007265955209732056,0.15038658678531647,0.7513825823541981,-0.1909621379185146,-0.6310046120001163,0.02812176713535066,-0.3283284064867423,-1.4322426538744513,-0.2115243946469202
1781555980319354624,1.5146784782409668,-0.22377415001392365,-0.9353662729263306,-0.27885350584983826,-0.9395591616630554,0.3198583424091339,-0.12214364111423492,0.33796626329421997,-0.0526311993598938,0.14350594580173492,0.7485480974926741,-0.19047591092442567,-0.6345448031411365,0.027340520104131856,-0.3255799597199656,-1.441520332930478,-0.21355293240227308
1781555980329389568,1.5247135162353516,-0.32860124111175537,-1.0436164140701294,-0.2058378905057907,-0.941518247127533,0.3178490102291107,-0.11187229305505753,0.27820342779159546,-0.09951099753379822,0.13537079095840454,0.7451409865057802,-0.1905912198071091,-0.638544312874427,0.026477694445318934,-0.3234599955978138,-1.452529663119718,-0.216791467308805
1781555980339425536,1.5347495079040527,-0.3998381197452545,-1.0638487339019775,-0.09731382131576538,-0.9431321024894714,0.3168067932128906,-0.10067395865917206,0.1774461269378662,-0.129642516374588,0.14260506629943848,0.7414000558848483,-0.19133492400067667,-0.6426927473054977,0.025747401026148024,-0.32236095349198657,-1.4644547249931037,-0.2208343762335535
1781555980349460480,1.5447845458984375,-0.42308565974235535,-0.972429096698761,0.011252601630985737,-0.9442442655563354,0.3168025016784668,-0.08965951204299927,0.049819886684417725,-0.12077286839485168,0.13575631380081177,0.7376941581114197,-0.19260319587214103,-0.6465866172022046,0.025238688849544437,-0.3223564402717057,-1.4761264386939426,-0.22523572199628297
1781555980359495680,1.5548195838928223,-0.3836117386817932,-0.7937839031219482,0.10882975906133652,-0.9448034763336182,0.3177298605442047,-0.07996276766061783,-0.08971184492111206,-0.08492651581764221,0.12590700387954712,0.7344088082312146,-0.19419398977005042,-0.6498517598358375,0.025001323983780306,-0.32333432126346917,-1.4863632545697163,-0.22946733639977818
1781555980369531648,1.5648555755615234,-0.396957665681839,-0.6615832448005676,0.1848030984401703,-0.9448687434196472,0.3194325268268585,-0.07201258093118668,-0.2230236530303955,-0.03987628221511841,0.11476767808198929,0.7316966666830771,-0.1959702257309282,-0.6523721185348966,0.02502484156469619,-0.3251305930030495,-1.4947290097738952,-0.23329208162925424
1781555980379566592,1.5748906135559082,-0.19075387716293335,-0.20344136655330658,0.26509207487106323,-0.9444263577461243,0.3218565583229065,-0.06683802604675293,-0.32920950651168823,-0.005114614963531494,0.11786341667175293,0.7299128346946284,-0.19770312920194874,-0.6538306044171626,0.025422845060149444,-0.327689749963878,-1.5001430945882521,-0.23604572145552874
1781555980389601536,1.5849254131317139,-0.15241394937038422,0.15350396931171417,0.30938178300857544,-0.9435120224952698,0.3246763050556183,-0.06611137837171555,-0.3778534531593323,0.0193789005279541,0.10915642231702805,0.7296464660005727,-0.19926831435845624,-0.6536332694736702,0.025920861414942726,-0.3306694856526555,-1.5008412045177264,-0.23765558718477317
1781555980399637760,1.5949616432189941,-0.0023573371581733227,0.4018746614456177,0.3612598776817322,-0.9422206282615662,0.3279055655002594,-0.06854420900344849,-0.39777565002441406,0.04221165180206299,0.08265858888626099,0.7304557534443191,-0.20071748098056014,-0.6522579159638884,0.026580800537169196,-0.33408569417019607,-1.4981767392189664,-0.23830769495632984
1781555980409672448,1.6049964427947998,0.1925724595785141,0.5304440855979919,0.4034680426120758,-0.9406169056892395,0.3314551115036011,-0.07333019375801086,-0.3247181177139282,0.05277642607688904,0.03590042144060135,0.7320455804335154,-0.20167621535504357,-0.6501243006823018,0.027827570657815003,-0.3378454674625989,-1.492994010827288,-0.23696933596564504
1781555980419707648,1.6150314807891846,0.36130741238594055,0.5482162833213806,0.4174283444881439,-0.9388179779052734,0.3351360857486725,-0.07940128445625305,-0.2103518843650818,0.05574828386306763,-0.004873029887676239,0.7340426275019322,-0.20207655414557105,-0.6476607314015403,0.0296995641175284,-0.34174967208562507,-1.4864213210561907,-0.23366326873060755
1781555980429742592,1.6250665187835693,0.480148583650589,0.4835696220397949,0.4090292751789093,-0.9369817972183228,0.33869612216949463,-0.08573233336210251,-0.10629206895828247,0.06438001990318298,-0.028815440833568573,0.7360960130733755,-0.20194600691385914,-0.6452531636093224,0.032074861910292005,-0.3455307584431181,-1.4795519958060686,-0.22878760558969247
1781555980439778560,1.6351025104522705,0.5708364248275757,0.4056989550590515,0.3869306147098541,-0.9352248311042786,0.3419729173183441,-0.09170176088809967,-0.03076338768005371,0.06825962662696838,-0.03985953330993652,0.737996740852794,-0.20135464224709215,-0.6431216282005464,0.03481051260228029,-0.34901560381985175,-1.4730555968834884,-0.22276888223324434
1781555980449813504,1.6451375484466553,0.5876979827880859,0.3528812527656555,0.34126487374305725,-0.9336101412773132,0.344838410615921,-0.09725602716207504,0.017991244792938232,0.07464095950126648,-0.029361426830291748,0.7397359164024976,-0.20042930957904542,-0.6412488432485083,0.03766781137098626,-0.3520666185767306,-1.466998719950273,-0.21615659288708164
1781555980459848704,1.65517258644104,0.5279710292816162,0.3300100564956665,0.27268633246421814,-0.9322014451026917,0.34715333580970764,-0.10239652544260025,0.05616384744644165,0.09353572130203247,0.007731027901172638,0.74133409503491,-0.19939563704515223,-0.6395647886347294,0.040274074623344654,-0.3545339403783203,-1.4613911606476155,-0.20983027665091086
1781555980469884928,1.6652088165283203,0.4512069523334503,0.31887537240982056,0.19702912867069244,-0.931042492389679,0.3488275110721588,-0.10714229941368103,0.07743525505065918,0.12578189373016357,0.03538024425506592,0.7428157664506091,-0.19840073559445137,-0.6380172404980722,0.04237903331538195,-0.35631972397257,-1.456222538512899,-0.20437454059696
1781555980479919872,1.675243854522705,0.40811941027641296,0.23027531802654266,0.1257442981004715,-0.9301721453666687,0.34985750913619995,-0.1112632229924202,0.0853845477104187,0.15125641226768494,0.0108146071434021,0.7441031344847924,-0.19737691696255866,-0.6367187292775701,0.04406963944490023,-0.3574189807004816,-1.4517462280786253,-0.19961709961298904
1781555980489955072,1.6852788925170898,0.319316029548645,0.09196804463863373,0.08264662325382233,-0.9296295046806335,0.3503917157649994,-0.11408118903636932,0.08420109748840332,0.14397773146629333,-0.036294154822826385,0.7449658266300946,-0.19636849525396521,-0.6359235944345144,0.045458364368262796,-0.35798931603844303,-1.448689998786266,-0.19558608934056917
1781555980499991040,1.695314884185791,0.16209764778614044,-0.037563178688287735,0.05629970505833626,-0.9293598532676697,0.35075733065605164,-0.11515158414840698,0.07843810319900513,0.11117202043533325,-0.04465372860431671,0.7452622985650448,-0.1956796999613881,-0.6357150794186643,0.04647674257697673,-0.35837970027606175,-1.4475204225021305,-0.19289151476250274
1781555980510025728,1.7053496837615967,-0.034346964210271835,-0.1225033700466156,0.02820415422320366,-0.9292998313903809,0.35108914971351624,-0.11462213844060898,0.04827260971069336,0.07524141669273376,-0.04162788391113281,0.7450566360158594,-0.19556113501327954,-0.6359597264905348,0.04692192748950814,-0.358734052559974,-1.4480736906202034,-0.19215653459392204
1781555980520060672,1.7153847217559814,-0.15659750998020172,-0.1664872169494629,-0.013561667874455452,-0.9294371604919434,0.3512863516807556,-0.11289246380329132,-0.0033022165298461914,0.05005034804344177,-0.05332149565219879,0.744485858243448,-0.19594034876303235,-0.6365226991868941,0.04676716564415131,-0.3589446754996782,-1.4499251627103775,-0.19324591293337234
1781555980530095872,1.7254197597503662,-0.1648160219192505,-0.1891445815563202,-0.0672248974442482,-0.929780900478363,0.3510987162590027,-0.11062311381101608,-0.051847636699676514,0.05711972713470459,-0.059191957116127014,0.7437548456646972,-0.19638962053288359,-0.6372751068736673,0.04626513587703216,-0.35874424919330056,-1.4523753995483772,-0.19506263314974617
1781555980540131840,1.7354557514190674,-0.07600013166666031,-0.18652349710464478,-0.14444378018379211,-0.9303540587425232,0.3502705991268158,-0.1084059625864029,-0.0876055359840393,0.0942331850528717,-0.043922483921051025,0.74304674289848,-0.1964898339645356,-0.6381134398348853,0.04565673105857467,-0.35786000078039604,-1.4547982212212827,-0.19655024152640718
1781555980550166784,1.7454907894134521,0.08504708111286163,-0.14343754947185516,-0.24974516034126282,-0.9312252402305603,0.3484342694282532,-0.10683251917362213,-0.1182284951210022,0.13520830869674683,-0.023553788661956787,0.7425517548721294,-0.1958204241275614,-0.6389351303558982,0.04509117379872317,-0.35590017387809225,-1.456573153114126,-0.1967883567248757
1781555980560201984,1.755525827407837,0.24251845479011536,-0.05103491619229317,-0.33740657567977905,-0.9323685765266418,0.3454703986644745,-0.1064847782254219,-0.14534437656402588,0.15437698364257812,-0.009115807712078094,0.7424630963843951,-0.19421580345778622,-0.6395606556044272,0.04461989917694604,-0.35273999919681354,-1.457080157056292,-0.19536068967445192
1781555980570237952,1.765561819076538,0.35623621940612793,0.07756567001342773,-0.3810507357120514,-0.9336063861846924,0.3417515754699707,-0.10763388127088547,-0.16504168510437012,0.1511988639831543,0.0062392354011535645,0.7428731943528413,-0.1919258984314273,-0.6398027117059614,0.04423109744874459,-0.34878004769883847,-1.4560147865745938,-0.19258545398755358
1781555980580272896,1.7755968570709229,0.40288469195365906,0.20208296179771423,-0.4000140428543091,-0.9347842931747437,0.3376615047454834,-0.11028609424829483,-0.15977442264556885,0.1273043155670166,0.011683762073516846,0.7437867795967938,-0.1892688214901719,-0.639557868526208,0.04386641378214472,-0.3444313867429113,-1.4533589437104208,-0.18899985829295882
1781555980590307840,1.7856316566467285,0.4086134135723114,0.25735023617744446,-0.4094426929950714,-0.9358826875686646,0.33340132236480713,-0.11387299001216888,-0.12184125185012817,0.09453138709068298,-0.0047336146235466,0.7450166049431561,-0.18650078289976849,-0.6389686725114042,0.04343637216019948,-0.33990902356922703,-1.4497170770038292,-0.18520788845515143
1781555980600344064,1.7956678867340088,0.3957013487815857,0.23094017803668976,-0.3967934548854828,-0.9369341731071472,0.32914814352989197,-0.11754101514816284,-0.05593997240066528,0.06848064064979553,-0.006085693836212158,0.7462723825268343,-0.18375727513346443,-0.6383280949212501,0.0429890128083612,-0.3354013138622019,-1.4459955240602334,-0.18148358434969783
1781555980610378752,1.8057026863098145,0.36068636178970337,0.19846346974372864,-0.387545645236969,-0.9379639625549316,0.3250106871128082,-0.1207953616976738,0.017889559268951416,0.060075342655181885,0.011969693005084991,0.7473870479653097,-0.18112271672223526,-0.6378063032308263,0.04254672437445651,-0.3310230244613891,-1.4427166611486444,-0.17799544481093496
1781555980620413696,1.8157377243041992,0.3172326385974884,0.18721932172775269,-0.4031829237937927,-0.9390071630477905,0.3208838403224945,-0.12368994951248169,0.06069600582122803,0.06791013479232788,0.02337867021560669,0.7483871465256643,-0.17863692272807838,-0.6373726337056583,0.04197284315165691,-0.3266625250257002,-1.4398261710832558,-0.17499104721102732
1781555980630449664,1.8257737159729004,0.3221434950828552,0.19518430531024933,-0.4071640968322754,-0.940064549446106,0.3166702687740326,-0.1264854222536087,0.07490652799606323,0.08069908618927002,0.024724557995796204,0.7493580743374838,-0.1761944316920225,-0.6369558925254818,0.04129394520171756,-0.32221704509486343,-1.4370498418981124,-0.17223901460053392
1781555980640484864,1.8358087539672852,0.33339163661003113,0.23740366101264954,-0.38493067026138306,-0.9410419464111328,0.3125021159648895,-0.12954725325107574,0.06805616617202759,0.07710051536560059,0.041763439774513245,0.7504131259104739,-0.17373050465521847,-0.6364307406341284,0.0406664823658587,-0.3178259158157761,-1.4339925761762087,-0.16935098420418138
1781555980650519808,1.84584379196167,0.33423933386802673,0.32014036178588867,-0.3714345693588257,-0.941860556602478,0.3084717392921448,-0.13320595026016235,0.0455746054649353,0.059036195278167725,0.043179094791412354,0.7516633499850506,-0.17131177147759527,-0.635648726586523,0.04006472874085459,-0.31358601242470197,-1.4302996034585833,-0.1664021698330101
1781555980660555776,1.855879783630371,0.27843090891838074,0.4188496470451355,-0.3395344316959381,-0.9424476623535156,0.30469363927841187,-0.1376744657754898,0.027088165283203125,0.032784998416900635,0.04337513446807861,0.753183609279709,-0.1690866132261761,-0.6344860029456816,0.039391817691719046,-0.30961676361224333,-1.4257405359979802,-0.16370738138575913
1781555980670590976,1.8659148216247559,0.2866813838481903,0.44452783465385437,-0.31949496269226074,-0.9428252577781677,0.3012252748012543,-0.14263221621513367,0.039977967739105225,0.028700262308120728,0.02762669324874878,0.7548653950134827,-0.1671034161373241,-0.6330563511719611,0.03865699616506093,-0.30597736298541006,-1.420653113897457,-0.16137234526453956
1781555980680625920,1.8759498596191406,0.40384769439697266,0.3846248388290405,-0.3295193612575531,-0.9431849122047424,0.2976674437522888,-0.1476357877254486,0.07331186532974243,0.05842691659927368,-0.03148716688156128,0.7565458992035444,-0.16486698721419327,-0.631665246454724,0.03815989249508886,-0.3022484057978995,-1.4155272475869705,-0.15835117844082303
1781555980690660608,1.8859846591949463,0.5870452523231506,0.2518260180950165,-0.36428800225257874,-0.9437301158905029,0.2936435043811798,-0.15214088559150696,0.1074874997138977,0.09832426905632019,-0.08549945056438446,0.7580340438121078,-0.16195640439801628,-0.6306343467807882,0.038141399591868436,-0.29803613858908373,-1.41095926520114,-0.15380506308168673
1781555980700696832,1.8960208892822266,0.7064728140830994,0.12748782336711884,-0.39828988909721375,-0.9445499777793884,0.28903481364250183,-0.1558341532945633,0.11990392208099365,0.11369037628173828,-0.0955238938331604,0.7592277305782384,-0.15830881635830213,-0.630096218149399,0.0386051670675827,-0.2932184787394956,-1.4072868120688176,-0.1476967575622015
1781555980710731776,1.9060556888580322,0.7132338285446167,0.05948054417967796,-0.41417405009269714,-0.9455894231796265,0.28401607275009155,-0.15873052179813385,0.09337091445922852,0.07921937108039856,-0.08205316960811615,0.7601477623971392,-0.1542891603680116,-0.6299441226587188,0.039250267982221546,-0.28798008436934297,-1.4044828131737135,-0.14096740740187083
1781555980720766720,1.916090726852417,0.5983098745346069,0.06570888310670853,-0.3777790367603302,-0.9466179609298706,0.2791685461997986,-0.16118162870407104,0.048546671867370605,0.008612215518951416,-0.048931896686553955,0.7609263317550431,-0.1505146899207041,-0.6298845248611742,0.039775036200615566,-0.28292811566530274,-1.40214275682714,-0.13483470264942315
1781555980730802688,1.9261267185211182,0.4446987211704254,0.07562383264303207,-0.3140684962272644,-0.9474580883979797,0.27502769231796265,-0.16334955394268036,0.016916096210479736,-0.060428082942962646,-0.019969522953033447,0.7616235835869268,-0.14743431802280133,-0.6297526065091791,0.04005445606798701,-0.27861851696882456,-1.4000665343348666,-0.13004876042247665
1781555980740837888,1.936161756515503,0.2987518906593323,0.032382212579250336,-0.28084155917167664,-0.948173999786377,0.2716207802295685,-0.16488875448703766,-0.0005259513854980469,-0.0923910140991211,-0.02284008264541626,0.7621283174605401,-0.14509980854069704,-0.6296837870442143,0.040060925131583706,-0.2750767226751657,-1.3986168575866056,-0.12676306515402966
1781555980750872832,1.9461967945098877,0.2031121850013733,-0.01807989366352558,-0.2830093801021576,-0.9489181041717529,0.26855340600013733,-0.16563107073307037,0.00493311882019043,-0.07595694065093994,-0.02603459358215332,0.7623873176193611,-0.14327766899477468,-0.6298063010621139,0.03976400226932839,-0.271890942259708,-1.39798996705205,-0.12473678980403637
1781555980760908800,1.9562327861785889,0.19143928587436676,-0.10330810397863388,-0.3237331211566925,-0.9498214721679688,0.26536425948143005,-0.1655934602022171,0.0187910795211792,-0.038252413272857666,-0.032480910420417786,0.7624007140410533,-0.14157205722204672,-0.6302068084628927,0.03926885194546469,-0.2685817188063396,-1.3981895031513922,-0.12328292235443407
1781555980770944000,1.9662678241729736,0.17316122353076935,-0.17312739789485931,-0.3839477002620697,-0.950991153717041,0.26167771220207214,-0.16474485397338867,0.019060492515563965,-0.018834054470062256,-0.05061770975589752,0.7621567531819744,-0.13971716312576432,-0.630956958634432,0.03859610045309185,-0.2647600794990921,-1.3992638155272628,-0.12202234425747055
1781555980780978944,1.9763028621673584,0.08930786699056625,-0.21388721466064453,-0.4446731209754944,-0.9523876309394836,0.25752025842666626,-0.16322197020053864,0.009424865245819092,-0.029172450304031372,-0.05088932812213898,0.7617085402373526,-0.13787341070569917,-0.6319651392218569,0.03756659448633541,-0.26045503346433263,-1.4010634214799478,-0.12141583103160593
1781555980791014912,1.9863388538360596,0.028780076652765274,-0.24783506989479065,-0.5110446810722351,-0.9539850354194641,0.25285449624061584,-0.16117507219314575,0.0012413859367370605,-0.04849350452423096,-0.03920336067676544,0.7611081330430316,-0.13609097106618157,-0.6331600995524005,0.03608456298421796,-0.25562949808483004,-1.4034275671043088,-0.1216493911636817
1781555980801049856,1.9963738918304443,-0.018616201356053352,-0.3155202269554138,-0.5665013194084167,-0.9557866454124451,0.24767710268497467,-0.15851864218711853,0.013174831867218018,-0.07503913342952728,-0.024525776505470276,0.7603206665178187,-0.13430437344162238,-0.6345888517406291,0.03423344686055335,-0.2502819238420809,-1.4064408870851537,-0.12251321548561729
1781555980811084800,2.00640869140625,-0.08016505092382431,-0.40272995829582214,-0.632158637046814,-0.9578189253807068,0.24201853573322296,-0.1549520194530487,0.03745454549789429,-0.09040719270706177,-0.02027994394302368,0.7592428565237541,-0.13252885996796243,-0.6363647485467314,0.03203772167362083,-0.24444569318455506,-1.4104099780814212,-0.1240197038717297
1781555980821119744,2.0164437294006348,-0.1193031296133995,-0.49310141801834106,-0.7173933386802673,-0.9601194262504578,0.2356906533241272,-0.1504012644290924,0.05653977394104004,-0.08783300220966339,-0.03427587449550629,0.7578478682652013,-0.13068815847016346,-0.638529541563276,0.02944825659892443,-0.23792917597647212,-1.4154106142928098,-0.1261403409862215
1781555980831155712,2.026479721069336,-0.12587635219097137,-0.5912138819694519,-0.8083296418190002,-0.962699830532074,0.22851815819740295,-0.1448739916086197,0.07488250732421875,-0.06994883716106415,-0.050789400935173035,0.756131706441166,-0.12864810223919856,-0.6411026965860437,0.026492121891709058,-0.23055529426013657,-1.4214299394870809,-0.1286391756308043
1781555980841190912,2.0365147590637207,-0.12402810901403427,-0.6590239405632019,-0.8827767372131348,-0.9655009508132935,0.2205009013414383,-0.13851818442344666,0.08810532093048096,-0.06199261546134949,-0.06054800748825073,0.7541332580544905,-0.12631033116789617,-0.6440392924999007,0.0232837211445442,-0.22232798645705723,-1.4283009985702082,-0.13117482092022542
1781555980851225856,2.0465497970581055,-0.15233539044857025,-0.7152765393257141,-0.948066234588623,-0.9684191942214966,0.2118014395236969,-0.13154634833335876,0.11015808582305908,-0.0684145987033844,-0.05203217267990112,0.7519178850754811,-0.12378343569853323,-0.6472283093729853,0.019816413282893557,-0.2134178571331911,-1.4357864878166755,-0.1338588833036106
1781555980861261824,2.0565857887268066,-0.21859456598758698,-0.764867901802063,-1.0052688121795654,-0.9714003205299377,0.20252497494220734,-0.12395701557397842,0.14022350311279297,-0.07654835283756256,-0.040853217244148254,0.7494818861747728,-0.12123169845264135,-0.650633819857835,0.015986752499547344,-0.20393563620886648,-1.4438757404381621,-0.13705117435123712
1781555980871296768,2.0666208267211914,-0.2618435025215149,-0.8399999737739563,-1.0503729581832886,-0.9744032621383667,0.1927649825811386,-0.11567224562168121,0.1730269193649292,-0.08450387418270111,-0.04311072826385498,0.7467909658257269,-0.11871753827619501,-0.6542706037209521,0.011807507056873905,-0.19397919894093038,-1.452638433509753,-0.14080829877466028
1781555980881331968,2.076655864715576,-0.28431445360183716,-0.9652620553970337,-1.0725690126419067,-0.9774091243743896,0.1826661378145218,-0.10632259398698807,0.20215588808059692,-0.0973694920539856,-0.05363529920578003,0.7437106689137368,-0.116197455251934,-0.6582832634407727,0.007467572689127231,-0.183697527657482,-1.4624423475075334,-0.14480769101627583
1781555980891367936,2.0866918563842773,-0.34124112129211426,-1.0733482837677002,-1.0733258724212646,-0.9803566336631775,0.17244352400302887,-0.09572960436344147,0.220331609249115,-0.11594022810459137,-0.03937172889709473,0.7401726785563312,-0.11377155455006428,-0.6627150453173918,0.003034733245290837,-0.17330981463316694,-1.473457185928482,-0.14908044357901584
1781555980901402880,2.096726894378662,-0.3785821199417114,-1.1738455295562744,-1.065154790878296,-0.9831677079200745,0.16222064197063446,-0.0840567797422409,0.2180463671684265,-0.13159626722335815,-0.011081747710704803,0.7362241903732294,-0.11153362500199107,-0.6674817301078998,-0.0015033118955500727,-0.16294068606515208,-1.4855078595699507,-0.15374013328693276
1781555980911437824,2.1067616939544678,-0.4358680248260498,-1.2258604764938354,-1.0225048065185547,-0.9857539534568787,0.1522308886051178,-0.07151733338832855,0.1879025101661682,-0.1540161818265915,0.008559592068195343,0.7319304839001363,-0.10953284470156216,-0.6724908092014815,-0.0060298025842263365,-0.15282507250848404,-1.4983723228160195,-0.158652536891918
1781555980921473792,2.116797685623169,-0.5138474702835083,-1.2013099193572998,-0.9835345149040222,-0.9880331754684448,0.14261628687381744,-0.05874502658843994,0.13564670085906982,-0.16280366480350494,0.03773367404937744,0.7275019440661198,-0.10793491972835818,-0.6774788113097217,-0.010649365109610159,-0.14310422380109608,-1.5114097075504376,-0.16414866991278998
1781555980931508736,2.1268327236175537,-0.5486459732055664,-1.1288650035858154,-0.9225747585296631,-0.9899700284004211,0.133427694439888,-0.0464395172894001,0.08269757032394409,-0.1523333191871643,0.071830153465271,0.7231772239684016,-0.1066988896892047,-0.6821990831621232,-0.015315705518720808,-0.13382679995848434,-1.5239206681954915,-0.17006357110711567
1781555980941543936,2.1368677616119385,-0.5584839582443237,-1.0360370874404907,-0.8467351198196411,-0.9915595650672913,0.12485195696353912,-0.03495476394891739,0.03524535894393921,-0.14706873893737793,0.08668208122253418,0.7190855518158825,-0.1057508357302839,-0.6865416069575326,-0.019835533043117047,-0.1251786209362424,-1.535558608177131,-0.17600905428206232
1781555980951579904,2.1469037532806396,-0.5848609209060669,-0.9149698615074158,-0.7748214602470398,-0.9928349852561951,0.11694864183664322,-0.024532224982976913,-0.004860937595367432,-0.14011147618293762,0.10200107097625732,0.7153180977247567,-0.10511452409323324,-0.690423655613458,-0.024211221875376852,-0.11721688055608578,-1.546092085951511,-0.18203037060745067
1781555980961614848,2.1569387912750244,-0.5606959462165833,-0.7980201840400696,-0.689327597618103,-0.9938412308692932,0.10974490642547607,-0.015354713425040245,-0.03345674276351929,-0.11474978923797607,0.12511122226715088,0.7119486241660213,-0.10474978183717501,-0.6937940086029384,-0.028400374033893783,-0.10996640359915691,-1.5553476903154901,-0.18802368701351557
1781555980971649792,2.166973829269409,-0.4723416268825531,-0.6837950944900513,-0.5758367776870728,-0.9946048855781555,0.10347303003072739,-0.007391214370727539,-0.06302762031555176,-0.09874279797077179,0.12387681007385254,0.7089900130084651,-0.10449146260181671,-0.6966964381654126,-0.03207550425643923,-0.10365856492205161,-1.5633651561067754,-0.19331305554967831
1781555980981684992,2.177008867263794,-0.4952123165130615,-0.6188741326332092,-0.42509302496910095,-0.9951426386833191,0.0984431803226471,-0.000496172986458987,-0.08905547857284546,-0.0949336364865303,0.13431578874588013,0.706405888003587,-0.10451622395391508,-0.6991625507969684,-0.03519823303994345,-0.09860287974810199,-1.57029773200357,-0.19812587474212365
1781555980991720960,2.187044858932495,-0.4829724133014679,-0.37319430708885193,-0.3505713641643524,-0.9955034852027893,0.09460224956274033,0.004814133048057556,-0.10447204113006592,-0.07618489861488342,0.16666412353515625,0.7043775481919625,-0.10498589422247052,-0.7009886079505009,-0.03801571455633926,-0.09474392769535377,-1.575632166538261,-0.20303919273802915
1781555981001755648,2.197079658508301,-0.47717180848121643,-0.25420162081718445,-0.28709015250205994,-0.9957817792892456,0.09136901050806046,0.008386784233152866,-0.1378852128982544,-0.07487426698207855,0.1711634397506714,0.7029595269642163,-0.10561832488398644,-0.7021667620536614,-0.04067538411860151,-0.09149661910830702,-1.5792184395440865,-0.2078665924251701
1781555981011790848,2.2071146965026855,-0.4898329973220825,-0.13067780435085297,-0.1960659623146057,-0.9959827661514282,0.08889490365982056,0.010779310949146748,-0.21188777685165405,-0.09248070418834686,0.1825343370437622,0.7019623175667382,-0.10649584502934295,-0.7028856879903175,-0.04312026719935844,-0.08901240041711314,-1.581618692432387,-0.21268185790968677
1781555981021826816,2.2171506881713867,-0.588503897190094,0.014483774080872536,-0.16689236462116241,-0.9961575865745544,0.08677998185157776,0.011803584173321724,-0.30607324838638306,-0.10490742325782776,0.1911689043045044,0.7014189193558046,-0.10789811627226073,-0.7030361218193596,-0.04593190381544166,-0.08688927591380399,-1.5826448854205708,-0.21870541987713404
1781555981031861760,2.2271857261657715,-0.5180802941322327,0.32881906628608704,-0.08839250355958939,-0.9962729215621948,0.08559895306825638,0.010638800449669361,-0.4001656770706177,-0.11214924603700638,0.19181489944458008,0.7016724624278874,-0.10938236691518077,-0.7023922680618938,-0.048336405937876505,-0.0857038332367242,-1.5814745217096922,-0.22418029870832418
1781555981041896704,2.2372207641601562,-0.5209229588508606,0.7050124406814575,-0.094138003885746,-0.9963935613632202,0.08464546501636505,0.0059217349626123905,-0.4987541437149048,-0.11728400737047195,0.17585623264312744,0.7031798026639995,-0.11076101937699587,-0.7004947280520528,-0.050767235094954136,-0.08474686844067163,-1.5767394254436178,-0.22939465169251225
1781555981051932928,2.2472567558288574,-0.5027916431427002,1.0234012603759766,-0.14412739872932434,-0.9965055584907532,0.08349329233169556,-0.002356106648221612,-0.5885011553764343,-0.11172205954790115,0.13733536005020142,0.705917450595988,-0.11195454287427832,-0.6973436218640606,-0.05346577578913169,-0.08359060819701526,-1.5684319622489005,-0.23458360578386425
1781555981061967872,2.257291793823242,-0.4048027992248535,1.2584686279296875,-0.23783071339130402,-0.9965725541114807,0.08162844926118851,-0.013411518186330795,-0.5945833921432495,-0.0800720676779747,0.0973653793334961,0.7095960998072912,-0.1126030942393317,-0.6932638632407712,-0.05638328270102018,-0.08171937227821835,-1.5573394952973005,-0.23921157539002275
1781555981072002816,2.267326831817627,-0.2777646780014038,1.4179131984710693,-0.31823739409446716,-0.9965293407440186,0.078893281519413,-0.026554454118013382,-0.5820839405059814,-0.06393967568874359,0.04236257076263428,0.7139730512984804,-0.11246268282234938,-0.6885309856260011,-0.059327297317857956,-0.07897535531875235,-1.5441556953178066,-0.24270927189499786
1781555981082038784,2.277362823486328,-0.21530157327651978,1.5630265474319458,-0.39915356040000916,-0.99629807472229,0.07540596276521683,-0.04128074645996094,-0.5288636684417725,-0.08092964440584183,0.021200180053710938,0.7188617624804163,-0.11164196184528076,-0.6832976654689636,-0.06227469903386288,-0.07547760591095917,-1.5293858817916823,-0.24524545177785162
1781555981092073984,2.287397861480713,-0.11261247098445892,1.665814757347107,-0.494686484336853,-0.9958313703536987,0.07098381966352463,-0.0572802759706974,-0.4455137252807617,-0.09208673983812332,0.030852027237415314,0.7241298649507705,-0.110207404264584,-0.6776534437473712,-0.06539118930730688,-0.07104356290511528,-1.5133395815797444,-0.24719532773980302
1781555981102108672,2.2974326610565186,0.09307917207479477,1.752210021018982,-0.5210853815078735,-0.9950610399246216,0.06577667593955994,-0.07434257864952087,-0.35508233308792114,-0.08190523087978363,0.02592647820711136,0.7297311918347034,-0.10792873349876358,-0.6716994104092796,-0.06829040387955068,-0.06582420244860643,-1.4962232915945841,-0.24771525729303426
1781555981112144896,2.307468891143799,0.37606480717658997,1.817793846130371,-0.5051330327987671,-0.9939019083976746,0.060371775180101395,-0.09227240085601807,-0.22580939531326294,-0.0694812759757042,0.032091736793518066,0.7356523619752735,-0.10469203016243742,-0.6655098638676347,-0.0703686814813985,-0.060408508902241344,-1.4782231410868811,-0.24579217307130352
1781555981122179840,2.3175036907196045,0.6294198632240295,1.8201112747192383,-0.4904845356941223,-0.9923343062400818,0.05484427884221077,-0.11074678599834442,-0.07819181680679321,-0.05914724990725517,0.021116673946380615,0.7417961207236583,-0.10050285363256965,-0.6591856967527489,-0.07149804448518474,-0.05487180893589132,-1.45965393609451,-0.24126754020266433
1781555981132214784,2.3275387287139893,0.8163934946060181,1.7514532804489136,-0.43774330615997314,-0.9904313683509827,0.04928981512784958,-0.1289040446281433,0.07928329706192017,-0.05998622626066208,0.03849571943283081,0.7478687844568987,-0.0955795871032276,-0.6530026947835972,-0.07172417756890945,-0.0493097967891478,-1.4413744142991571,-0.2345347200394732
1781555981142250752,2.3375747203826904,0.7932154536247253,1.6228972673416138,-0.3738785684108734,-0.9882923364639282,0.04408090189099312,-0.14606553316116333,0.2575336694717407,-0.07873360812664032,0.10195237398147583,0.753614048356338,-0.09056107512573645,-0.6471212599668343,-0.0714049276092554,-0.04409519174260157,-1.4240626973560646,-0.2269946230942972
1781555981152285696,2.347609758377075,0.6425377726554871,1.4663782119750977,-0.2586134970188141,-0.9860529899597168,0.039684951305389404,-0.1616317182779312,0.4143518805503845,-0.10776965320110321,0.15435326099395752,0.7587986046307676,-0.08618918863162098,-0.6416818252503578,-0.07099743040291519,-0.0396953746741344,-1.4083233253305205,-0.22030752127509637
1781555981162320896,2.35764479637146,0.37009531259536743,1.283880352973938,-0.07268118113279343,-0.9837943315505981,0.03711841255426407,-0.17541714012622833,0.5458822846412659,-0.15174242854118347,0.16522425413131714,0.7633652440733633,-0.08318374647649622,-0.6366882258253085,-0.07058458675014813,-0.03712694001453004,-1.3943440120297845,-0.21549931768688874
1781555981172355840,2.3676798343658447,0.04118241369724274,1.0936558246612549,0.10594368726015091,-0.9816282391548157,0.03691363334655762,-0.18719899654388428,0.6587980389595032,-0.16421771049499512,0.15343129634857178,0.7672343568177922,-0.08203492621225235,-0.6321952002297686,-0.07036307377080094,-0.036922021006153743,-1.3823564003811208,-0.2134557563071021
1781555981182391808,2.377715826034546,-0.21908165514469147,0.8834611177444458,0.2641972601413727,-0.9796489477157593,0.0389215312898159,-0.19690866768360138,0.7621043920516968,-0.1332818865776062,0.14208389818668365,0.7703922091013954,-0.08263800959993839,-0.6282647722689576,-0.07035714157764372,-0.03893136413031222,-1.372440161583986,-0.21403365496493978
1781555981192427008,2.3877508640289307,-0.3983105421066284,0.6473303437232971,0.3598329722881317,-0.9779751896858215,0.04267263412475586,-0.20431256294250488,0.8529142141342163,-0.06208181008696556,0.11410260200500488,0.7727830906167564,-0.08458857351469394,-0.6250507911334122,-0.0704459573769074,-0.042685597202396564,-1.364844636309884,-0.21650637179931953
1781555981202461696,2.3977856636047363,-0.48076891899108887,0.4048299491405487,0.421567440032959,-0.9767017960548401,0.047436997294425964,-0.2092929184436798,0.9340991973876953,0.03081008419394493,0.0865359902381897,0.7743849693537765,-0.08734129233450141,-0.6226757095349101,-0.07052994935446652,-0.04745480449614408,-1.3597033053939978,-0.22002187123390368
1781555981212497920,2.4078218936920166,-0.5360358953475952,0.06358873844146729,0.437227338552475,-0.9759695529937744,0.05276508256793022,-0.211422398686409,1.005647897720337,0.11404401063919067,0.07587862014770508,0.7750686213463404,-0.09061191999580327,-0.6213519751613853,-0.07056856084179465,-0.05278959756928482,-1.3574645437704345,-0.224177404312827
1781555981222532864,2.4178566932678223,-0.4557589292526245,-0.4728318154811859,0.46364083886146545,-0.9761309027671814,0.0581907257437706,-0.20924252271652222,1.0550036430358887,0.167730912566185,0.04284542798995972,0.7743886788446812,-0.09402101160929914,-0.6217224367347969,-0.07031022316435659,-0.05822361805009904,-1.3596328514380351,-0.22816257973475898
1781555981232567808,2.427891731262207,-0.3914901912212372,-1.1452890634536743,0.5327008366584778,-0.9774740934371948,0.06393075734376907,-0.20114021003246307,1.0909537076950073,0.16670584678649902,-0.007432162761688232,0.7718599522878772,-0.09747720354833382,-0.6244422204870322,-0.06929924044770487,-0.06397438549354917,-1.367853620453933,-0.2312405350066068
1781555981242603776,2.437927722930908,-0.47746288776397705,-1.893071174621582,0.5475881695747375,-0.9800621867179871,0.07010335475206375,-0.18591353297233582,1.0993707180023193,0.13669902086257935,-0.03742939233779907,0.7670486649931442,-0.10135195973735198,-0.6298976194634139,-0.06777325116118194,-0.07016089929334939,-1.3833281325432567,-0.23436440596831365
1781555981252638720,2.447962760925293,-0.6368575692176819,-2.508384943008423,0.5096221566200256,-0.9835516214370728,0.07632651180028915,-0.1637091189622879,1.0406804084777832,0.10824381560087204,-0.027788713574409485,0.7599011582206338,-0.10593553236771344,-0.6379052485057612,-0.06636922500471615,-0.07640081820217358,-1.4058614838032155,-0.23898056210060376
1781555981262673920,2.4579977989196777,-0.6688138842582703,-2.9446651935577393,0.4673764705657959,-0.9872863292694092,0.08214162290096283,-0.1360824555158615,0.9119536876678467,0.12043406069278717,-0.029215991497039795,0.7508631460958473,-0.11091456420811045,-0.6478091785145386,-0.06515938583825115,-0.0822342740481362,-1.4338245496298345,-0.24481162355312852
1781555981272709888,2.468033790588379,-0.5971649885177612,-3.193523645401001,0.39901232719421387,-0.9906437397003174,0.08723346889019012,-0.10495448857545853,0.7395451068878174,0.16841229796409607,-0.04633641242980957,0.7405381593590028,-0.11573426010089657,-0.6588841614587705,-0.06387906232317153,-0.08734448408535643,-1.4652443307844323,-0.2506837165352412
1781555981282744832,2.4780688285827637,-0.44370758533477783,-3.262443780899048,0.31162309646606445,-0.9932041168212891,0.09123589098453522,-0.07226041704416275,0.5326481461524963,0.19297431409358978,-0.08086156845092773,0.7295452616420968,-0.1198756565862315,-0.6704473280840916,-0.0624012812011023,-0.09136294088426805,-1.4981694441356235,-0.25561893478149067
1781555981292780032,2.4881038665771484,-0.22659896314144135,-3.3501508235931396,0.2364598959684372,-0.9947910904884338,0.09416410326957703,-0.03904041275382042,0.2957248091697693,0.15389806032180786,-0.1037970781326294,0.7182304100025847,-0.12305499515274564,-0.6821563328934412,-0.06054299461436918,-0.09430382001207609,-1.531571621451651,-0.2588722808816171
1781555981302816000,2.4981398582458496,-0.2932429611682892,-3.422703742980957,-0.1588062047958374,-0.9954398274421692,0.0952773168683052,-0.004682790953665972,0.02704077959060669,0.040785305202007294,-0.05001997947692871,0.7063251466878344,-0.1251475932813455,-0.6942598104516794,-0.05870458455499679,-0.09542205981209782,-1.5660921182301362,-0.26081912169564164
1781555981312850688,2.5081746578216553,-0.3122651278972626,-3.7634119987487793,-0.5656243562698364,-0.9954449534416199,0.09039710462093353,0.030293649062514305,-0.4163134694099426,-0.15430089831352234,0.12052416801452637,0.6937772862621132,-0.12563310180502807,-0.7066563154292956,-0.05938224710001612,-0.09052067531534687,-1.6012192065497743,-0.2640824537383974
1781555981322885632,2.51820969581604,-0.45421454310417175,-2.852771282196045,-0.062079668045043945,-0.9941599369049072,0.0862937793135643,0.06480289995670319,-1.2559468746185303,-0.4106956422328949,0.30360519886016846,0.6811688248834906,-0.12670371997139784,-0.7185733219712792,-0.06006309142758878,-0.08640123773829844,-1.6358878223635906,-0.2681066533354335
1781555981332921856,2.528245687484741,-0.08647754043340683,-0.2929992079734802,1.5814568996429443,-0.9922701716423035,0.09347870945930481,0.08162079006433487,-2.460824489593506,-0.6046175956726074,0.36814725399017334,0.6751907343952457,-0.13086061823977654,-0.7236614499704684,-0.05750827610207036,-0.09361538741297168,-1.6528681786674582,-0.2715554217252428
1781555981342956800,2.538280725479126,0.37798812985420227,2.03930926322937,2.096622943878174,-0.9910238981246948,0.11287590861320496,0.07162870466709137,-3.034595489501953,-0.44721123576164246,0.2730368375778198,0.6793952831958228,-0.13711586172222254,-0.7190365717080544,-0.051065433912048694,-0.11311698656693031,-1.6429483336529374,-0.27161175222455947
1781555981352991744,2.5483157634735107,0.607565701007843,2.5518367290496826,1.7372134923934937,-0.9900628924369812,0.13242106139659882,0.04733198136091232,-2.1901283264160156,0.027780994772911072,-0.13247597217559814,0.6887477342590254,-0.14175367803124897,-0.7096279912597331,-0.04427953160734982,-0.1328111530788668,-1.6185670005308033,-0.2676947451336916
1781555981363027712,2.558351755142212,0.7499726414680481,2.074364185333252,1.3618677854537964,-0.9887393712997437,0.14788492023944855,0.02290700003504753,-0.9692075252532959,0.20004601776599884,-0.601001501083374,0.6979147852438915,-0.1443167038563636,-0.7004471351802252,-0.0382302976191566,-0.14842933218222595,-1.5939600684936137,-0.2613411354255029
1781555981373062912,2.5683867931365967,0.856902003288269,1.1152063608169556,1.3359088897705078,-0.9869136214256287,0.16114750504493713,0.005753721576184034,-0.22976118326187134,0.04542599618434906,-0.7965404987335205,0.7043492424236133,-0.14579075494073718,-0.693989853369491,-0.03186481031180987,-0.16185324450816943,-1.5766262760086094,-0.2532139251610245
1781555981383097856,2.5784218311309814,0.6274784207344055,0.35116472840309143,1.357716679573059,-0.9846410155296326,0.17457303404808044,-0.002527407603338361,0.1802281141281128,-0.13036830723285675,-0.7248743772506714,0.707561040149805,-0.14768754405795328,-0.6905973396743296,-0.02492253505917516,-0.17547212456638178,-1.568229501041672,-0.24544179170823308
1781555981393132800,2.588456869125366,0.4075481593608856,-0.13459931313991547,1.2771809101104736,-0.9822574853897095,0.18748566508293152,-0.004411153960973024,0.4128605127334595,-0.19151397049427032,-0.40823227167129517,0.7084195613952402,-0.15046209885322007,-0.6893152977623579,-0.018638007442480748,-0.18860178814612452,-1.5663055242673543,-0.24036808986065183
1781555981403169024,2.5984928607940674,0.8524097800254822,-0.47651857137680054,1.4607692956924438,-0.9796466827392578,0.2007155418395996,-0.002442345954477787,0.5123308897018433,-0.14540238678455353,-0.005721092224121094,0.7078748672680453,-0.15306897788145452,-0.6894553756598497,-0.0115974320385879,-0.20208827134863488,-1.56830324335995,-0.23435242164496103
1781555981413203712,2.608527660369873,1.672913908958435,-0.7645442485809326,1.8227075338363647,-0.9761924743652344,0.21690425276756287,0.0010103540262207389,0.5692099332809448,0.024795010685920715,0.22253096103668213,0.7067490154889159,-0.1543115038280295,-0.6904296754831326,-0.0008797041335517543,-0.21864210818846613,-1.5718313210802082,-0.22135612685764347
1781555981423238656,2.618562698364258,2.0709686279296875,-0.8288208246231079,1.829008936882019,-0.9719542860984802,0.23512428998947144,0.004635373596101999,0.5761260390281677,0.26141196489334106,0.19487333297729492,0.7053468681139037,-0.1539546186834323,-0.6918205419628171,0.012966856911896836,-0.2373464433068502,-1.5755654179916523,-0.20170719225179976
1781555981433274624,2.628598690032959,1.8968706130981445,-0.7397300601005554,1.4607810974121094,-0.9678671956062317,0.2513555586338043,0.007324100937694311,0.5359824299812317,0.4177881181240082,0.09977734088897705,0.7040183277235582,-0.15253817313813145,-0.6931047223893788,0.02638578261971322,-0.25408052529575376,-1.5783634406543028,-0.18106694775268273
1781555981443309824,2.6386337280273438,1.5014915466308594,-0.779840886592865,1.1549001932144165,-0.964454174041748,0.26405206322669983,0.010232726112008095,0.48325300216674805,0.43910345435142517,-0.05167555809020996,0.7024793471883606,-0.15086576261137968,-0.6945184551864015,0.03750217835675681,-0.26722098337798345,-1.5814057911031663,-0.1633672156631678
1781555981453344768,2.6486687660217285,0.8647618293762207,-0.8704363107681274,1.0465785264968872,-0.961415708065033,0.27469602227211,0.01489840168505907,0.46008819341659546,0.3223193883895874,-0.191869854927063,0.7003041706057953,-0.1502918309676495,-0.6963200173806244,0.04609663222816542,-0.2782735335759656,-1.5862914027352668,-0.1511041625867733
1781555981463380736,2.6587047576904297,0.13648469746112823,-1.1620087623596191,1.133325457572937,-0.9581952691078186,0.2851792871952057,0.023120764642953873,0.4509626626968384,0.10480481386184692,-0.24234378337860107,0.6969174766803373,-0.15205364575043717,-0.6988848770473147,0.052398908698818095,-0.28919348691080066,-1.5949211371939507,-0.1460632158751294
1781555981473416960,2.66874098777771,-0.5194475650787354,-1.6309629678726196,1.2899107933044434,-0.954237699508667,0.29673445224761963,0.03713357821106911,0.42988473176956177,-0.1429259181022644,-0.1685270071029663,0.6915093669871334,-0.15662839654417265,-0.7028757598712132,0.05699048021091247,-0.3012712728343193,-1.6096910907912436,-0.14857494060522572
1781555981483452160,2.6787760257720947,-0.8745816946029663,-1.9181609153747559,1.4074286222457886,-0.9492779970169067,0.30933505296707153,0.056416451930999756,0.33752280473709106,-0.3102964162826538,-0.06499196588993073,0.6841970625881452,-0.16338745159984971,-0.7081756613525992,0.06054755539742684,-0.3144936955182593,-1.6301574123538791,-0.15686592553876685
1781555981493488128,2.688812017440796,-0.7618167996406555,-1.9954137802124023,1.440264105796814,-0.9434251189231873,0.32232266664505005,0.0778282955288887,0.14012616872787476,-0.32868558168411255,-0.050667643547058105,0.6760072546901316,-0.17077417859271615,-0.7139680170579054,0.06403192908324296,-0.32818208165393753,-1.6531054166119428,-0.16692405719745326
1781555981503523072,2.6988470554351807,-0.22054240107536316,-1.8041986227035522,1.446321725845337,-0.9369699358940125,0.3354945182800293,0.09762614220380783,-0.12191379070281982,-0.2233271300792694,-0.09596298635005951,0.6681766270362224,-0.17703310594735716,-0.7193555112920177,0.06875304367395027,-0.342130135259055,-1.6746151766993935,-0.17371078792818434
1781555981513558272,2.7088820934295654,0.4110163748264313,-1.3120224475860596,1.4338876008987427,-0.9303503036499023,0.34912922978401184,0.11206004023551941,-0.364205539226532,-0.09517711400985718,-0.1306605041027069,0.6620363946982223,-0.1813548205867409,-0.723284487846353,0.07535227154601595,-0.3566417117975703,-1.6906681496269407,-0.17436937630818616
1781555981523594240,2.7189180850982666,0.9075270891189575,-0.7052577137947083,1.3707696199417114,-0.9241807460784912,0.36294862627983093,0.11899006366729736,-0.5299057364463806,7.328391075134277e-05,-0.17473040521144867,0.6584513367754591,-0.18382866738430795,-0.7250531369262702,0.08334848082768163,-0.37143035268683067,-1.698843815375167,-0.1690893367277589
1781555981533629184,2.7289531230926514,1.2511621713638306,-0.34093838930130005,1.3835062980651855,-0.9184914827346802,0.37693554162979126,0.11955370008945465,-0.5372122526168823,0.00638049840927124,-0.18429672718048096,0.6570415723226395,-0.18500191116445103,-0.7249490621865239,0.0923014235617774,-0.386485578974917,-1.7002317207113047,-0.15931693465376046
1781555981543663872,2.738987922668457,1.365749716758728,-0.32169437408447266,1.4499337673187256,-0.91266268491745,0.3915101885795593,0.11733114719390869,-0.3628194332122803,-0.08068868517875671,-0.1858888864517212,0.6564429071870364,-0.18563446927218843,-0.7240203157212478,0.10206435259913688,-0.4022722227299624,-1.6986541765692145,-0.14703131213488244
1781555981553700096,2.749023914337158,1.327941656112671,-0.526089608669281,1.5176597833633423,-0.9062327742576599,0.4066334664821625,0.11572094261646271,-0.1251240372657776,-0.18159684538841248,-0.1695387363433838,0.6553936179225547,-0.18635041609101582,-0.7232800255612972,0.11224401956391081,-0.4187660770056693,-1.6978034854516422,-0.13442394606102326
1781555981563735040,2.759058952331543,1.2328606843948364,-0.7583514451980591,1.604720115661621,-0.8990038633346558,0.4222415089607239,0.11620767414569855,0.04802119731903076,-0.2514651417732239,-0.11559736728668213,0.6533442432963799,-0.1874043165116762,-0.7231759527443313,0.12262745180324716,-0.43591665515660605,-1.6993462227223644,-0.12255559169932272
1781555981573769984,2.7690939903259277,1.1022334098815918,-0.9177359938621521,1.690148949623108,-0.8908854126930237,0.43842363357543945,0.11877792328596115,0.13922208547592163,-0.2567676901817322,-0.06531117856502533,0.6503148380385151,-0.18903611003466023,-0.7236396278694649,0.133048035875202,-0.4538440069498452,-1.7033403625394319,-0.11210084545948018
1781555981583805952,2.779129981994629,1.0323039293289185,-0.9599691033363342,1.7089498043060303,-0.8821069002151489,0.4548695981502533,0.12239844352006912,0.1817130446434021,-0.17082712054252625,-0.031028717756271362,0.6467261198291501,-0.19112900092749874,-0.7243403394596477,0.1433396355663742,-0.4722257778635346,-1.708672884044322,-0.1029057844877244
1781555981593841152,2.7891650199890137,1.0817606449127197,-0.9857482314109802,1.6825435161590576,-0.8730224370956421,0.4711083173751831,0.12605126202106476,0.2007354497909546,-0.05449756979942322,-0.01974332332611084,0.6429472968572634,-0.1931473738860507,-0.7250653210126577,0.1536007434407882,-0.4905468353412591,-1.7141902636068382,-0.09375122346934575
1781555981603876096,2.7992000579833984,1.1574522256851196,-1.0621322393417358,1.662016749382019,-0.86367267370224,0.4871150851249695,0.12957027554512024,0.224237859249115,0.022650539875030518,0.00040400028228759766,0.6389845094991379,-0.19481200337007012,-0.725832917753219,0.16405385131254646,-0.5087833668766272,-1.7197082228520177,-0.0838529833669316
1781555981613912064,2.8092360496520996,1.0897825956344604,-1.1293394565582275,1.6563961505889893,-0.853988766670227,0.5029031038284302,0.1333850771188736,0.24514788389205933,0.03701382875442505,0.004203423857688904,0.6346898157543647,-0.19628425897957677,-0.7267496307106407,0.1745744636512321,-0.5269542366875296,-1.7257351506234608,-0.07376188672571467
1781555981623947264,2.8192710876464844,0.842563271522522,-1.201360821723938,1.6502183675765991,-0.8439381122589111,0.518303394317627,0.13831117749214172,0.2558949589729309,0.012931287288665771,0.00664733350276947,0.6299192490856176,-0.19817970148414918,-0.7279288373817395,0.18451595641781177,-0.5448658713272423,-1.733240038728299,-0.06560052885159175
1781555981633982208,2.829306125640869,0.576865553855896,-1.3317975997924805,1.6191943883895874,-0.8334915041923523,0.5330986976623535,0.14524966478347778,0.26235514879226685,-0.006319582462310791,0.027861222624778748,0.6244437980193644,-0.2007646598862205,-0.7296015235437451,0.19350714684032624,-0.5622589072293875,-1.743330220667815,-0.060657181036143516
1781555981644018176,2.8393421173095703,0.4736400842666626,-1.4524189233779907,1.5795055627822876,-0.8227555751800537,0.5471402406692505,0.15398338437080383,0.2381150722503662,-0.03134739398956299,-0.005576372146606445,0.6182932423397927,-0.20361769906134405,-0.7318001936274912,0.20179645251816786,-0.5789439210503788,-1.7558116338250966,-0.05794616948441435
1781555981654052864,2.849376916885376,0.4362490475177765,-1.5441957712173462,1.5756964683532715,-0.8116126656532288,0.5607808232307434,0.16373705863952637,0.18009716272354126,-0.06313067674636841,-0.05274462699890137,0.6116141383213184,-0.20641923719621796,-0.7343429885029249,0.20990393595572676,-0.5953285531485313,-1.7698671359319593,-0.05607601417723915
1781555981664088064,2.8594119548797607,0.36179691553115845,-1.4853286743164062,1.5779616832733154,-0.8000239133834839,0.5742228627204895,0.1738663613796234,0.10814476013183594,-0.05714839696884155,0.0032118260860443115,0.6046826526922208,-0.20940702047718315,-0.7369408925379219,0.2177740825986792,-0.6116545681819644,-1.7847950861939705,-0.05532665576637877
1781555981674124032,2.869447946548462,0.47896242141723633,-1.3309657573699951,1.5470751523971558,-0.788382351398468,0.5874168872833252,0.18274150788784027,0.030630946159362793,-0.014281630516052246,0.10529860854148865,0.5981547943742165,-0.2124223571369753,-0.7390855792591438,0.2254772591187264,-0.6278632777895156,-1.7985669549332925,-0.05471262991394846
1781555981684158976,2.8794829845428467,0.7211902737617493,-1.2080284357070923,1.5123928785324097,-0.7769107818603516,0.600548505783081,0.18907923996448517,-0.03731334209442139,0.03450697660446167,0.1265793740749359,0.5923406136699605,-0.21482140404597458,-0.7405345244952428,0.2336512348207726,-0.6441869061607013,-1.8095283103786164,-0.05175359715715522
1781555981694194176,2.8895180225372314,0.8230316638946533,-1.0210771560668945,1.4758739471435547,-0.7656567692756653,0.61360102891922,0.19303713738918304,-0.06411606073379517,0.07606565952301025,0.10914789140224457,0.5872179198231412,-0.2167167056733701,-0.7413180414918338,0.2421910300987453,-0.6606130309091929,-1.817768976993822,-0.04671585634672526
1781555981704229120,2.899553060531616,0.7698648571968079,-0.8214019536972046,1.4625920057296753,-0.7547541856765747,0.6263697743415833,0.19495421648025513,-0.04303634166717529,0.09445542097091675,0.13176703453063965,0.5829050918494819,-0.21869149856750886,-0.7413846062466637,0.2504887272011489,-0.6768874510122156,-1.8235728590181906,-0.04137887815679282
1781555981714265088,2.9095890522003174,0.6628475785255432,-0.7551723122596741,1.5188502073287964,-0.7437946200370789,0.6389310956001282,0.19630777835845947,-0.015345454216003418,0.0517427921295166,0.09168663620948792,0.5788802070701466,-0.22111250160960727,-0.7411228994686927,0.2583483773079576,-0.6931079502769245,-1.8288395655515441,-0.03723581436730284
1781555981724300032,2.919624090194702,0.4481227397918701,-0.7690476775169373,1.5901705026626587,-0.732215404510498,0.6515799760818481,0.19825242459774017,0.03267627954483032,0.0002754330635070801,0.010304674506187439,0.5746520675691291,-0.2242727537935486,-0.740829227973908,0.2657983633968398,-0.709665412370419,-1.8352135556759528,-0.035352965592448174
1781555981734336256,2.9296600818634033,0.2825588285923004,-0.8805201053619385,1.6001429557800293,-0.7200239896774292,0.6639158129692078,0.20194320380687714,0.09468835592269897,-0.02474045753479004,-0.021050244569778442,0.5698258957201633,-0.2280749372905559,-0.7409139098047699,0.27262937351888833,-0.7260430458212892,-1.8442383140718455,-0.03646832174881287
1781555981744371200,2.939695119857788,0.21276934444904327,-0.883995532989502,1.6472721099853516,-0.7072719931602478,0.6760445237159729,0.20671306550502777,0.1078152060508728,-0.0407448410987854,0.034589529037475586,0.5645327015878847,-0.23218180159843127,-0.7412476964315265,0.27918879665401874,-0.7423813418931648,-1.8551446602793749,-0.03934735180478402
1781555981754405888,2.9497299194335938,0.19666440784931183,-0.7563310861587524,1.6545233726501465,-0.6941946744918823,0.6881201863288879,0.2111494541168213,0.1089743971824646,-0.01970905065536499,0.18919534981250763,0.5593534572771013,-0.2366265070957875,-0.7413384001377367,0.28556762859713103,-0.7588951744756239,-1.8660694830347542,-0.04325259170913418
1781555981764441088,2.9597649574279785,0.36896055936813354,-0.60634845495224,1.6156630516052246,-0.6813638806343079,0.6999892592430115,0.21391159296035767,0.09322923421859741,0.06052398681640625,0.23695515096187592,0.5547957953546214,-0.2409577634742866,-0.7408745847433437,0.2919688049332409,-0.7753824329191368,-1.8749981576894974,-0.04632711937913118
1781555981774477056,2.9698009490966797,0.5749512910842896,-0.4618472158908844,1.5021252632141113,-0.6691250205039978,0.7115978002548218,0.2142435759305954,0.0882381796836853,0.14014780521392822,0.16223657131195068,0.55103899369626,-0.24465137434158182,-0.7397752981955805,0.29872104910218755,-0.7917697656627453,-1.8806667692284902,-0.046644862217705384
1781555981784512000,2.9798359870910645,0.7400502562522888,-0.2752665579319,1.316830039024353,-0.6581896543502808,0.7224169373512268,0.21189698576927185,0.10444819927215576,0.2176617980003357,0.07998836040496826,0.5483742623874864,-0.2475188010878367,-0.7380263770792358,0.30551147742868123,-0.8072913903167053,-1.8822572466057048,-0.04380778680484639
1781555981794547200,2.989871025085449,0.7569724917411804,-0.22348032891750336,1.154099941253662,-0.6486923694610596,0.7321121692657471,0.20787063241004944,0.10282444953918457,0.2439621090888977,-0.006408810615539551,0.5465362979227312,-0.24959838775474516,-0.7359592127700667,0.31203018747206107,-0.8214174948181902,-1.8809034503418949,-0.038643543616958834
1781555981804583168,2.9999070167541504,0.5276008248329163,-0.22755521535873413,1.0396990776062012,-0.6401876211166382,0.7404927611351013,0.20452453196048737,0.08684289455413818,0.19877725839614868,-0.027247905731201172,0.5448231489263595,-0.25152006490078055,-0.7341661435644856,0.3176561959395126,-0.8338032605319309,-1.880023820195461,-0.03450076517110032
1781555981814618112,3.009942054748535,0.3218524158000946,-0.3196534514427185,1.1024048328399658,-0.6316671371459961,0.7481521964073181,0.2031368911266327,0.043852925300598145,0.08162063360214233,-0.008602648973464966,0.5426292625623268,-0.2538423196491039,-0.7328932565778099,0.322466918173459,-0.8452728765597107,-1.8819395605880398,-0.033341178311231415
1781555981824653056,3.01997709274292,0.29314354062080383,-0.41412511467933655,1.243452787399292,-0.6221643686294556,0.7560549378395081,0.20320594310760498,-0.02026122808456421,-0.051693856716156006,0.020991474390029907,0.5398021681661356,-0.25677215676006443,-0.7318955065889121,0.3271249888593298,-0.8572644477315633,-1.8864849406823982,-0.03468217728078777
1781555981834689024,3.030013084411621,0.4563724100589752,-0.38440021872520447,1.3800183534622192,-0.6112749576568604,0.7649563550949097,0.20294074714183807,-0.08811169862747192,-0.09889483451843262,0.0653546154499054,0.5365913527394977,-0.2599308402025796,-0.7306889420547052,0.3325649554639428,-0.8709735619158234,-1.8913426544905374,-0.03564620373715674
1781555981844724224,3.040048122406006,0.6719553470611572,-0.26237180829048157,1.4137970209121704,-0.5999788045883179,0.7744576930999756,0.2006014883518219,-0.14591658115386963,-0.06361162662506104,0.09725013375282288,0.5338899997480961,-0.26308867821622733,-0.7287558543245223,0.33861606679610085,-0.8858574407333082,-1.893459469481541,-0.03460455738301
1781555981854758912,3.0500829219818115,0.7791613936424255,-0.1728120893239975,1.4148564338684082,-0.5884155631065369,0.7844107151031494,0.19612924754619598,-0.15961599349975586,0.002484917640686035,0.05599173903465271,0.5316479175933064,-0.26596906833407774,-0.7261715190924405,0.34537772658268323,-0.9017455055247766,-1.8925326846026487,-0.03070193314330825
1781555981864794880,3.0601189136505127,0.6914869546890259,-0.18594440817832947,1.4078153371810913,-0.5769236087799072,0.7941033840179443,0.1912028044462204,-0.10738718509674072,0.017542004585266113,0.008610934019088745,0.5295526537791733,-0.26877747815119407,-0.7234362909254345,0.3520971668597895,-0.9175309406474743,-1.8908219688237762,-0.02629332797867497
1781555981874830080,3.0701539516448975,0.6013591885566711,-0.3694157004356384,1.4273890256881714,-0.5652837753295898,0.8032999634742737,0.18752017617225647,-0.032113075256347656,-0.056366801261901855,0.010432153940200806,0.5270543462966775,-0.27173889652929084,-0.7210534357960325,0.35840450638211907,-0.9328154519926369,-1.891100915079025,-0.023641927000677843
1781555981884865024,3.0801889896392822,0.5699775815010071,-0.5355387330055237,1.4716603755950928,-0.5525869727134705,0.8125773668289185,0.18537922203540802,0.033452510833740234,-0.09986996650695801,-0.027481332421302795,0.5235313375792078,-0.2746251330926654,-0.7192152978970975,0.3650003255218282,-0.9485605561365904,-1.8944733101265472,-0.022050176748282302
1781555981894900992,3.0902249813079834,0.49252909421920776,-0.4695618450641632,1.4125677347183228,-0.5396884083747864,0.8215590715408325,0.18378500640392303,0.06094396114349365,-0.07097935676574707,-0.025108829140663147,0.5196997607038142,-0.2774569585114391,-0.7175723929251832,0.37150986959099314,-0.964140294954745,-1.8990179954719395,-0.0211263457422961
1781555981904936192,3.100260019302368,0.5401073098182678,-0.5254244208335876,1.4110182523727417,-0.5271003842353821,0.8300764560699463,0.18203896284103394,0.062271952629089355,-0.0025008320808410645,0.012541159987449646,0.5159527421497905,-0.2801032202297539,-0.7159341219337785,0.37785349606816615,-0.9792448012593966,-1.9033308266565172,-0.02001715309801301
1781555981914971136,3.110295057296753,0.49072664976119995,-0.5528739094734192,1.4008569717407227,-0.5144057273864746,0.8383391499519348,0.180482879281044,0.09094387292861938,0.04630434513092041,0.0760326236486435,0.5121090300302904,-0.28279812886515376,-0.7143295166368522,0.3840609678056407,-0.9942293975636324,-1.9082344568928222,-0.019555389718877932
1781555981925007104,3.120331048965454,0.2780815064907074,-0.6283383369445801,1.3478829860687256,-0.5018605589866638,0.8459473252296448,0.18030263483524323,0.1383352279663086,0.02986133098602295,0.11583994328975677,0.5079396312452689,-0.2856274790914626,-0.7131397207337209,0.3896741998861342,-1.008339143978886,-1.9157041020815673,-0.02160938477261746
1781555981935042048,3.130366086959839,-0.03912201151251793,-0.6100118160247803,1.2295550107955933,-0.48963454365730286,0.8526636958122253,0.1822711080312729,0.17238903045654297,0.047009825706481934,0.1592816263437271,0.5033203974643374,-0.28868062375590087,-0.7126002043587802,0.394376833761357,-1.0210626914990202,-1.9271622052671018,-0.027626544349550784
1781555981945077248,3.1404011249542236,-0.20159748196601868,-0.6474993824958801,1.1642754077911377,-0.4783391058444977,0.8581965565681458,0.18625368177890778,0.1368016004562378,0.05047959089279175,0.13471496105194092,0.4985474594902838,-0.2918858819660267,-0.7126917111829171,0.39789898124237094,-1.0317459722959272,-1.9421105278201805,-0.037619325774486984
1781555981955113216,3.150437116622925,-0.38284263014793396,-0.65880286693573,1.116601824760437,-0.4674227833747864,0.8628910183906555,0.1921856701374054,0.07182338833808899,0.04406100511550903,0.08412042260169983,0.4935668154649348,-0.2955512292119795,-0.7132617383230044,0.4003736843499073,-1.0409624079459745,-1.960886443158438,-0.0522377472354033
1781555981965147904,3.1604719161987305,-0.5616552233695984,-0.6621910929679871,1.1676753759384155,-0.4559791386127472,0.8673783540725708,0.19934453070163727,0.00819462537765503,-0.011894166469573975,0.06457152962684631,0.4880980484282005,-0.2994890804751662,-0.7141278293637894,0.4026017773238817,-1.0499097938324469,-1.982937367901655,-0.06984221516209475
1781555981975183104,3.1705069541931152,-0.4591973125934601,-0.6009855270385742,1.224345088005066,-0.44415244460105896,0.871789813041687,0.20666664838790894,-0.03778111934661865,-0.06255519390106201,0.12350296974182129,0.4825397439963602,-0.30365898317142276,-0.7149297483443202,0.4047493968431825,-1.0588441253253889,-2.0063052798095935,-0.08906670432298307
1781555981985219072,3.1805429458618164,-0.2703544497489929,-0.4578821659088135,1.2767385244369507,-0.432109534740448,0.8765410780906677,0.2120313197374344,-0.1190837025642395,-0.031204164028167725,0.09673035144805908,0.4775316584575169,-0.3078153653353464,-0.7150282211432645,0.40736708710291414,-1.068628296423032,-2.0269672809898496,-0.1064320811821484
1781555981995254016,3.190577983856201,-0.23383663594722748,-0.3007221221923828,1.221713662147522,-0.4203495979309082,0.8812711834907532,0.21602672338485718,-0.17556720972061157,0.04193145036697388,0.060447245836257935,0.4732276036849453,-0.3121636827802344,-0.7145398494161455,0.4099297372129342,-1.0785452490926546,-2.045519047690152,-0.12330266245511819
1781555982005288960,3.200613021850586,-0.22553476691246033,-0.37254634499549866,1.1911565065383911,-0.40908995270729065,0.8856973052024841,0.21951207518577576,-0.15202146768569946,0.0667257308959961,0.05328451097011566,0.4692979342762936,-0.3164458558875428,-0.7138753802838442,0.41231464331738565,-1.0879938557481474,-2.06328283199546,-0.14005280174726256
1781555982015325184,3.210649013519287,-0.35057124495506287,-0.4561520218849182,1.2215157747268677,-0.3972074091434479,0.8900653719902039,0.2236286848783493,-0.10947588086128235,0.031168699264526367,-0.06647850573062897,0.4647864751869054,-0.3205693161049921,-0.7134771598641776,0.4149206526364828,-1.0974885848945808,-2.0835672808722054,-0.15803654703270753
1781555982025360128,3.220684051513672,-0.5502265095710754,-0.5569583177566528,1.2291542291641235,-0.38501980900764465,0.893909215927124,0.22953437268733978,-0.05571505427360535,0.0529748797416687,-0.11999155580997467,0.4596534629621371,-0.32487675845707975,-0.713598119423145,0.41707492399917506,-1.1059918307822934,-2.1083893677807417,-0.17998496333481573
1781555982035395072,3.2307190895080566,-0.8205999732017517,-0.6242537498474121,1.1644364595413208,-0.3730447292327881,0.8967887163162231,0.23792287707328796,-0.029955118894577026,0.09933537244796753,-0.12357358634471893,0.4540014747884415,-0.32952422098097894,-0.7144055047377404,0.4182356849204151,-1.112457455290794,-2.1385376030266317,-0.20730553722372816
1781555982045431040,3.240755081176758,-1.153337001800537,-0.6154265403747559,1.1278430223464966,-0.36111345887184143,0.8986372351646423,0.24909475445747375,-4.6819448471069336e-05,0.09791427850723267,-0.16750609874725342,0.44769565671019473,-0.33458578271580547,-0.7159607066267707,0.41835538811425993,-1.1166531548214313,-2.174641340226898,-0.240540739824065
1781555982055466240,3.2507901191711426,-1.2706286907196045,-0.7328833937644958,1.068127989768982,-0.34944024682044983,0.8994467258453369,0.26246410608291626,0.05969107151031494,0.07807719707489014,-0.12466201186180115,0.44086988245932657,-0.33979035771170074,-0.7181744704768143,0.41761445088926635,-1.1185019180612996,-2.2150002115469403,-0.2777493235478509
1781555982065500928,3.2608249187469482,-0.501907229423523,-0.7147184610366821,1.1064972877502441,-0.33814457058906555,0.9004853367805481,0.2734677195549011,0.08584049344062805,0.0726134181022644,-0.07225000858306885,0.43454974846723793,-0.34420914014260384,-0.7198985511797247,0.4176514544007343,-1.1208842544713404,-2.2508379103544334,-0.30986667759793696
1781555982075536896,3.2708609104156494,0.07073871046304703,-0.3909880816936493,0.8247364163398743,-0.3275771141052246,0.9032235145568848,0.27727335691452026,0.1004195511341095,0.035909175872802734,0.07801234722137451,0.4300563734575921,-0.3470867399853357,-0.7198385017382102,0.4200176920784195,-1.1272222365700404,-2.27321814909899,-0.32842545468763573
1781555982085572096,3.280895948410034,1.0008662939071655,-0.15668703615665436,0.5070269107818604,-0.3211556375026703,0.9066740870475769,0.27349838614463806,0.1329536736011505,0.28537315130233765,0.30822768807411194,0.42866903379259,-0.34769365439277167,-0.7182327724468295,0.42366701970628556,-1.135331548823629,-2.276222605185062,-0.3288284766567928
1781555982095607040,3.290930986404419,1.43852698802948,-0.07414795458316803,0.3377087414264679,-0.3167979419231415,0.9115078449249268,0.2622837424278259,0.08089706301689148,0.4001377820968628,0.23730435967445374,0.4295106209434325,-0.34630009228574177,-0.714995182522204,0.4293936099803678,-1.1469355338453446,-2.2623320173656793,-0.3122531424173273
1781555982105643008,3.30096697807312,1.3228957653045654,0.028943806886672974,0.07301902770996094,-0.3148874044418335,0.9157378673553467,0.24953995645046234,0.09781590104103088,0.3825409412384033,0.17849957942962646,0.4314191675214255,-0.3439667771540547,-0.7116578073632794,0.4348650001575812,-1.1573406046145174,-2.240931113945567,-0.28861394218060665
1781555982115677952,3.311002016067505,0.8016707301139832,-0.024428337812423706,-0.036272574216127396,-0.31486424803733826,0.9184890985488892,0.2392449975013733,0.07168495655059814,0.42677146196365356,0.09701286256313324,0.4333732704337428,-0.34160695235846633,-0.7091735980082865,0.4388223426223548,-1.1642425822518394,-2.220562453843944,-0.2665685027997161
1781555982125713152,3.3210370540618896,0.3019479513168335,-0.2106461524963379,-0.19263501465320587,-0.3156939148902893,0.9193137884140015,0.23494544625282288,0.0830126702785492,0.375394344329834,-0.044103771448135376,0.43409667516358486,-0.33983338823247705,-0.7085096986441601,0.4405533768489813,-1.1663331125998897,-2.210587398077078,-0.2544749812665404
1781555982135749120,3.331073045730591,-0.30857053399086,-0.46071696281433105,-0.10367505252361298,-0.3161713480949402,0.9189590811729431,0.23569060862064362,0.0454804003238678,0.25460976362228394,-0.14361903071403503,0.4332044145686264,-0.3384267755743234,-0.7094452909222719,0.441008728710755,-1.165432744191136,-2.2113804552220215,-0.2513931337091384
1781555982145784064,3.3411080837249756,-0.8658905029296875,-0.516075849533081,-0.21214133501052856,-0.31640514731407166,0.9169520735740662,0.24307766556739807,-0.047089725732803345,0.13472944498062134,0.07139074802398682,0.43072154238194105,-0.3381723317064367,-0.7121645208865489,0.4392495145049352,-1.1603731455279112,-2.225874327683531,-0.26183074398469897
1781555982155819264,3.3511431217193604,-0.9531894326210022,-0.2857166528701782,-0.32932254672050476,-0.31773853302001953,0.9137579798698425,0.2531576156616211,-0.18844130635261536,0.2742456793785095,0.3543863594532013,0.4281548937875419,-0.3383481535391427,-0.7156111621581827,0.4360099441439135,-1.152440171450471,-2.243551355786717,-0.27646693336725614
1781555982165855232,3.3611791133880615,-0.6192538142204285,0.12582480907440186,-0.5121131539344788,-0.3214057683944702,0.9103825092315674,0.2605801820755005,-0.3057304322719574,0.5142848491668701,0.4157656133174896,0.42748208441371754,-0.3383688909632812,-0.7181898019623185,0.432399067885442,-1.144207505950379,-2.252058753130604,-0.2850165903579809
1781555982175889920,3.371213912963867,-0.5221291184425354,0.28761026263237,-0.683053195476532,-0.32749417424201965,0.9069865942001343,0.26480743288993835,-0.35397860407829285,0.5795551538467407,0.2160886526107788,0.42868576653446083,-0.3378703259363933,-0.7198939963217796,0.4287479815707166,-1.1360729869587989,-2.2507511916147624,-0.28612144043920057
1781555982185925120,3.381248950958252,-0.8088338375091553,0.0628419890999794,-0.7429197430610657,-0.33453795313835144,0.9028681516647339,0.27002525329589844,-0.22877079248428345,0.4014837145805359,-0.01154133677482605,0.4298266386682429,-0.33706793829453296,-0.7220788278460519,0.4245427187360844,-1.1263949256684433,-2.2498871814642456,-0.287291652239209
1781555982195960064,3.3912839889526367,-1.2738425731658936,-0.31164371967315674,-0.8042611479759216,-0.34116384387016296,0.8973716497421265,0.2798777222633362,-0.009422123432159424,0.18464434146881104,-0.14474594593048096,0.42925153398952526,-0.3362643358767405,-0.7258547781014633,0.41929025289237315,-1.113776663708646,-2.2578301784867847,-0.29476258635816505
1781555982205996032,3.401319980621338,-1.5656355619430542,-0.6581915616989136,-0.905482828617096,-0.347433865070343,0.890282392501831,0.2944261133670807,0.1246708333492279,0.09934145212173462,-0.21231859922409058,0.4268305079087399,-0.33518166820393414,-0.7313455410267975,0.4130406432666603,-1.097964871647674,-2.2737968394752923,-0.30710569930614734
