time,seconds_elapsed,rotationRateX,rotationRateY,rotationRateZ,gravityX,gravityY,gravityZ,accelerationX,accelerationY,accelerationZ,quaternionW,quaternionX,quaternionY,quaternionZ,pitch,roll,yaw
1780949152977933056,0.22530221939086914,-0.06527059525251389,0.01917068101465702,0.05136498436331749,0.17551711201667786,-0.40626999735832214,-0.8967376351356506,-0.007060110569000244,-0.005610466003417969,0.01015627384185791,0.5994504806426009,0.05737882985268917,0.21986095447236395,0.7674815936216492,0.4183682803207482,0.19328499571299518,1.7742657781290936
1780949152987966976,0.2353360652923584,-0.0475350059568882,0.01219240017235279,0.05244196578860283,0.17547054588794708,-0.4058680236339569,-0.8969287872314453,-0.0031377673149108887,0.01109263300895691,0.0027179718017578125,0.5992481757108372,0.057201215988792346,0.21968986046562602,0.7677017498691177,0.41792840532721415,0.19319482348234007,1.7749352466215078
1780949152998002176,0.24537110328674316,-0.02582971192896366,-0.002773500047624111,0.048748694360256195,0.17528074979782104,-0.40564003586769104,-0.8970690369606018,-6.408989429473877e-05,0.00527992844581604,0.0018358826637268066,0.5990564525906378,0.057142720025824136,0.21954542478983957,0.7678971153332137,0.41767894512266857,0.19296157134321645,1.7755677356771522
1780949153008037120,0.25540614128112793,-0.1014656126499176,-0.015483169816434383,0.05648757144808769,0.17519976198673248,-0.404975563287735,-0.8973850011825562,-0.005201578140258789,0.0027081072330474854,-0.0006405115127563477,0.5988895785902715,0.0568990629562772,0.2192486988894456,0.7681300817730055,0.41695209352699186,0.1928083661987723,1.7762382512258126
1780949153018072064,0.2654411792755127,-0.10421186685562134,-0.05670198053121567,-0.22580084204673767,0.17521299421787262,-0.404384046792984,-0.8976491093635559,0.01994691789150238,-0.009708970785140991,0.002873718738555908,0.599301737159304,0.05680870668487114,0.21897080573437025,0.7678944301735178,0.4163052447747834,0.1927672326953578,1.7753472516137634
1780949153028107264,0.27547621726989746,-0.6037348508834839,-0.30483561754226685,1.1302002668380737,0.17298807203769684,-0.4016827940940857,-0.8992919921875,0.13734517991542816,-0.05243402719497681,-0.001312255859375,0.5972257238122854,0.0561719245575751,0.2172526660836211,0.7700438248716676,0.413353651766273,0.19003901642194948,1.782295311340077
1780949153038141952,0.2855110168457031,-0.07619062066078186,-0.3065778613090515,-0.26055455207824707,0.16709768772125244,-0.3995996117591858,-0.9013315439224243,0.33215463161468506,0.08593994379043579,0.10419714450836182,0.5959921683445373,0.05744164678911285,0.21455695726821264,0.771660039837958,0.4110800194404618,0.18330865319113,1.7879675831072683
1780949153048176896,0.2955460548400879,-0.08618759363889694,0.10610051453113556,-0.07238279283046722,0.16746069490909576,-0.3983420133590698,-0.901820719242096,-0.21609045565128326,-0.06570827960968018,-0.04787111282348633,0.5971650480987669,0.05719706903772514,0.21405174193282342,0.770911328222591,0.4097085392446406,0.18360058214702896,1.7851953384211094
1780949153058212096,0.30558109283447266,2.052809577435255e-05,0.11731748282909393,0.21755236387252808,0.16803885996341705,-0.3982979357242584,-0.9017326235771179,-0.20542289316654205,0.05163350701332092,-0.06152421236038208,0.5965346700054913,0.0567789026296127,0.2142658483173273,0.7713706556486538,0.4096605012940886,0.1842378308655339,1.786665511835447
1780949153068247040,0.3156161308288574,-0.1225658431649208,0.06364466995000839,0.051930107176303864,0.16826391220092773,-0.39802053570747375,-0.9018130898475647,-0.029500484466552734,0.043345242738723755,0.028491616249084473,0.5959385977758344,0.056430396767509015,0.21426397437806027,0.7718573294270846,0.4093580946661201,0.1844629290631073,1.7882252309462965
1780949153078282240,0.3256511688232422,-0.2502087652683258,-0.012899370864033699,0.029150227084755898,0.1683637648820877,-0.39639604091644287,-0.9025097489356995,0.0348527729511261,-0.008999437093734741,0.05309873819351196,0.5958473893146866,0.055815182893944965,0.21361134214359787,0.7721532504915389,0.4075879686054435,0.18443068079040645,1.7889214120497088
1780949153088317184,0.33568620681762695,-0.35801777243614197,-0.0429048053920269,0.05574588105082512,0.16784049570560455,-0.3937104344367981,-0.9037818312644958,0.06435249745845795,-0.025585830211639404,0.050006866455078125,0.59579524580587,0.05509893728915754,0.2123044436144038,0.7726052369966604,0.4046645439203274,0.18361729771808846,1.7900220094601282
1780949153098351872,0.3457210063934326,-0.4634310305118561,0.019778015092015266,0.0573192797601223,0.16750101745128632,-0.3900758624076843,-0.9054193496704102,-0.0007834881544113159,-0.039367496967315674,0.043725013732910156,0.5957063524304886,0.05398197550428175,0.2106567483439304,0.7732034796604411,0.40071399193698776,0.18293010230650011,1.7914343547180456
1780949153108387072,0.3557560443878174,-0.6076403856277466,0.05080543830990791,0.07487110793590546,0.16760165989398956,-0.3853740990161896,-0.9074119925498962,-0.05372531712055206,-0.050752609968185425,0.04260486364364624,0.5955510024760647,0.05231788734406747,0.20870278668506553,0.7739670457717396,0.395613201193107,0.1826445293076025,1.7931851872262823
1780949153118422016,0.36579108238220215,-0.8279751539230347,0.0451187901198864,0.07104973495006561,0.16776421666145325,-0.3789893686771393,-0.9100671410560608,-0.03280022740364075,-0.06530079245567322,0.05725342035293579,0.5953886794692302,0.050070101643320444,0.20605679334414678,0.7749490016221414,0.38870393724203317,0.18229611677613905,1.7954006658221677
1780949153128456960,0.3758261203765869,-1.081394076347351,0.02822795882821083,0.06361978501081467,0.16783373057842255,-0.37036755681037903,-0.9135971069335938,-0.006075307726860046,-0.08651110529899597,0.06873321533203125,0.5953264411245239,0.047150992692505174,0.2024307673673494,0.7761347181553175,0.37940468798472415,0.18168078183062647,1.797979588416275
1780949153138492160,0.3858611583709717,-1.2812446355819702,0.02672167494893074,0.06902121007442474,0.16782459616661072,-0.3595618009567261,-0.917905330657959,-0.004555553197860718,-0.10465633869171143,0.07052373886108398,0.5953201574400577,0.04357169353079904,0.19786063095376902,0.7775260275864176,0.36779823962545566,0.18083693554301894,1.80097212111149
1780949153148527104,0.39589619636535645,-1.4117599725723267,0.05270534008741379,0.08362465351819992,0.16790787875652313,-0.3472515344619751,-0.9226176738739014,-0.014907985925674438,-0.1024707555770874,0.07720446586608887,0.5952730405958107,0.03947562907046487,0.19269886171712575,0.7790756162285604,0.3546386504038486,0.18002053764781709,1.8043499132418697
1780949153158562048,0.4059309959411621,-1.5083400011062622,0.08279693126678467,0.10279541462659836,0.16822104156017303,-0.33382341265678406,-0.9275039434432983,-0.018654391169548035,-0.06540754437446594,0.07478177547454834,0.5951196880385111,0.03492849817163444,0.18715774041292155,0.7807589168299937,0.3403567760910297,0.17941925615906795,1.808112704701019
1780949153168596992,0.4159660339355469,-1.5561163425445557,0.1137029156088829,0.11150182038545609,0.16878069937229156,-0.3197118639945984,-0.9323611855506897,-0.005313277244567871,-0.02982121706008911,0.0672488808631897,0.5980963506690257,0.03082391421026732,0.18129890362335646,0.7800392737412748,0.3254253829637702,0.17908560724099348,1.8038440478203734
1780949153178631936,0.42600107192993164,-1.5820204019546509,0.14303256571292877,0.12071289867162704,0.16960987448692322,-0.3051256537437439,-0.9370863437652588,0.0007697641849517822,-0.020359575748443604,0.06330704689025879,0.5977485611686166,0.025700609992095263,0.17548874898204436,0.781818371409622,0.3100703802342328,0.1790585402361821,1.8080230968825322
1780949153188667136,0.4360361099243164,-1.5911086797714233,0.19039370119571686,0.09434893727302551,0.17085619270801544,-0.2904294431209564,-0.9415194392204285,0.005062386393547058,-0.008474975824356079,0.06226223707199097,0.5973534367444504,0.020405179702841947,0.16977601783758234,0.7835360167394461,0.2946756101770565,0.17951505279299385,1.8121234355186844
1780949153198702080,0.44607114791870117,-1.6641464233398438,0.20425385236740112,0.08698929101228714,0.17248910665512085,-0.2751530706882477,-0.9458003640174866,-0.0035132765769958496,0.01651659607887268,0.07188373804092407,0.5969908545445782,0.014816253200048292,0.16395213755752686,0.7851765122937422,0.2787489148566628,0.18039118468607687,1.8160639268510463
1780949153208737024,0.45610618591308594,-1.6337741613388062,0.24790972471237183,0.12262585014104843,0.17434389889240265,-0.259609192609787,-0.9498459100723267,-0.014248684048652649,0.05312725901603699,0.08894503116607666,0.5964923074368774,0.009064216044205655,0.15809768388796383,0.7868417252961447,0.2626174843586003,0.18152905973439185,1.8202435226603324
1780949153218771968,0.4661409854888916,-1.6040740013122559,0.29165029525756836,0.13912199437618256,0.1765972524881363,-0.24443306028842926,-0.9534494876861572,-0.02008785307407379,0.03842414915561676,0.05084633827209473,0.595805980595519,0.003269533803516456,0.15252728371092236,0.788504963666625,0.24693497003167886,0.18314380473232708,1.8246323484779996
1780949153228806912,0.47617602348327637,-1.6430342197418213,0.29833242297172546,0.1514015644788742,0.17909234762191772,-0.22916226089000702,-0.9567708969116211,-0.022354066371917725,0.003210112452507019,0.026503562927246094,0.5950096243410221,-0.002635682426956114,0.1469952154910942,0.7901575916380729,0.2312169503488017,0.18504280299139442,1.8291730974368274
1780949153238842112,0.48621106147766113,-1.7182754278182983,0.29914629459381104,0.16310429573059082,0.18162715435028076,-0.21332962810993195,-0.9599489569664001,0.00045596063137054443,-0.02458539605140686,0.011752605438232422,0.5941151599087366,-0.008712598982840311,0.14124305601520595,0.7918343521686085,0.21498178561417672,0.18699453966066712,1.833967186290254
1780949153248877056,0.4962460994720459,-1.8431737422943115,0.28092944622039795,0.16567131876945496,0.1841035783290863,-0.19644306600093842,-0.9630762934684753,0.025246992707252502,-0.05883646011352539,0.0018794536590576172,0.5931643063989449,-0.015062691558752122,0.13503686962277586,0.7935327888152409,0.1977289758391096,0.18888320678855045,1.8390063825728442
1780949153258912000,0.5062811374664307,-1.8879494667053223,0.2956750988960266,0.23754897713661194,0.18646937608718872,-0.17868192493915558,-0.9660755395889282,0.01873081922531128,-0.08230440318584442,0.019511818885803223,0.5920185761421721,-0.021627801076950733,0.1284307996598928,0.7953312142823609,0.17964665671248028,0.19067257568289142,1.8445948803023513
1780949153268947200,0.5163161754608154,-1.8486212491989136,0.27556782960891724,0.21838806569576263,0.1888638287782669,-0.1609739065170288,-0.9687197208404541,0.020196840167045593,-0.08707296848297119,-0.0008084774017333984,0.590632378864412,-0.028182846325034788,0.12184365614713862,0.7971908967139891,0.16167734642233958,0.19254697117408237,1.850652491897015
1780949153278980864,0.5263500213623047,-1.8290005922317505,0.21155931055545807,0.1450941413640976,0.19101643562316895,-0.14345036447048187,-0.9710482358932495,0.016106367111206055,-0.06059016287326813,-0.02138340473175049,0.5895083390961745,-0.03450422201458598,0.11526200868679497,0.7987515358024055,0.1439469591942632,0.19423162185989076,1.8559432563658886
1780949153289016064,0.5363850593566895,-1.7390635013580322,0.16684909164905548,0.16335943341255188,0.1925511509180069,-0.12629882991313934,-0.9731252193450928,0.006072506308555603,-0.024702146649360657,0.011180639266967773,0.5884574882794907,-0.04041972370504894,0.1086445813672486,0.8001752277425265,0.12663703418258593,0.1953455335248561,1.8609708645321879
1780949153299051008,0.5464200973510742,-1.646064043045044,0.21393829584121704,0.22037823498249054,0.19417621195316315,-0.11018788814544678,-0.9747585654258728,-0.003731265664100647,-0.026790261268615723,0.026638448238372803,0.5872327435754578,-0.046052524471623134,0.10246898392540307,0.8015839605905505,0.1104120864627808,0.19663046663281378,1.8661601221214061
1780949153309086208,0.556455135345459,-1.5974878072738647,0.2293718457221985,0.2637217044830322,0.19611971080303192,-0.09479732066392899,-0.9759869575500488,-0.03140108287334442,-0.057699017226696014,0.05405092239379883,0.5857303706390242,-0.05160520447768206,0.09666140259395302,0.8030650647566323,0.0949398804271582,0.1983040621032867,1.8718099059768079
1780949153319121152,0.5664901733398438,-1.5674185752868652,0.24347275495529175,0.238274946808815,0.19821476936340332,-0.07984189689159393,-0.9769012928009033,-0.042285218834877014,-0.08563966304063797,0.0974000096321106,0.584159079696892,-0.057070125744124255,0.09106230802897304,0.8044929213019872,0.07992697282922663,0.2001839306918762,1.8774766223960606
1780949153329156096,0.5765252113342285,-1.5510563850402832,0.2601771950721741,0.20235022902488708,0.20051106810569763,-0.06498944014310837,-0.9775334596633911,-0.022746190428733826,-0.05111468583345413,0.07624256610870361,0.5826975824675558,-0.06254875646387188,0.0855623606456031,0.8057483426812788,0.06503527792050043,0.2023131749041437,1.8827664939882187
1780949153339191040,0.5865600109100342,-1.4927704334259033,0.28792813420295715,0.18019966781139374,0.20309048891067505,-0.05039200559258461,-0.9778624176979065,-0.0016744732856750488,0.02524552121758461,0.061678946018218994,0.5813147860978267,-0.06803790516277478,0.08024734440329268,0.80684841970171,0.05041335706121634,0.20477701556998187,1.8877390314999214
1780949153349225984,0.596595048904419,-1.4047681093215942,0.3156833052635193,0.1895071417093277,0.20596878230571747,-0.036574892699718475,-0.9778748154640198,0.009546354413032532,0.06823688000440598,0.035644590854644775,0.579936468120269,-0.07340172497161372,0.07533115061800268,0.8078435303974809,0.03658305048315152,0.2075945379124744,1.8925276342610748
1780949153359260928,0.6066300868988037,-1.4030640125274658,0.3398616313934326,0.19069091975688934,0.20914572477340698,-0.023295672610402107,-0.9776069521903992,0.008215725421905518,0.04894569516181946,0.01457899808883667,0.5785083291422001,-0.07871987951255317,0.07070854081028696,0.808784082029809,0.023297780170796104,0.21075934618323053,1.8973112373138479
1780949153369296128,0.6166651248931885,-1.5257354974746704,0.33442702889442444,0.17751465737819672,0.21244701743125916,-0.00939725898206234,-0.9771273732185364,0.005799427628517151,-0.01103426143527031,0.0026553869247436523,0.5770438010234931,-0.08425951263691464,0.06585312748338867,0.8096815001750972,0.009397397530270229,0.21408806048524806,1.9022119792097274
1780949153379331072,0.6267001628875732,-1.702316403388977,0.3027668297290802,0.15709860622882843,0.2155894786119461,0.006050051189959049,-0.9764653444290161,0.006746336817741394,-0.07700341939926147,-0.004613757133483887,0.5755568156409188,-0.09017358758575947,0.06029966907175617,0.8105350835707353,-0.006050088139893635,0.2172995097238145,1.907314741086786
1780949153389366272,0.636735200881958,-1.8419404029846191,0.27311933040618896,0.15022312104701996,0.21840402483940125,0.023121966049075127,-0.9755844473838806,0.012141004204750061,-0.11998476088047028,0.0005326271057128906,0.5740207443078819,-0.09641454527458858,0.0539629625957249,0.8113521535135624,-0.023124027017825448,0.22023855687043703,1.9126837155502707
1780949153399400960,0.6467700004577637,-1.910252332687378,0.26605555415153503,0.14971286058425903,0.22108514606952667,0.041192490607500076,-0.9743841886520386,0.010131284594535828,-0.11068101227283478,0.009540438652038574,0.5723952396287496,-0.1028818819685603,0.04715111855815962,0.8121303425642168,-0.04120414911860909,0.22311959210807553,1.9183192455271463
1780949153409435904,0.6568050384521484,-1.9160785675048828,0.29551583528518677,0.1623154729604721,0.2239072620868683,0.05957135930657387,-0.9727881550788879,0.006088465452194214,-0.07086285948753357,0.02553778886795044,0.5706762268599551,-0.10948902483398264,0.0402253342472797,0.8128485110453234,-0.059606651385479076,0.22623044283839247,1.9241387288981497
1780949153419471104,0.6668400764465332,-1.7930772304534912,0.31446024775505066,0.1755732148885727,0.22703903913497925,0.0773605927824974,-0.970808207988739,0.003017723560333252,-0.035871945321559906,0.04154801368713379,0.5688741659285095,-0.11604643278619813,0.033602262042962586,0.8135024494707006,-0.0774379617285761,0.22973703258684208,1.9300328660435073
1780949153429506048,0.676875114440918,-1.692679524421692,0.31437236070632935,0.17901721596717834,0.23024702072143555,0.09379575401544571,-0.968601405620575,0.00017595291137695312,-0.006790138781070709,0.07985323667526245,0.5670731805029308,-0.12223342527712029,0.027537067372162452,0.8140815501169851,-0.09393383511228968,0.2333793394334786,1.9357574684095409
1780949153439540992,0.6869101524353027,-1.7214698791503906,0.3327937126159668,0.21839018166065216,0.2335309386253357,0.1098424568772316,-0.9661251902580261,0.002614066004753113,0.023610912263393402,0.0943601131439209,0.5651616935696175,-0.1283360592193248,0.021615900652103785,0.8146501772184508,-0.11006454404435902,0.23716984435347713,1.9416843631942333
1780949153449576192,0.6969451904296875,-1.7738348245620728,0.36595019698143005,0.22096653282642365,0.2372114360332489,0.12621447443962097,-0.9632240533828735,-0.002393946051597595,0.009542956948280334,0.08833092451095581,0.5630573524990893,-0.1346992229000882,0.015623023554437596,0.8152167219809349,-0.1265520021837782,0.24146328290257563,1.9480734674546998
1780949153459610880,0.7069799900054932,-1.80817449092865,0.3609687387943268,0.2086544781923294,0.24104346334934235,0.14302290976047516,-0.9599179625511169,-0.021042242646217346,-0.03920210897922516,0.04703038930892944,0.5609379238478773,-0.14124950187718693,0.009465600631396901,0.8156638822938191,-0.1435150534245722,0.24602159026157266,1.954510078800518
1780949153469646080,0.7170150279998779,-1.8161120414733887,0.36994096636772156,0.23341521620750427,0.24488945305347443,0.15985733270645142,-0.9562817811965942,-0.031007006764411926,-0.06819778680801392,0.03509342670440674,0.5587145061926678,-0.14781247955765384,0.0032549807142407553,0.8160753322240443,-0.16054612680903527,0.25069750504558286,1.9611859774361904
1780949153479681024,0.7270500659942627,-1.954463243484497,0.3785802721977234,0.2448263168334961,0.24888400733470917,0.1772538125514984,-0.9521753191947937,-0.022687718272209167,-0.09021767973899841,0.0253564715385437,0.5563222793243869,-0.15460291652312422,-0.0032063856646725375,0.8164515320889424,-0.1781953718015711,0.2556645924032313,1.9683027055682136
1780949153489715968,0.7370851039886475,-2.113800048828125,0.39629918336868286,0.2669880986213684,0.25304391980171204,0.196074441075325,-0.9473772048950195,-0.024070531129837036,-0.1061849296092987,0.04658985137939453,0.5536593711817847,-0.16188069948657058,-0.010296932616198198,0.8167925387588298,-0.19735304735949824,0.2610063723289922,1.9761739172839108
1780949153499751168,0.7471201419830322,-2.2904908657073975,0.3668493926525116,0.22640790045261383,0.25724226236343384,0.21602368354797363,-0.9418918490409851,-0.019510358572006226,-0.15866592526435852,0.04835242033004761,0.5508646535834673,-0.16950867548224363,-0.01791364855900613,0.817003143092966,-0.21774015418405085,0.26661039385346813,1.984436637024621
1780949153509786112,0.757155179977417,-2.631826162338257,0.2539062201976776,0.264703631401062,0.2607582211494446,0.23880179226398468,-0.935403048992157,0.00750654935836792,-0.17502005398273468,0.022118747234344482,0.5477793699243186,-0.17767570970644,-0.02701508012862956,0.8170920377827934,-0.24113175479902854,0.2718636920677863,1.9935643240256324
1780949153519821056,0.7671902179718018,-2.698803424835205,0.2872370183467865,0.3411928117275238,0.26395127177238464,0.2629164755344391,-0.9280111193656921,0.020213156938552856,-0.08434286713600159,0.04536646604537964,0.5441140718564573,-0.18608733950146913,-0.03695859688726578,0.817279301367067,-0.26604378308456816,0.2771089782538024,2.004154950889636
1780949153529856000,0.7772250175476074,-2.685617685317993,0.32116183638572693,0.3771657347679138,0.26780521869659424,0.28707200288772583,-0.9197119474411011,-0.02921879291534424,-0.06082993745803833,0.005374789237976074,0.5401248290668088,-0.19479753504481112,-0.04688235613578604,0.8173867823449902,-0.29116878134036556,0.28334903841647346,2.01555920896593
1780949153539890944,0.7872600555419922,-2.507615804672241,0.3499162495136261,0.3730127811431885,0.27199652791023254,0.30985498428344727,-0.911047637462616,-0.036217689514160156,-0.060053348541259766,-0.011559784412384033,0.5360706523500207,-0.20325797147287214,-0.056235054316369555,0.8174056753975972,-0.31504049327685674,0.2901292583081298,2.0270824157800744
1780949153549926144,0.797295093536377,-2.3728435039520264,0.3533361554145813,0.3924490809440613,0.27643653750419617,0.33102425932884216,-0.9022226929664612,0.001166611909866333,-0.010009855031967163,-0.013091027736663818,0.5320757235616368,-0.21136653419592621,-0.06490645411430501,0.8173167751254871,-0.337388835738039,0.2973134047152322,2.0384341611145405
1780949153559961088,0.8073301315307617,-2.1356725692749023,0.35023170709609985,0.42342695593833923,0.28097668290138245,0.35021263360977173,-0.8935341238975525,0.020506471395492554,0.03797096014022827,0.03136676549911499,0.5280981457076335,-0.21894072334958792,-0.07278671292368198,0.8172388559143052,-0.35779811098020703,0.3046653591701297,2.049706162863698
1780949153569996032,0.8173651695251465,-1.9286627769470215,0.36325496435165405,0.4244309663772583,0.2856956720352173,0.3671228885650635,-0.885211169719696,0.025370001792907715,0.028690099716186523,0.031054675579071045,0.5242228585251161,-0.2259275810157609,-0.07969407843261751,0.8171879429421378,-0.37591402663459433,0.3121891350969014,2.0606933248438524
1780949153580031232,0.8274002075195312,-1.7564589977264404,0.3770195245742798,0.44231143593788147,0.29057183861732483,0.3821391761302948,-0.8772329688072205,0.014878600835800171,0.0248432457447052,0.04677337408065796,0.5204985486028848,-0.23243634108438052,-0.08577214430944567,0.8171277964716008,-0.39211004051180004,0.3198624832385567,2.0713013110340737
1780949153590065920,0.8374350070953369,-1.6162004470825195,0.40245842933654785,0.45804592967033386,0.295736700296402,0.3955938220024109,-0.869508683681488,0.008615106344223022,0.03813725709915161,0.06674379110336304,0.5168268050646619,-0.238618005809008,-0.09114326433857094,0.8170952064372313,-0.40671431531301866,0.3278454418997538,2.081809223885594
1780949153600101120,0.8474700450897217,-1.421899437904358,0.3798274099826813,0.5008373856544495,0.3010980188846588,0.4073595702648163,-0.8622053861618042,0.002292454242706299,0.037663012742996216,0.06403344869613647,0.5132019675633207,-0.24438688900304453,-0.09577237927359944,0.8171452588458759,-0.4195609870071596,0.33597838638674227,2.0922075837405947
1780949153610136064,0.8575050830841064,-1.3494443893432617,0.3806484639644623,0.5055074691772461,0.3064584732055664,0.41762757301330566,-0.8553773164749146,0.010695457458496094,0.015340536832809448,0.01441967487335205,0.5096251454519035,-0.24970686299293277,-0.09978882957240612,0.8172948525442504,-0.4308327359375129,0.34402574201447644,2.1024706375583566
1780949153620171008,0.8675401210784912,-1.3779882192611694,0.3559098243713379,0.5293707251548767,0.3117842376232147,0.4276236891746521,-0.848486065864563,0.007170230150222778,-0.0210379958152771,-0.02291285991668701,0.5059903510663722,-0.25493294760678564,-0.10376013299112788,0.8174453043108177,-0.4418623506562837,0.3521434557436264,2.1129367718037293
1780949153630206208,0.877575159072876,-1.4846419095993042,0.31612923741340637,0.526665210723877,0.31694430112838745,0.4380601644515991,-0.8412191271781921,0.0037191808223724365,-0.06376206874847412,-0.04189854860305786,0.502141238308969,-0.2602083090573095,-0.10808359220532912,0.8175963880250655,-0.4534396237900416,0.3603196235774622,2.1240315560131218
1780949153640241152,0.8876101970672607,-1.6295405626296997,0.3139555752277374,0.5351335406303406,0.3219349682331085,0.4494403004646301,-0.8332834243774414,0.01470443606376648,-0.08271056413650513,-0.0769948959350586,0.4980944746854211,-0.2656939359098401,-0.11298234906560155,0.8176451846519405,-0.4661387056811356,0.3686797655522065,2.135771547689454
1780949153650275840,0.8976449966430664,-1.7716060876846313,0.32038193941116333,0.5860177874565125,0.3270929455757141,0.4617075026035309,-0.8245219588279724,0.000452190637588501,-0.11191505193710327,-0.04847913980484009,0.49369868018854113,-0.2715155665486561,-0.11839902912725535,0.8176323756082831,-0.4799192087675393,0.37766365575760924,2.148603476136702
1780949153660311040,0.9076800346374512,-1.8851789236068726,0.32459399104118347,0.5994169116020203,0.33254486322402954,0.47488176822662354,-0.8148013353347778,-0.02106720209121704,-0.13104021549224854,0.016095280647277832,0.48891699271503686,-0.27774076940640247,-0.12433585087214084,0.817533337353673,-0.4948296818028014,0.3874952821788373,2.162679395873432
1780949153670345984,0.9177150726318359,-1.758414626121521,0.30055761337280273,0.6291660070419312,0.33809301257133484,0.48769813776016235,-0.8048873543739319,-0.014560878276824951,-0.07232338190078735,0.00778353214263916,0.48403207691661776,-0.2839077856454155,-0.13020244814608695,0.8174085814258027,-0.5094511266285523,0.39767054866490015,2.1771678935459966
1780949153680381184,0.9277501106262207,-1.5731451511383057,0.2595183253288269,0.6640436053276062,0.34352025389671326,0.49886664748191833,-0.7956921458244324,0.009598642587661743,-0.027583688497543335,-0.022133171558380127,0.47915674166039196,-0.2894996723652601,-0.13543956483068528,0.8174686672426912,-0.5222905784938935,0.40755304775020196,2.1915893098364236
1780949153690416128,0.9377851486206055,-1.4033154249191284,0.2662324011325836,0.6763125061988831,0.34897086024284363,0.5083048343658447,-0.7873027324676514,0.014707118272781372,-0.007419884204864502,-0.04840588569641113,0.47441675173166153,-0.2945725982517974,-0.13991291629569402,0.8176675523928729,-0.533215238682418,0.41722531565614446,2.2056166292095933
1780949153700451072,0.9478201866149902,-1.2908679246902466,0.2855392396450043,0.6825147271156311,0.35461822152137756,0.5164938569068909,-0.7794100642204285,-0.0029031038284301758,-0.004744589328765869,-0.04317599534988403,0.4698185087433251,-0.29937104337128584,-0.1437773870115587,0.8179093823872654,-0.542751306168455,0.4269899265120562,2.2193035003961326
1780949153710486016,0.9578549861907959,-1.25229811668396,0.32136422395706177,0.6611772179603577,0.360498309135437,0.5239283442497253,-0.7717124223709106,0.0029965639114379883,0.012357056140899658,-0.030716776847839355,0.46536563403961795,-0.3040802172967051,-0.14723798664725785,0.8181020459195093,-0.5514564840600583,0.4370163820410422,2.2327025262729037
1780949153720519936,0.9678890705108643,-1.2605419158935547,0.34151023626327515,0.6275854706764221,0.36644819378852844,0.531246542930603,-0.7638669610023499,0.024359852075576782,0.0406222939491272,-0.01753556728363037,0.46104912179250446,-0.3088327724017119,-0.15062815556737458,0.8181485394307962,-0.560071255244369,0.4472987141732438,2.2458958238734286
1780949153730555136,0.977924108505249,-1.3404061794281006,0.3246946632862091,0.5820709466934204,0.372252881526947,0.5388866662979126,-0.755664587020874,0.05381828546524048,0.0667957067489624,-0.0040552616119384766,0.4567808268042261,-0.3136530416757146,-0.15423841542504654,0.8180363557049287,-0.5691148798627966,0.4577234338033049,2.2591326661860744
1780949153740590080,0.9879591464996338,-1.3875411748886108,0.3026556670665741,0.5416702628135681,0.37769797444343567,0.5470860600471497,-0.747021496295929,0.06286901235580444,0.06958258152008057,0.018429577350616455,0.4525618170989625,-0.3185129432148679,-0.15823642766979482,0.817739928543943,-0.5788791968639226,0.4681217393868815,2.272419850731371
1780949153750625024,0.9979941844940186,-1.379968285560608,0.25268062949180603,0.5030198097229004,0.3826679587364197,0.555412232875824,-0.7382970452308655,0.06354480981826782,0.06198883056640625,0.028656482696533203,0.448400995416094,-0.32320521482321374,-0.16244961737265554,0.8173647354786723,-0.5888586386614281,0.4781893849559795,2.28563426241886
1780949153760659968,1.0080289840698242,-1.372787594795227,0.22860565781593323,0.4556567966938019,0.38711902499198914,0.5636981129646301,-0.7296460270881653,0.06809639930725098,0.0892101526260376,0.003327667713165283,0.4443944183785205,-0.3276649906072822,-0.16677126083818108,0.8169067016782309,-0.598856226308278,0.48779357062227163,2.2984920925329937
1780949153770694912,1.018064022064209,-1.3065134286880493,0.17508558928966522,0.38796910643577576,0.3910277485847473,0.5718179941177368,-0.7211944460868835,0.059320151805877686,0.11551415920257568,-0.00608515739440918,0.4406076022385347,-0.3318458465895272,-0.17111721718200665,0.8163713075788234,-0.608720166515813,0.49683085623188206,2.310788015857051
1780949153780730112,1.0280990600585938,-1.2634363174438477,0.10064090043306351,0.31165117025375366,0.3940029442310333,0.5796708464622498,-0.7132625579833984,0.045953720808029175,0.12568193674087524,-0.03711891174316406,0.4371565893526306,-0.33551977460873067,-0.1754856452901131,0.8157974492066429,-0.6183246865438855,0.5046804239294697,2.3220785598391274
1780949153790765056,1.0381340980529785,-1.241747260093689,0.05845390632748604,0.25457003712654114,0.3962308168411255,0.587457001209259,-0.7056170105934143,0.02753627300262451,0.13905972242355347,-0.07570922374725342,0.4339494174434927,-0.33883380585112377,-0.17995315105641793,0.8151665033653207,-0.627912881896656,0.5116584159355199,2.332666739370152
1780949153800800000,1.0481691360473633,-1.1438361406326294,0.006060738582164049,0.17786140739917755,0.397743284702301,0.5950433611869812,-0.6983722448348999,0.006156861782073975,0.1624487042427063,-0.1085125207901001,0.4310403922811306,-0.34176529697310937,-0.18441899523908392,0.8144878255212824,-0.6373195838306736,0.5177129969682028,2.342371703700203
1780949153810835200,1.058204174041748,-1.035905361175537,-0.008344033733010292,0.11280623823404312,0.3985600471496582,0.6019750833511353,-0.6919363737106323,-0.010422229766845703,0.17295777797698975,-0.12761318683624268,0.42859952228153475,-0.34419404443931556,-0.18857964329792087,0.8138001442676106,-0.645972261131433,0.5225905765493085,2.350622461766369
1780949153820870144,1.0682392120361328,-0.8667864799499512,-0.03848036378622055,0.051337551325559616,0.3988962173461914,0.6083503365516663,-0.6861425638198853,-0.014588356018066406,0.17016828060150146,-0.11148011684417725,0.42655394896831206,-0.3462546146494427,-0.19244855669245436,0.8130947353176771,-0.6539804350533995,0.5266012540836054,2.3576605009437643
1780949153830905088,1.0782740116119385,-0.5911692976951599,-0.06093214079737663,-0.014739200472831726,0.3986409902572632,0.6132563352584839,-0.6819106340408325,-0.005940794944763184,0.1589299440383911,-0.06015479564666748,0.42517483110511034,-0.34760654299227606,-0.19548497929387723,0.8125157465227868,-0.6601765989181639,0.5290146772230516,2.3624658933547353
1780949153840940032,1.0883090496063232,-0.3446047604084015,-0.025626085698604584,-0.042527955025434494,0.39814895391464233,0.6165421605110168,-0.6792297959327698,-0.000977933406829834,0.13998854160308838,-0.01287829875946045,0.4244502636726037,-0.3483835904210568,-0.19751952557403168,0.8120695300081253,-0.6643432476325459,0.5301935969362217,2.3650994018608578
1780949153850974976,1.098344087600708,-0.2605181336402893,-0.00953206978738308,-0.052343301475048065,0.39777112007141113,0.6187378168106079,-0.6774523854255676,0.006342709064483643,0.12676090002059937,0.03792601823806763,0.42410925181179165,-0.34891204004131776,-0.19883205247807062,0.8117005056291515,-0.6671350141576669,0.5309228225846927,2.366496218764478
1780949153861010688,1.10837984085083,-0.2713710367679596,0.0034780048299580812,-0.058972977101802826,0.39739763736724854,0.6207013726234436,-0.6758735179901123,0.012743353843688965,0.06495237350463867,0.0695960521697998,0.4238837311620705,-0.34938587114650405,-0.19998190203009766,0.8113318669846751,-0.6696369162849857,0.5315316645140928,2.3675408727917873
1780949153871045888,1.1184148788452148,-0.4745827317237854,0.006035838276147842,-0.050065767019987106,0.3970881998538971,0.6233621835708618,-0.6736027002334595,0.017157405614852905,-0.04317730665206909,0.05780375003814697,0.4234834907968219,-0.35011829447685244,-0.20153368257425133,0.8108410565691644,-0.673035231704611,0.5326624796719188,2.3692690720954594
1780949153881080576,1.1284496784210205,-0.6881600022315979,-0.008247759193181992,-0.02944703958928585,0.39682382345199585,0.6274770498275757,-0.6699278354644775,0.020504027605056763,-0.11244720220565796,0.054525673389434814,0.42261163278664887,-0.35131513932257535,-0.20399447382685787,0.8101624870102392,-0.6783087683642741,0.5347667309882426,2.372664904802075
1780949153891115776,1.1384847164154053,-0.7799117565155029,-0.017817562445998192,0.006456365808844566,0.3966548442840576,0.6324940323829651,-0.6652940511703491,0.016537874937057495,-0.15385639667510986,0.029338300228118896,0.42134007675765406,-0.35281781248684446,-0.2070569266020664,0.809394505929156,-0.6847689253308312,0.5376279371553138,2.3774173718433733
1780949153901150720,1.14851975440979,-0.7729291915893555,-0.01576133631169796,0.051100797951221466,0.3967200815677643,0.6375734210014343,-0.6603887677192688,0.005013316869735718,-0.15003985166549683,-0.007915675640106201,0.41981556608464293,-0.35442265276620327,-0.2102146521638786,0.8086713098825018,-0.6913443216529325,0.5409613793181492,2.3829563734048045
1780949153911185664,1.1585547924041748,-0.643171489238739,-0.0062791514210402966,0.10624953359365463,0.3971578776836395,0.6419854164123535,-0.6558356285095215,-0.005174845457077026,-0.08915948867797852,-0.028261661529541016,0.4182023904165363,-0.35596701803660574,-0.21300160213952873,0.808099358157078,-0.6970849912166416,0.5445089481805473,2.3886811227564735
1780949153921220864,1.1685898303985596,-0.4150072932243347,-0.00268947659060359,0.15702642500400543,0.3979890048503876,0.6449540853500366,-0.652410089969635,-0.011850088834762573,-0.02889573574066162,-0.041590094566345215,0.4167097205577154,-0.35721060481189953,-0.2149314407576855,0.8078106269463299,-0.7009631766559473,0.547761049989742,2.3937888384120622
1780949153931255808,1.1786248683929443,-0.1555541604757309,0.009625513106584549,0.2005225121974945,0.3991754651069641,0.6460891366004944,-0.6505596041679382,-0.014089435338973999,0.0015091300010681152,-0.04063302278518677,0.4154727990881742,-0.3580097307714078,-0.2157527396680684,0.8078750274249282,-0.7024493391218373,0.5503507054125379,2.397755819459006
1780949153941290496,1.18865966796875,0.04073254019021988,0.026317941024899483,0.23574280738830566,0.40070244669914246,0.6455479264259338,-0.6501579880714417,-0.009192466735839844,0.019063830375671387,-0.02095407247543335,0.41451867463761366,-0.35842373729502075,-0.21553060383256484,0.8082407870265487,-0.7017404950358174,0.5523299088368542,2.4005418803445204
1780949153951325696,1.1986947059631348,0.21020863950252533,0.03492274507880211,0.2648668885231018,0.4025290310382843,0.6437197923660278,-0.650842010974884,0.002652883529663086,0.03464019298553467,0.007211029529571533,0.41376022983041094,-0.35856095336311655,-0.21450648827577812,0.8088409053567792,-0.6993491709329006,0.553892866981085,2.4024797602484464
1780949153961360640,1.2087297439575195,0.330656498670578,0.03885383903980255,0.28876128792762756,0.4045634865760803,0.6407618522644043,-0.6524973511695862,0.020775288343429565,0.026169300079345703,0.025879859924316406,0.41317646613608605,-0.3584288044360658,-0.21279127855778635,0.809650579682523,-0.6954901936544897,0.5550124857428965,2.403639899629264
1780949153971395840,1.2187647819519043,0.36285731196403503,0.034562285989522934,0.2968061566352844,0.4066724181175232,0.6372580528259277,-0.6546141505241394,0.02934744954109192,0.016840457916259766,0.038006484508514404,0.4126609470844971,-0.3581539419908907,-0.21075740731196024,0.8105664332365402,-0.6909350399033083,0.5558908551835019,2.404451656470173
1780949153981430784,1.228799819946289,0.33022481203079224,0.04750258848071098,0.30175885558128357,0.40884241461753845,0.6337313055992126,-0.6566830277442932,0.027391105890274048,0.017284929752349854,0.04663664102554321,0.41211171578017514,-0.35790606493248983,-0.20871447571804025,0.8114835500750057,-0.6863673122483496,0.5568623384833056,2.405357516798159
1780949153991465728,1.2388348579406738,0.2512122690677643,0.06652035564184189,0.2968732714653015,0.4111172556877136,0.6305832266807556,-0.658291220664978,0.02584865689277649,0.00842428207397461,0.04276692867279053,0.4114643474213538,-0.3578478764749162,-0.206879892044903,0.8123069994743163,-0.6823044814014754,0.5582554278896258,2.4066785487034705
1780949154001500672,1.2488696575164795,0.2020907998085022,0.06512725353240967,0.28475430607795715,0.4134122431278229,0.6278848648071289,-0.6594323515892029,0.031381458044052124,0.011733055114746094,0.02973264455795288,0.41075194844520174,-0.35796376702689336,-0.20529434974123154,0.8130185414469909,-0.6788325971475293,0.5599798071268423,2.4083238726031824
1780949154011535616,1.2589046955108643,0.1785401999950409,0.029380176216363907,0.2749280333518982,0.41549333930015564,0.6254571080207825,-0.6604306697845459,0.04684796929359436,0.02493351697921753,-0.0027620792388916016,0.4099978992694976,-0.3580549538724041,-0.2039149693579459,0.8137057578418351,-0.675717261756238,0.5615599919225298,2.4100797586108413
1780949154021570560,1.268939733505249,0.19297799468040466,0.003797317622229457,0.2592145800590515,0.41727209091186523,0.6231141090393066,-0.6615231037139893,0.052103519439697266,0.04557180404663086,-0.027045011520385742,0.40924811764139984,-0.3580102949678617,-0.20265010871929562,0.8144185213547697,-0.6727179545939015,0.5627411664385872,2.411734245723224
1780949154031605760,1.2789747714996338,0.20225244760513306,-0.009026734158396721,0.23004019260406494,0.4187825322151184,0.6207739114761353,-0.6627676486968994,0.03629559278488159,0.061263442039489746,-0.039945363998413086,0.4086113305238979,-0.35784511640494027,-0.20140272290348146,0.815119954622108,-0.6697294418607598,0.5635237948086147,2.4130061162072525
1780949154041640704,1.2890098094940186,0.20428471267223358,-0.020501496270298958,0.1944020390510559,0.4200144410133362,0.6185271739959717,-0.6640873551368713,0.013533532619476318,0.07007145881652832,-0.04259294271469116,0.4080930062745204,-0.35758803330978356,-0.2002176767186632,0.8157841463113186,-0.6668669159091667,0.5639520040168434,2.4139146930952284
1780949154051675904,1.2990448474884033,0.20479683578014374,-0.031226977705955505,0.16897736489772797,0.4209762513637543,0.6163881421089172,-0.6654657125473022,0.0023483335971832275,0.06799906492233276,-0.037186264991760254,0.4076877567726733,-0.35724703806887464,-0.19910222264212227,0.8164089110799886,-0.6641476049796501,0.5640486601609561,2.414484276307782
1780949154061710848,1.309079885482788,0.20537607371807098,-0.03887983784079552,0.13305318355560303,0.4216785430908203,0.6143725514411926,-0.6668834686279297,-0.0011615753173828125,0.05948609113693237,-0.017808914184570312,0.40740196475180923,-0.35683471680107387,-0.19805873373240515,0.816985480507613,-0.661590487752901,0.5638402460176392,2.4147113917412173
1780949154071745536,1.3191146850585938,0.1834995299577713,-0.03640829026699066,0.09876099228858948,0.42215487360954285,0.6125713586807251,-0.6682377457618713,0.0014443695545196533,0.05200999975204468,0.002893507480621338,0.40724329724113584,-0.3564049715735003,-0.19712082396035513,0.8174789733603893,-0.6593096428802098,0.5634338988195242,2.4146244177556704
1780949154081780736,1.3291497230529785,0.17991332709789276,-0.03975721821188927,0.06955357640981674,0.42241257429122925,0.6110049486160278,-0.6695078015327454,0.0024531781673431396,0.05273711681365967,0.020337820053100586,0.4071798442352516,-0.35596095287257423,-0.19631075570129816,0.8178988746501678,-0.6573294356306355,0.5628522454700741,2.414311945798018
1780949154091815680,1.3391847610473633,0.15369077026844025,-0.03587951883673668,0.03745449334383011,0.42248082160949707,0.6096361875534058,-0.67071133852005,-0.0006363391876220703,0.04412662982940674,0.03144431114196777,0.4072214419136808,-0.3555073343321809,-0.19559876417005792,0.8182458907224428,-0.6556015469148675,0.5621148872574396,2.413747635208244
1780949154101850624,1.349219799041748,0.09778916835784912,-0.025136062875390053,-0.0004798375885002315,0.42239588499069214,0.6086857914924622,-0.671627402305603,-0.009386241436004639,0.03454846143722534,0.03345906734466553,0.407343544418422,-0.3551392150944353,-0.1950959812940395,0.8184650516504131,-0.6544031675054937,0.5614089544573804,2.413082858244057
1780949154111885824,1.3592548370361328,0.03815806284546852,-0.012366605922579765,-0.013233182951807976,0.42222315073013306,0.6082924604415894,-0.6720922589302063,-0.017453253269195557,0.028060078620910645,0.029453039169311523,0.4074708228108741,-0.35492626269603605,-0.19488773865198503,0.8185436695926934,-0.6539074584208391,0.5609129353207533,2.412571914911634
1780949154121920768,1.3692898750305176,0.04427187889814377,0.00031909672543406487,-0.013326659798622131,0.42211827635765076,0.6080577969551086,-0.672370433807373,-0.018492788076400757,0.012318789958953857,0.018348217010498047,0.40758973881286475,-0.35480843809818574,-0.19474537590080024,0.818569456682248,-0.6536118538069158,0.5606146564402372,2.4121617370459423
1780949154131955712,1.3793246746063232,0.0408015139400959,0.003161221742630005,-0.01866603083908558,0.4220340847969055,0.6078529357910156,-0.6726083755493164,-0.017294704914093018,-0.011386871337890625,-0.0016317367553710938,0.4077278425982417,-0.35471807287374607,-0.19460449545064268,0.8185732309944063,-0.6533538344612606,0.5603655542488438,2.4117224184848176
1780949154141990656,1.389359712600708,0.05157506838440895,9.370967745780945e-06,-0.015677697956562042,0.4219319522380829,0.6076176166534424,-0.6728850603103638,-0.016048163175582886,-0.012738466262817383,-0.01218879222869873,0.4078842743941715,-0.3546105216859229,-0.19444498562620544,0.818579838304691,-0.6530575012853649,0.5600714447918044,2.4112216871648555
1780949154152025600,1.3993947505950928,0.06428180634975433,0.0031978399492800236,-0.008438427932560444,0.42186665534973145,0.6072763204574585,-0.6732341051101685,-0.01988905668258667,-0.01142054796218872,-0.01792806386947632,0.4080389146870728,-0.3544849342528415,-0.19422510135618246,0.8186094764021444,-0.6526278628237457,0.559768437569135,2.4107016054693142
1780949154162060800,1.4094297885894775,0.06987391412258148,0.005741958040744066,-0.003471366362646222,0.4218623638153076,0.606848955154419,-0.6736220121383667,-0.02580520510673523,-0.008338212966918945,-0.0144578218460083,0.40818950558458333,-0.3543620135956416,-0.19394987444049114,0.8186528658509081,-0.6520900672262182,0.5595046816019321,2.4101829640253594
1780949154172095744,1.4194648265838623,0.0809454694390297,0.011891063302755356,0.006660363636910915,0.4219414293766022,0.6063241958618164,-0.6740447878837585,-0.02519768476486206,-0.010850012302398682,-0.006481945514678955,0.4083255229195737,-0.35424801910520826,-0.1936129133000616,0.8187139787935878,-0.6514300327820897,0.5593067964813214,2.409695417473419
1780949154182130688,1.429499864578247,0.09522081166505814,0.0194949209690094,0.02103983610868454,0.42213141918182373,0.6056641340255737,-0.6745191216468811,-0.01458442211151123,-0.01853644847869873,0.004002213478088379,0.40844049057313236,-0.35414319319258,-0.19319167429588657,0.8188015887044151,-0.6506002409694716,0.559192850304875,2.409251881179749
1780949154192165632,1.4395346641540527,0.09838917851448059,0.025263195857405663,0.029441576451063156,0.4224276840686798,0.6049000024795532,-0.6750190854072571,-0.0038333237171173096,-0.021800637245178223,0.013230204582214355,0.4085367681679284,-0.3540571721063206,-0.19270174294971942,0.8189061217722678,-0.6496403055057999,0.5591751506608696,2.4088550629836116
1780949154202200576,1.4495697021484375,0.09248068928718567,0.026052290573716164,0.03583955392241478,0.4227959215641022,0.6041001677513123,-0.6755046844482422,0.005564063787460327,-0.02158069610595703,0.019742965698242188,0.4085940687025098,-0.3539903449832639,-0.19219386407798547,0.8190258332680529,-0.6486362575314925,0.5592436190585459,2.408566582337087
1780949154212235776,1.4596047401428223,0.05324460193514824,0.02594802714884281,0.035995081067085266,0.42319345474243164,0.6034407019615173,-0.675845205783844,0.01651906967163086,-0.030290067195892334,0.022006094455718994,0.40859956217116095,-0.35397941609256167,-0.1917706318499629,0.8191270855022028,-0.6478089641761822,0.559439664732396,2.4084633022989093
1780949154222270720,1.469639778137207,0.012490780092775822,0.031390462070703506,0.03656206652522087,0.42361265420913696,0.6030486822128296,-0.6759324073791504,0.020708024501800537,-0.03601682186126709,0.02279520034790039,0.40853548333173795,-0.3540621211887143,-0.19150411235775314,0.8191854927992666,-0.6473174057565033,0.5598270510528126,2.4086291780451345
1780949154232305664,1.4796748161315918,-0.022121259942650795,0.030896712094545364,0.03702412545681,0.4240541458129883,0.6029361486434937,-0.6757559180259705,0.021227777004241943,-0.03431743383407593,0.02037566900253296,0.4084039841452179,-0.3542434508568364,-0.19139914280259798,0.8191972180889172,-0.6471763874786208,0.5604134508048357,2.409064027254108
1780949154242341632,1.489710807800293,-0.03471028804779053,0.01854763552546501,0.03699110448360443,0.42444321513175964,0.6029746532440186,-0.6754772663116455,0.025813132524490356,-0.022835493087768555,0.013657808303833008,0.40823052726478776,-0.3544398786831222,-0.19139940224043633,0.8191987047853574,-0.6472246190158705,0.5610121827332781,2.4096354716005717
1780949154252376832,1.4997458457946777,-0.03838757798075676,0.008350923657417297,0.0315617173910141,0.4247308373451233,0.6030771732330322,-0.6752049326896667,0.02212280035018921,-0.0073282718658447266,0.004794716835021973,0.4080377865935396,-0.35459702318665093,-0.19146407893561315,0.8192115896694657,-0.6473531249310303,0.5614991299443085,2.4102410977538673
1780949154262411776,1.5097808837890625,-0.038605425506830215,0.008239869959652424,0.025333916768431664,0.4249560832977295,0.6032137274742126,-0.6749411225318909,0.008027315139770508,0.008480608463287354,0.00039583444595336914,0.40786487098689583,-0.3547354761589761,-0.19155203286676567,0.8192171713120948,-0.6475243238414242,0.5619143136074295,2.4107887192888473
1780949154272446720,1.5198156833648682,-0.021387824788689613,0.017109660431742668,0.01592843048274517,0.4251724183559418,0.6033305525779724,-0.6747004389762878,-0.008988946676254272,0.019853651523590088,-0.002728700637817383,0.4077312437402737,-0.35487080484845895,-0.19161545037253755,0.8192103069599925,-0.6476708071254027,0.5623046558967724,2.411230731879777
1780949154282481664,1.529850721359253,0.0185281652957201,0.019677480682730675,0.011733419261872768,0.4253847599029541,0.6032946109771729,-0.674598753452301,-0.0160067081451416,0.02901434898376465,-0.004524171352386475,0.4076861880645872,-0.35496904556353714,-0.19156615472292954,0.8192017354784112,-0.6476257589432504,0.5625978875534241,2.4114018639114705
1780949154292516608,1.5398857593536377,0.08473754674196243,0.007090848870575428,0.00587739422917366,0.4255322813987732,0.6028979420661926,-0.6748602390289307,-0.011439263820648193,0.03554505109786987,-0.011022329330444336,0.40775997097122985,-0.3549267722095011,-0.19130309084178482,0.8192447205837096,-0.6471284948075109,0.5625794916028979,2.411134311295433
1780949154302551808,1.5499207973480225,0.15068086981773376,-0.0039849719032645226,0.003556183073669672,0.4255721867084503,0.6020932197570801,-0.6755530834197998,-0.005406200885772705,0.035922467708587646,-0.01617354154586792,0.4079477679637474,-0.3547011473982176,-0.19081549446420093,0.8193625866454417,-0.6461202304393268,0.5621589212755181,2.410409495638179
1780949154312586752,1.5599558353424072,0.19894985854625702,-0.0028533940203487873,-0.0006382956635206938,0.42555660009384155,0.600860059261322,-0.6766599416732788,-0.0036205947399139404,0.024460315704345703,-0.017096102237701416,0.40825983560724444,-0.3543174213771479,-0.1900767997405896,0.8195448687854091,-0.6445766380537171,0.5614043602079093,2.4092153943209045
1780949154322621696,1.569990873336792,0.20616543292999268,-0.0013827965594828129,-0.007687683217227459,0.42551153898239136,0.5994818210601807,-0.6779096126556396,-0.0015308260917663574,0.013997793197631836,-0.011314630508422852,0.40863802479717676,-0.35388017057292265,-0.18924595902037175,0.8197375573119571,-0.6428535512378808,0.5605255144833902,2.4078028415989965
1780949154332656640,1.5800256729125977,0.2044927030801773,0.004239269532263279,-0.010853649117052555,0.4254644811153412,0.5981197357177734,-0.6791412234306335,0.004833340644836426,0.005746781826019287,0.005175769329071045,0.40904305693336424,-0.3534543784946863,-0.18841285092388105,0.8199112280260057,-0.6411528531055314,0.5596587649504752,2.4063333058769594
1780949154342691584,1.5900607109069824,0.21649770438671112,-0.004618670791387558,-0.00865893717855215,0.42541182041168213,0.5967328548431396,-0.6803930401802063,0.019076675176620483,-0.002677738666534424,0.012347996234893799,0.409453630316839,-0.35301833978987546,-0.18756744220601465,0.8200879120730772,-0.6394234149469649,0.558774922917182,2.4048431930154583
1780949154352726784,1.6000957489013672,0.20817479491233826,-0.012758489698171616,-0.008084760047495365,0.4252995252609253,0.5953124165534973,-0.6817062497138977,0.030465245246887207,-0.00948178768157959,0.011143505573272705,0.40986166450132344,-0.35253619576780615,-0.18672199776769838,0.8202844345445853,-0.6376544451261311,0.5577899620178401,2.4033317992722654
1780949154362761728,1.610130786895752,0.18106061220169067,-0.018044330179691315,-0.00995003804564476,0.4251300096511841,0.5940024256706238,-0.6829536557197571,0.025629878044128418,-0.012947678565979004,0.009476423263549805,0.4102323309572309,-0.3520532679346819,-0.18596150366846492,0.8204793132965721,-0.636024997531576,0.5567904342390744,2.401933226581082
1780949154372796672,1.6201658248901367,0.13467900454998016,-0.024116339161992073,-0.013685653917491436,0.42490649223327637,0.5929796695709229,-0.6839807033538818,0.015767335891723633,-0.02227044105529785,0.007116079330444336,0.41054132445104163,-0.3516292785625662,-0.18538202391212916,0.8206376732912238,-0.6347542437206068,0.5558807193317229,2.4007658602818704
1780949154382831872,1.6302008628845215,0.08561293035745621,-0.02344282530248165,-0.016820726916193962,0.4246566593647003,0.5922898650169373,-0.6847330331802368,0.003672778606414795,-0.030491888523101807,0.006785094738006592,0.41077533718248077,-0.3512930172617248,-0.18500456303429308,0.8207496935204186,-0.6338979090313498,0.5551245797247112,2.3998848177590677
1780949154392866560,1.6402356624603271,0.05784281715750694,-0.025051509961485863,-0.019304390996694565,0.4243755042552948,0.5918855667114258,-0.685256838798523,-0.0008678138256072998,-0.02929401397705078,0.006027102470397949,0.4109510567505921,-0.3510280572752754,-0.18479957680780829,0.8208213679378584,-0.633396208669163,0.5544856493593068,2.3992310450048877
1780949154402901760,1.650270700454712,0.048839468508958817,-0.027114124968647957,-0.02276836521923542,0.42407292127609253,0.5916057229042053,-0.6856856942176819,-0.004227340221405029,-0.022559702396392822,0.00451815128326416,0.41110442733722286,-0.3507905377580343,-0.1846703458506077,0.8208752095335626,-0.6330490154213483,0.5538864953289204,2.3986660434734044
1780949154412936704,1.6603057384490967,0.03966248035430908,-0.023614466190338135,-0.025513285771012306,0.4237656593322754,0.5914139747619629,-0.686040997505188,-0.007582187652587891,-0.01278543472290039,0.0036984682083129883,0.4112578480475665,-0.3505819651142314,-0.1845854367241499,0.8209065640215258,-0.6328112104298929,0.5533306683001995,2.398128633545914
1780949154422971648,1.6703407764434814,0.042329635471105576,-0.009615826420485973,-0.02439955063164234,0.42351195216178894,0.5912302732467651,-0.6863558888435364,-0.010334491729736328,-0.008314073085784912,0.006302177906036377,0.4114146497766878,-0.3504075658242684,-0.18449012590195285,0.8209238337447312,-0.6325834581633539,0.5528578867093313,2.3976033518144497
1780949154433006848,1.6803758144378662,0.05301317572593689,-0.004592305514961481,-0.022720694541931152,0.42332255840301514,0.5910014510154724,-0.6866697669029236,-0.012403368949890137,-0.007718980312347412,0.006677150726318359,0.41158874295670417,-0.35025740271939954,-0.18434982086652943,0.8209322251975361,-0.632299707718211,0.552453704949388,2.3970426254126047
1780949154443041792,1.690410852432251,0.06934687495231628,0.004778825677931309,-0.022064758464694023,0.42319273948669434,0.5906809568405151,-0.6870254278182983,-0.011586904525756836,-0.007993578910827637,0.00230252742767334,0.41178464101589984,-0.3501133211264693,-0.18414107198674357,0.820942305262905,-0.6319025069740878,0.5520854503043128,2.3964186030819503
1780949154453076480,1.7004456520080566,0.07699120789766312,0.01365887001156807,-0.021292440593242645,0.42312178015708923,0.5902546048164368,-0.6874353885650635,-0.012431472539901733,-0.005492031574249268,-0.00033926963806152344,0.41201319542191217,-0.34997224184193076,-0.1838524679832971,0.8209523540624538,-0.6313742042193395,0.5517442578666277,2.395699937690156
1780949154463111680,1.7104806900024414,0.10048189014196396,0.013977916911244392,-0.023034414276480675,0.4230802059173584,0.5897303819656372,-0.6879107356071472,-0.010864019393920898,-0.002282261848449707,-0.0009167790412902832,0.41227441972700346,-0.34982018057054404,-0.1834951552475348,0.8209659515707367,-0.6307249385586847,0.551391884158264,2.39488014469967
1780949154473146624,1.7205157279968262,0.09863525629043579,0.012473497539758682,-0.023644810542464256,0.4230397343635559,0.5891263484954834,-0.688452959060669,-0.005635589361190796,-0.003799259662628174,-0.0009695887565612793,0.4125537196766746,-0.34964433013619306,-0.18309110426069206,0.8209908019409617,-0.6299772348888562,0.5509976720833184,2.393991554782533
1780949154483181824,1.730550765991211,0.07286836951971054,0.011875350959599018,-0.02157127484679222,0.42298826575279236,0.58863765001297,-0.6889025568962097,-0.0021661221981048584,-0.01237422227859497,0.004484832286834717,0.41281315990946027,-0.3494988688116755,-0.1827546405684846,0.8209973677382588,-0.6293725220323017,0.5506522699653243,2.3931856114507477
1780949154493216768,1.7405858039855957,0.05228027328848839,0.0051657832227647305,-0.023354260250926018,0.42290198802948,0.5883112549781799,-0.6892342567443848,0.00023949146270751953,-0.02129465341567993,0.008738040924072266,0.41302593252991265,-0.34938114664488257,-0.1825258472043015,0.820991366877068,-0.628968837709367,0.550346726735643,2.3925345906970708
1780949154503251712,1.7506208419799805,0.005501047242432833,0.0037705530412495136,-0.018557108938694,0.42279380559921265,0.5882087349891663,-0.68938809633255,0.007549881935119629,-0.026242733001708984,0.007335484027862549,0.41317837291159615,-0.3493172895404953,-0.18243730843860217,0.8209615007038943,-0.6288420549009159,0.550133187086336,2.392095431820468
1780949154513286912,1.7606558799743652,-0.011889660730957985,0.010267467238008976,-0.01572084240615368,0.42273205518722534,0.5883185863494873,-0.6893321871757507,0.010861694812774658,-0.017319440841674805,0.013505160808563232,0.41324919813105704,-0.3493372190240097,-0.18247578057120248,0.820908804965538,-0.6289779442381123,0.5501042647233546,2.3919381775537913
1780949154523321600,1.770690679550171,-0.016524892300367355,0.0027823871932923794,-0.012730910442769527,0.4227081537246704,0.5884828567504883,-0.6892066597938538,0.01985776424407959,-0.010800361633300781,0.014401912689208984,0.4132885399058678,-0.34939092728114374,-0.1825449563611425,0.8208507862936668,-0.6291811093511221,0.5501602486486115,2.3918873244289776
1780949154533356544,1.7807257175445557,0.004781727213412523,-0.004413207992911339,-0.004694024100899696,0.4226406216621399,0.5885823965072632,-0.6891630291938782,0.022946536540985107,0.0025125741958618164,0.004485905170440674,0.41331064717920735,-0.34939309736661395,-0.1826005265877125,0.8208263384826979,-0.6293042344359625,0.5501172516533237,2.3918435320237443
1780949154543391744,1.7907607555389404,0.015149147249758244,0.0013370895758271217,-0.004137689247727394,0.42261382937431335,0.5885170698165894,-0.6892352104187012,0.013680726289749146,0.012831807136535645,-0.006580829620361328,0.41334236382723966,-0.34936172938115195,-0.1825616948938741,0.8208323082859538,-0.6292234182705403,0.5500423037393476,2.391736572373553
1780949154553426688,1.8007957935333252,0.043417539447546005,0.006750630214810371,-0.002768558217212558,0.4226284623146057,0.58833247423172,-0.6893839240074158,-0.001958906650543213,0.01940983533859253,-0.008675217628479004,0.41341923015065757,-0.3493213036837205,-0.18243539830179895,0.8208389720258348,-0.6289950811098325,0.5499616341609932,2.3914950065591225
1780949154563461888,1.81083083152771,0.06976579129695892,0.0053913528099656105,-0.002736067632213235,0.42266684770584106,0.5879383087158203,-0.6896964907646179,-0.00457608699798584,0.016508102416992188,-0.01025468111038208,0.413538783641561,-0.3492292979518607,-0.18218304160039844,0.8208738011450243,-0.6285077086051889,0.5498001257388616,2.3910896996420115
1780949154573496832,1.8208658695220947,0.08842948824167252,-0.002458713948726654,-0.00272168661467731,0.42264875769615173,0.5874223709106445,-0.6901470422744751,-0.0012162625789642334,0.006281852722167969,-0.0010455846786499023,0.4136881347753372,-0.34906855244744395,-0.18187253027872022,0.8209358475073296,-0.6278700890923393,0.5494901392243974,2.3905553952570093
1780949154583531520,1.8309006690979004,0.08550587296485901,-0.00011619739234447479,-0.0029664309695363045,0.4226265251636505,0.5868107676506042,-0.6906808614730835,-0.0006752312183380127,-0.001773536205291748,0.009314894676208496,0.41384845988318325,-0.3488739320489412,-0.18151187060540508,0.8210177008609479,-0.6271145631677153,0.5491224499274673,2.3899630961076284
1780949154593566720,1.8409357070922852,0.05949370935559273,0.006484447047114372,0.0010586705757305026,0.4226565957069397,0.5863099694252014,-0.691087543964386,-0.0027042031288146973,-0.009375214576721191,0.012758076190948486,0.4139785477204043,-0.34874178402669365,-0.18120541208157526,0.8210758160107651,-0.6264962211567486,0.5488920613395956,2.3894964893143005
1780949154603601664,1.85097074508667,0.04462501406669617,0.002573595382273197,-0.000992762390524149,0.42269644141197205,0.5859451293945312,-0.6913725137710571,0.001665741205215454,-0.01517486572265625,0.01658308506011963,0.41406945938550316,-0.3486547972780064,-0.18097946412230181,0.8211167284040378,-0.6260458984295403,0.5487505204196231,2.3891720253413573
1780949154613636608,1.8610057830810547,0.020244305953383446,-0.0026659080758690834,0.004367115907371044,0.4227222502231598,0.5857048034667969,-0.6915603876113892,0.007453560829162598,-0.024562835693359375,0.01049959659576416,0.4141095577107318,-0.3485928813430302,-0.18083918061145893,0.8211537575433256,-0.6257493862046495,0.548656789157673,2.3890065628093233
1780949154623671808,1.8710408210754395,0.004495969973504543,-0.0034968145191669464,0.0049697887152433395,0.4227258563041687,0.5855907797813416,-0.6916548013687134,0.007587254047393799,-0.019840657711029053,0.004932999610900879,0.4141020966784776,-0.3485528028388909,-0.18078594233427983,0.821186245596036,-0.6256086428015948,0.5485998689247942,2.38898975935293
1780949154633706752,1.8810758590698242,-0.003377665299922228,-0.001712496392428875,0.005785781890153885,0.4227093756198883,0.585614025592804,-0.6916452050209045,0.00021848082542419434,-0.015789806842803955,-0.0011343955993652344,0.41407912975875383,-0.3485466743061175,-0.1808110287274419,0.821194919622986,-0.6256373279759119,0.5485886857623996,2.3890478296515076
1780949154643741696,1.8911106586456299,-0.007479200139641762,0.002141897100955248,0.0071240197867155075,0.4227128028869629,0.585666298866272,-0.6915988326072693,-0.005217075347900391,-0.010165810585021973,-0.002523481845855713,0.41406049348571494,-0.3485630430469513,-0.18084356247517594,0.821190250179156,-0.6257018606134246,0.5486221147705165,2.3891109424281836
1780949154653776640,1.9011456966400146,-0.0032370504923164845,0.005999219603836536,0.0038672401569783688,0.4227554500102997,0.5857027769088745,-0.6915417909622192,-0.00817418098449707,-0.003457963466644287,-0.0023363232612609863,0.41403614380927695,-0.34859475105348414,-0.18086125482770204,0.821185138254891,-0.6257468802855339,0.5487037141321219,2.3891953319604693
1780949154663811584,1.9111807346343994,0.0031651887111365795,0.0036764105316251516,-0.0001248382031917572,0.4228072166442871,0.5857164263725281,-0.6914986371994019,-0.0033278465270996094,0.00025159120559692383,0.0028084516525268555,0.414028461724894,-0.3486271269860262,-0.1808585351347748,0.8211758822175746,-0.6257637070395875,0.5487859762169335,2.389234870880156
1780949154673846784,1.9212157726287842,0.011793564073741436,0.007266883738338947,-0.0012393711367622018,0.4228636622428894,0.5856778025627136,-0.6914967894554138,-0.0002714991569519043,0.003921806812286377,0.007079124450683594,0.4140361670381203,-0.348647018440779,-0.18082270369894565,0.8211714188329345,-0.6257160618457641,0.5488465555574819,2.38922180405151
1780949154683882752,1.9312517642974854,0.02581191062927246,0.008604856207966805,0.000744683900848031,0.42294207215309143,0.5855376124382019,-0.691567599773407,0.005692601203918457,0.006091415882110596,0.007272005081176758,0.41407053366130286,-0.348649106582269,-0.1807207484805776,0.8211756783682274,-0.6255430864355559,0.5488834975588414,2.389118698231931
1780949154693917696,1.9412868022918701,0.03869655355811119,0.00029139919206500053,-0.0011373721063137054,0.4230155646800995,0.5852570533752441,-0.6917601227760315,0.014255553483963013,0.007318019866943359,0.0046874284744262695,0.4141285369546173,-0.34860383810156487,-0.18054165415689077,0.8212050588755763,-0.6251970160842584,0.548836957124629,2.3889120161375343
1780949154703952896,1.9513218402862549,0.04674782231450081,-0.0035387584939599037,-0.0007208536844700575,0.42303287982940674,0.5849109888076782,-0.6920421719551086,0.01934993267059326,0.004871726036071777,0.004618406295776367,0.4142053084598266,-0.34850778733467574,-0.1803364906324603,0.8212521662522336,-0.6247703480849933,0.5486737953689963,2.3886211049759223
1780949154713987840,1.9613568782806396,0.04947170242667198,-0.008073722943663597,-0.0032607102766633034,0.42298126220703125,0.5845467448234558,-0.6923814415931702,0.01863861083984375,0.00015479326248168945,0.006102144718170166,0.4142938726980373,-0.34836893317479867,-0.18013431367911947,0.8213108225724214,-0.624321317294687,0.5484014114075729,2.388274156009378
1780949154724022528,1.9713916778564453,0.05090927705168724,-0.015034161508083344,-0.0021033005323261023,0.42288389801979065,0.5841904878616333,-0.6927413940429688,0.016340315341949463,-0.004158198833465576,0.007499754428863525,0.4143837442659206,-0.3482075384301053,-0.17994669220483708,0.8213749165155775,-0.6238822895312288,0.5480678305981008,2.387912022994563
1780949154734057728,1.98142671585083,0.04625620320439339,-0.016116736456751823,-0.0014175366377457976,0.42275503277778625,0.5838506817817688,-0.693106472492218,0.009907901287078857,-0.007953524589538574,0.004782497882843018,0.4144676496622575,-0.34803287377850095,-0.17977735107631065,0.8214437072250028,-0.6234636773052993,0.547698061504745,2.387560189618861
1780949154744092672,1.9914617538452148,0.03302641585469246,-0.0160893052816391,-0.0014873114414513111,0.422622948884964,0.5836110711097717,-0.6933887600898743,0.0018918216228485107,-0.008003830909729004,0.0027912259101867676,0.4145284414811011,-0.34788685529836805,-0.17966735747239945,0.8214989898571888,-0.6231686031116651,0.5473781524843684,2.38729537148319
1780949154754127616,2.0014967918395996,0.02226538024842739,-0.014430955052375793,-0.001359479734674096,0.42250677943229675,0.5834741592407227,-0.6935747265815735,-0.005865573883056641,-0.006707251071929932,0.004167377948760986,0.41456473567344854,-0.3477808833397005,-0.17961377147967522,0.8215371753850461,-0.6229999794648552,0.5471368525188158,2.3871273182551263
1780949154764162816,2.0115318298339844,0.021311435848474503,-0.005422545596957207,-0.0010484224185347557,0.42244958877563477,0.5833734273910522,-0.6936942934989929,-0.010599613189697266,-0.006499648094177246,0.00414961576461792,0.4145903979944322,-0.34771859545759737,-0.17956790763964325,0.8215606698270304,-0.6228759679243486,0.5470001131959825,2.387015371381814
1780949154774197760,2.021566867828369,0.0417485348880291,-0.0060598403215408325,0.0055727288126945496,0.4224558174610138,0.5831814408302307,-0.6938519477844238,-0.008133918046951294,-0.0001736283302307129,0.003193378448486328,0.41462450672387025,-0.3476616572410137,-0.17945863350528463,0.8215914820888177,-0.6226396100832376,0.54690572577618,2.38687431747235
1780949154784232704,2.031601667404175,0.05939570441842079,-0.00406140461564064,0.004391350783407688,0.42250531911849976,0.5828278064727783,-0.694118857383728,-0.003529489040374756,0.0023772120475769043,0.0018733739852905273,0.4146745584022351,-0.34757551208580345,-0.17925351349923582,0.8216474642966625,-0.6222043663024136,0.5467869353657098,2.3866575494391764
1780949154794267648,2.0416367053985596,0.06424159556627274,-0.005506968125700951,0.00656741950660944,0.42257413268089294,0.5823672413825989,-0.6944634914398193,-0.0020876824855804443,-0.001556694507598877,0.001226186752319336,0.41473868042655687,-0.3474655765043886,-0.17898580683963916,0.821719979130341,-0.6216376837669965,0.5466388116938425,2.3863793563531956
1780949154804302592,2.0516717433929443,0.04526284337043762,0.0002696942538022995,0.010466819629073143,0.4226793050765991,0.5819215178489685,-0.6947729587554932,-0.003428846597671509,-0.011242866516113281,0.0020392537117004395,0.4147881192481637,-0.3473783283058384,-0.17872269873099522,0.8217890469575324,-0.6210894795358607,0.546551469926402,2.386152840178158
1780949154814337792,2.061706781387329,0.022031288594007492,0.0020357700996100903,0.0080404132604599,0.42278382182121277,0.5816508531570435,-0.6949360370635986,0.0006933212280273438,-0.015610873699188232,0.007863342761993408,0.4147963243587179,-0.3473435088983726,-0.1785622576483933,0.8218344879131783,-0.6207567107619332,0.5465570641526288,2.386081275704982
1780949154824372736,2.071741819381714,0.012585321441292763,-0.00013284198939800262,0.012162987142801285,0.422872394323349,0.5814806222915649,-0.6950246095657349,0.006326824426651001,-0.01785147190093994,0.011446118354797363,0.4147797235712378,-0.34732975606468974,-0.17846495197351978,0.8218698235839355,-0.6205474086980112,0.5465934972869202,2.386096386075334
1780949154834407680,2.0817768573760986,0.00899111945182085,-0.0024890736676752567,0.011568036861717701,0.4229414463043213,0.5813566446304321,-0.6950863003730774,0.013917654752731323,-0.013638138771057129,0.010744869709014893,0.4147401382344275,-0.34731634266305683,-0.17840461428286264,0.8219085854141951,-0.6203950332528788,0.5466265867201905,2.386175735189108
1780949154844442624,2.0918116569519043,0.005031265318393707,-0.005019342992454767,0.014497780241072178,0.4229758679866791,0.5812400579452515,-0.695162832736969,0.012784600257873535,-0.00960010290145874,0.00975334644317627,0.414697351637546,-0.34728535683739536,-0.17835768551034317,0.8219534319479188,-0.6202517781429217,0.5466138170229117,2.3862542873022705
1780949154854478592,2.1018476486206055,0.005386531352996826,-0.007886102423071861,0.008699812926352024,0.4229819178581238,0.5811715722084045,-0.6952163577079773,0.005667924880981445,-0.005503296852111816,0.00576329231262207,0.4146580826780203,-0.3472561355984345,-0.17833954572732033,0.8219894978631664,-0.6201676438060181,0.5465859885595266,2.386330384502939
1780949154864513536,2.1118826866149902,-0.0004228882025927305,-0.006637080106884241,0.0053016189485788345,0.42295974493026733,0.5811467170715332,-0.6952507495880127,0.000441133975982666,-0.005936145782470703,0.0006859302520751953,0.414629933797551,-0.3472286888643732,-0.17834475710675043,0.8220142913491127,-0.6201370471590335,0.5465407245090241,2.3863844268099776
1780949154874548736,2.121917724609375,0.006006515119224787,-0.005693522747606039,-0.002019144594669342,0.42291662096977234,0.5811218023300171,-0.6952977776527405,-0.0028269290924072266,-0.005773961544036865,-0.0007624030113220215,0.4146185732477527,-0.3471931980909691,-0.17834798442243588,0.8220342207606199,-0.6201064439281517,0.5464654353384087,2.386390707074618
1780949154884583424,2.1319525241851807,0.013623422011733055,-0.006562511902302504,-0.005427458323538303,0.4228602945804596,0.5810583233833313,-0.6953850388526917,-0.0020686686038970947,-0.0017889142036437988,0.0006065964698791504,0.4146401841226676,-0.34714381310450654,-0.1783217859040295,0.8220498742135909,-0.6200284959107948,0.5463506033257726,2.386300864149956
1780949154894618624,2.1419875621795654,0.02086455747485161,-0.002170826308429241,-0.005734787322580814,0.42281845211982727,0.5809410214424133,-0.6955084800720215,-0.003796875476837158,0.0030738115310668945,0.0010963082313537598,0.41468318555551575,-0.3470882656291379,-0.1782568542305396,0.8220656800562757,-0.619884335142927,0.5462278935264687,2.386146676236917
1780949154904653568,2.15202260017395,0.029627954587340355,-0.00408697035163641,-0.008964136242866516,0.42279550433158875,0.5807523131370544,-0.6956800818443298,-0.0005390346050262451,0.0021334290504455566,-0.0012346506118774414,0.414745726052502,-0.3470223824607695,-0.17814442405612113,0.822086420981431,-0.6196525260699315,0.5460942923933221,2.3859289752751764
1780949154914688512,2.162057638168335,0.026822049170732498,-0.001671084202826023,-0.011224094778299332,0.4227757751941681,0.5805643796920776,-0.6958488821983337,0.0009302794933319092,-0.004285693168640137,0.00038379430770874023,0.4148233624063381,-0.346961938930484,-0.17802521941502988,0.8220985440834117,-0.6194216829980673,0.5459659088706174,2.3856756073117156
1780949154924723712,2.1720926761627197,0.021873362362384796,0.005281098186969757,-0.014234265312552452,0.4227611720561981,0.5804217457771301,-0.6959766745567322,0.0015552043914794922,-0.011253714561462402,0.005669116973876953,0.41491505801912726,-0.34692337440884924,-0.17792085200839725,0.8220911139312567,-0.6192465351793492,0.5458690800424068,2.3854037569418884
1780949154934758656,2.1821277141571045,0.012948577292263508,0.007868758402764797,-0.011619040742516518,0.4227449595928192,0.5803508758544922,-0.6960456371307373,-0.0005190074443817139,-0.016126692295074463,0.00956803560256958,0.4150021470953759,-0.34690812410578925,-0.17785366298386854,0.8220681690374847,-0.6191595151372364,0.5458080918438072,2.3851649687321834
1780949154944794624,2.1921637058258057,0.007448084186762571,0.00986772682517767,-0.013853699900209904,0.42275145649909973,0.5803234577178955,-0.6960645318031311,0.00025266408920288086,-0.013871431350708008,0.007404923439025879,0.41507825271784365,-0.3469186200678463,-0.17780662884652565,0.822035435017272,-0.6191258027401823,0.5458028917480483,2.3849732443557476
1780949154954829568,2.2021987438201904,-0.001718782470561564,0.0015144562348723412,-0.014268886297941208,0.42271316051483154,0.5803502798080444,-0.6960654854774475,0.005784124135971069,-0.011182248592376709,0.005147457122802734,0.415146991512621,-0.3469213545646371,-0.17780000822571393,0.8220010688849849,-0.6191587833141153,0.5457621155376843,2.384802526851458
1780949154964864512,2.212233543395996,-0.014608481898903847,-0.00024376250803470612,-0.012079235166311264,0.42263078689575195,0.5804696083068848,-0.6960160136222839,0.005790263414382935,-0.010035037994384766,0.005967855453491211,0.41519051816948105,-0.346926394065353,-0.1778596579890999,0.8219640684842702,-0.6193052703105271,0.5457071296068049,2.3847079412215813
1780949154974899456,2.222268581390381,-0.02967957779765129,0.0014951485209167004,-0.014035061001777649,0.4225585162639618,0.5807040333747864,-0.6958643794059753,-0.000988692045211792,-0.011078178882598877,0.006868958473205566,0.4152089041438552,-0.34697227124396146,-0.17798333034371072,0.821908683799277,-0.6195932194953313,0.5457279702708412,2.384713346909518
1780949154984934656,2.2323036193847656,-0.03311798349022865,0.0015840977430343628,-0.012489628046751022,0.42250755429267883,0.5809879899024963,-0.6956581473350525,-0.005103379487991333,-0.011377394199371338,0.003946781158447266,0.4152110999328576,-0.3470441889879651,-0.17813266523768434,0.8218447205468499,-0.6199420309929218,0.5458059303339078,2.3847798279578116
1780949154994969600,2.2423386573791504,-0.028479555621743202,0.005370980128645897,-0.007107113488018513,0.4224875867366791,0.5812426805496216,-0.6954575181007385,-0.004335731267929077,-0.002369999885559082,0.0029221177101135254,0.4152006328683367,-0.34712047492328735,-0.1782655932916326,0.8217889849473072,-0.6202550037028662,0.5459129756117208,2.3848780538547416
1780949155005004544,2.252373695373535,-0.00746854767203331,0.015513096004724503,-0.00017623722669668496,0.4225594997406006,0.5813627243041992,-0.6953135132789612,-4.363059997558594e-05,0.012204110622406006,0.005845069885253906,0.41519135605314766,-0.3472012676291041,-0.17831022288134996,0.8217499062884072,-0.6204025597374209,0.5460804014041308,2.3849603911726778
1780949155015039744,2.26240873336792,0.034578241407871246,0.01687503606081009,0.0007263080915436149,0.42271873354911804,0.5812273025512695,-0.6953299045562744,0.00924229621887207,0.02442455291748047,0.007829904556274414,0.4152232079282021,-0.3472500789119889,-0.17819209884313872,0.8217388121966597,-0.6202361119029735,0.5462371591380694,2.3848905213674074
1780949155025074432,2.2724435329437256,0.07193546742200851,0.010124456137418747,0.008835101500153542,0.42285966873168945,0.5808151364326477,-0.6955886483192444,0.022819042205810547,0.031245410442352295,0.0037246346473693848,0.4153022040776788,-0.3472011584219012,-0.17792422176084277,0.8217776653295727,-0.6197296605213335,0.5462199763405784,2.384614413953821
1780949155035109632,2.2824785709381104,0.0930229052901268,-0.0020444588735699654,0.0019303231965750456,0.42294618487358093,0.5801542401313782,-0.6960873007774353,0.02500605583190918,0.02503979206085205,-0.009280681610107422,0.4154190856759121,-0.3470423092056865,-0.17753305120876736,0.8218701533223185,-0.6189180312980527,0.5459927294351583,2.3841520168972115
1780949155045144576,2.292513608932495,0.1092040091753006,-0.003449542447924614,-0.004127835854887962,0.4229356646537781,0.5794335007667542,-0.6966937780380249,0.016090214252471924,0.01105111837387085,-0.011344552040100098,0.4155969756304297,-0.3468209908468169,-0.17711100357457601,0.8219647707993875,-0.6180334687902347,0.5455952965358911,2.3834934989933645
1780949155055179520,2.30254864692688,0.10111705213785172,-0.010294400155544281,-0.006262092851102352,0.422878623008728,0.5786966681480408,-0.6973406076431274,0.005038857460021973,-0.0037912726402282715,-0.008408904075622559,0.4157914714027669,-0.3465715778999209,-0.1766857290188298,0.822063179285573,-0.6171296778774135,0.545123940434416,2.382776012450748
1780949155065214720,2.3125836849212646,0.09446634352207184,-0.02044983208179474,-0.0083553371950984,0.4227231740951538,0.5780262351036072,-0.6979905366897583,0.004599213600158691,-0.013863027095794678,0.0031968355178833008,0.4159818387705299,-0.3462895403596126,-0.17631868710293347,0.8221644868935388,-0.6163078495308405,0.5445480501996576,2.3820594178938332
1780949155075249664,2.3226187229156494,0.08257079869508743,-0.021422550082206726,-0.011229421012103558,0.42250359058380127,0.5774491429328918,-0.6986008882522583,0.0011414289474487305,-0.020213425159454346,0.0153428316116333,0.4161663181875846,-0.3460031744978541,-0.17601522742945702,0.8222566493938774,-0.6156007768598353,0.5439307360802716,2.381366868952376
1780949155085284608,2.332653760910034,0.059542711824178696,-0.010309712029993534,-0.006745190359652042,0.4223383665084839,0.5770015716552734,-0.6990704536437988,-0.007497668266296387,-0.022130966186523438,0.018589496612548828,0.41630971315373694,-0.345784089633891,-0.1757786575761877,0.8223268512384728,-0.6150527059890181,0.5434600857984752,2.3808312506422022
1780949155095319552,2.34268856048584,0.034083425998687744,-0.004697632975876331,-0.008105000481009483,0.4222453236579895,0.5766987800598145,-0.6993764042854309,-0.010990440845489502,-0.022240161895751953,0.015874207019805908,0.4164175888143058,-0.3456487980648247,-0.17560951376595577,0.8223652197049907,-0.6146820388182117,0.5431689480967408,2.380448402775457
1780949155105354496,2.3527235984802246,-0.002029040828347206,-0.008193298242986202,-0.0008819749346002936,0.4221741557121277,0.5766190886497498,-0.6994850635528564,-0.0070130228996276855,-0.024800240993499756,0.005362749099731445,0.4164579052530319,-0.34558954459353075,-0.1755714266149603,0.8223778459995372,-0.6145844948471484,0.5430256358988603,2.3803044535144693
1780949155115389696,2.3627586364746094,-0.03329028934240341,-0.0015500430017709732,0.000429099309258163,0.4221271276473999,0.5767403244972229,-0.699413537979126,-0.009346365928649902,-0.0248146653175354,0.0034601688385009766,0.41642333222716527,-0.3455982369261746,-0.17565614003795693,0.8223736530206065,-0.6147328516025271,0.5430216045565096,2.3804110340162143
1780949155125424640,2.372793674468994,-0.04737042263150215,0.008763314224779606,0.004669384099543095,0.4221714735031128,0.5770211815834045,-0.6991550922393799,-0.013205409049987793,-0.02126556634902954,0.0008823871612548828,0.4163465425951533,-0.3457051716715603,-0.1758135393159939,0.8223339413046894,-0.6150767248487651,0.5432316210114311,2.380696632498228
1780949155135459584,2.382828712463379,-0.03339947760105133,0.019239392131567,0.004083755426108837,0.4222964346408844,0.5772960186004639,-0.6988526582717896,-0.0177859365940094,-0.008478879928588867,0.0024567842483520508,0.416266889484269,-0.3458546393073892,-0.17594949534439566,0.8222823486250046,-0.6154132423349457,0.5435540456653951,2.38101221866315
1780949155145495552,2.39286470413208,-0.022173723205924034,0.0207214392721653,0.006979676894843578,0.42247912287712097,0.5774591565132141,-0.6986074447631836,-0.012780636548995972,-0.0018976330757141113,0.0029439926147460938,0.41620649211169847,-0.3460015168566347,-0.17600918775799057,0.8222383846460226,-0.6156130975809517,0.5439009290391325,2.3812648541458112
1780949155155530752,2.402899742126465,-0.01866048201918602,0.02401776798069477,0.007487008348107338,0.4226740896701813,0.5775704383850098,-0.6983974575996399,-0.006704241037368774,-0.0002694129943847656,0.007387995719909668,0.4161596569766582,-0.3461400308386615,-0.17603504498494235,0.822198267417299,-0.6157494009100892,0.544238390945932,2.3814725118785387
1780949155165565440,2.4129345417022705,-0.02280649170279503,0.025000739842653275,0.005803358741104603,0.42288637161254883,0.5776937007904053,-0.6981669664382935,-0.0004162788391113281,-0.0060689449310302734,0.010590672492980957,0.4161185316034496,-0.3462937798911152,-0.1760600686315296,0.8221488686747501,-0.6159003751917072,0.5446071059776088,2.381675109138039
1780949155175600640,2.4229695796966553,-0.030655892565846443,0.01657756045460701,0.0014754552394151688,0.4230586588382721,0.5778612494468689,-0.6979238390922546,0.009009182453155518,-0.014537334442138672,0.006761789321899414,0.41607065227722756,-0.3464391760553215,-0.17611920505442172,0.8220991876526834,-0.6161056790563514,0.544941998430037,2.38189575124727
1780949155185635584,2.43300461769104,-0.03702910244464874,0.006546498741954565,-0.0009789139730855823,0.42312929034233093,0.5780975818634033,-0.6976853013038635,0.017346173524856567,-0.017733752727508545,0.0079880952835083,0.4160211571333306,-0.3465512597932462,-0.17623723558955223,0.8220517137887723,-0.616395239989226,0.5451675305359437,2.382110290663254
1780949155195670528,2.443039655685425,-0.04388327896595001,0.0014513395726680756,-0.0031571134459227324,0.4231589436531067,0.5783928036689758,-0.6974226236343384,0.02067345380783081,-0.01392441987991333,0.006413102149963379,0.4159511980099915,-0.3466566721540218,-0.1764025034048835,0.822007272784836,-0.6167571173017793,0.5453656251905519,2.3823803140362743
1780949155205705728,2.4530746936798096,-0.04958856850862503,-0.0011234045960009098,-0.004353671334683895,0.42315787076950073,0.5787326097488403,-0.6971412897109985,0.017607510089874268,-0.009289860725402832,0.005994439125061035,0.4158788901823024,-0.3467600510791583,-0.17659792680072356,0.8219582675934058,-0.6171737540505381,0.5455434622875179,2.382660308850843
1780949155215740672,2.4631097316741943,-0.04664923623204231,-0.006852263584733009,-0.004281233996152878,0.42306044697761536,0.5790832042694092,-0.6969091892242432,0.012654244899749756,-0.004925549030303955,0.0030310750007629395,0.4158151801647023,-0.3468149276143898,-0.17681857836710513,0.8219198558908054,-0.6176037329792182,0.545589015582467,2.382893066806087
1780949155225775360,2.47314453125,-0.04307181388139725,-0.006493535824120045,-0.007717244327068329,0.42295363545417786,0.5794149041175842,-0.6966983079910278,0.006428658962249756,0.0014566779136657715,-0.002154231071472168,0.4157646471675589,-0.34686069347069964,-0.1770268332144023,0.821881308327141,-0.6180106444617939,0.5456112526413734,2.383085249439759
1780949155235810560,2.4831795692443848,-0.03597209230065346,-0.0009095529094338417,-0.009746040217578411,0.42285674810409546,0.5797396302223206,-0.6964870095252991,-0.000829160213470459,0.007540643215179443,-0.003906607627868652,0.41573126273049027,-0.3469132795827183,-0.17722206585000666,0.8218340066250147,-0.6184091072162319,0.5456441737649211,2.38323675562432
1780949155245845504,2.4932146072387695,-0.019831739366054535,-0.0030637839809060097,-0.013526663184165955,0.4227716028690338,0.5799713730812073,-0.6963458061218262,-0.0053826868534088135,0.009231507778167725,-0.002964496612548828,0.4157300949080455,-0.34694673855876773,-0.1773557625163921,0.8217916411563083,-0.6186935425372027,0.54564480506193,2.3832847272858384
1780949155255880704,2.5032496452331543,-0.008586542680859566,-0.003734500613063574,-0.0115466034039855,0.4227161705493927,0.5800752639770508,-0.6962928771972656,-0.0077839195728302,0.005496025085449219,-0.001018524169921875,0.4157467987936009,-0.34695578718501463,-0.17741265658285937,0.8217670376875579,-0.6188210834300399,0.5456203547609781,2.3832588628103184
1780949155265915648,2.513284683227539,0.00014223455218598247,0.0034139559138566256,-0.009565477259457111,0.4227156937122345,0.5800925493240356,-0.6962787508964539,-0.007783442735671997,0.0039681196212768555,0.002080202102661133,0.4157668657374521,-0.3469659290290989,-0.17741267778257108,0.8217526274782974,-0.6188422970597869,0.5456288393754577,2.3832152606462618
1780949155275950592,2.523319721221924,0.016095900908112526,0.0077951219864189625,-0.006779278628528118,0.4227825999259949,0.5800302624702454,-0.6962900757789612,-0.006019294261932373,0.004884958267211914,0.006333351135253906,0.4158032278681262,-0.3469894662197347,-0.17735073343959543,0.8217376653495366,-0.6187658073653866,0.5456918646305158,2.383128282275066
1780949155285985792,2.5333547592163086,0.02419057860970497,0.007921355776488781,-0.002272943966090679,0.4228799343109131,0.5798690915107727,-0.6963651776313782,-0.0012795627117156982,0.001582324504852295,0.00802600383758545,0.41584720913742806,-0.3469969110626902,-0.1772302066067618,0.8217382854252352,-0.6185679939256754,0.5457460884712466,2.3830016915869976
1780949155296020480,2.5433895587921143,0.023510407656431198,0.0036532406229525805,-0.0008817085763439536,0.4229659140110016,0.5796729326248169,-0.6964762806892395,0.004707425832748413,-0.0040808916091918945,0.0062448978424072266,0.4158937008760253,-0.3469862180247575,-0.17709442023380162,0.8217485325487176,-0.6183272396238996,0.5457655532105123,2.382854635446772
1780949155306055424,2.553424596786499,0.007839835248887539,0.010727128945291042,0.0010437568416818976,0.4230296015739441,0.5795425772666931,-0.6965459585189819,0.0076191723346710205,-0.01101541519165039,0.006162106990814209,0.41592336239344885,-0.3469825860020739,-0.17700312370237475,0.8217545795957842,-0.6181672904245655,0.5457879348119268,2.382761705732011
1780949155316091648,2.5634605884552,-0.0072174109518527985,0.006939981132745743,0.0037508599925786257,0.42308515310287476,0.5795509815216064,-0.6965053081512451,0.006053030490875244,-0.015189409255981445,0.007143735885620117,0.41592771132972517,-0.3470176820636614,-0.17699174000072526,0.8217401012436887,-0.618177571616519,0.5458721047882023,2.3827710417935526
1780949155326126592,2.573495626449585,-0.023514358326792717,-0.0001365705393254757,0.00283020525239408,0.42310187220573425,0.5796748995780945,-0.6963919997215271,0.006463557481765747,-0.014336764812469482,0.005886077880859375,0.4159007757084672,-0.3470649396779285,-0.1770590849889725,0.821719279733024,-0.6183296427786971,0.5459618332084029,2.382880017684999
1780949155336161536,2.5835306644439697,-0.02731442265212536,-0.006953064817935228,0.001815540948882699,0.4230564832687378,0.5798726081848145,-0.6962549686431885,0.010247349739074707,-0.012276172637939453,0.0071222782135009766,0.41585305814236984,-0.34709877805853556,-0.17718620654379802,0.8217017415385065,-0.6185723137029117,0.5460015573338194,2.383043141956896
1780949155346196736,2.5935657024383545,-0.029817529022693634,-0.0048552923835814,0.003559112548828125,0.42299652099609375,0.5800818800926208,-0.696117103099823,0.00826263427734375,-0.00746530294418335,0.0075795650482177734,0.41579078603346903,-0.3471253193258676,-0.17732864422730818,0.8216913692618587,-0.6188291731066184,0.546026519358567,2.3832408469811686
1780949155356231680,2.6036007404327393,-0.024064835160970688,9.55238938331604e-05,0.0032118363305926323,0.42297041416168213,0.5802916884422302,-0.6959580779075623,0.003543287515640259,-0.0009917616844177246,0.00876319408416748,0.4157337182676001,-0.3471722912143698,-0.1774608982465525,0.821671795106566,-0.6190868001197917,0.5461005348654854,2.383436414229016
1780949155366266368,2.613635540008545,-0.010528519749641418,0.0006689024157822132,0.0044099921360611916,0.42298799753189087,0.5804247260093689,-0.6958363652229309,-0.0005331635475158691,0.0033918023109436035,0.010121703147888184,0.41569331016858196,-0.3472203974839119,-0.17753817468256913,0.8216551761980571,-0.6192501533091107,0.5461966175038229,2.383581312692938
1780949155376301568,2.6236705780029297,-0.0014561946736648679,-0.0006071510724723339,0.005531449802219868,0.42303910851478577,0.5804339647293091,-0.6957975625991821,0.0001938939094543457,0.005762875080108643,0.004543960094451904,0.4156533919684774,-0.3472438103871838,-0.17754703616746742,0.8216635310488917,-0.6192615388989108,0.5462749816507828,2.3836971582914668
1780949155386336512,2.6337056159973145,-0.00224795239046216,0.002352952491492033,0.006553038023412228,0.42311644554138184,0.5803881883621216,-0.6957887411117554,0.0016576945781707764,0.004969418048858643,0.0009645819664001465,0.4156142483461727,-0.34726275187032724,-0.17752242440333998,0.82168062371136,-0.6192052755474795,0.5463617837908937,2.3838022397697154
1780949155396371712,2.643740653991699,-0.0019036057638004422,0.004280415363609791,0.004176166839897633,0.42320120334625244,0.58033686876297,-0.6957800388336182,0.0012525320053100586,0.004120528697967529,-0.001104116439819336,0.41558160814225004,-0.347285271080793,-0.1774906048415138,0.8216946113647839,-0.6191423081786093,0.5464562535305688,2.383892333370334
1780949155406406656,2.653775691986084,-2.52783065661788e-05,-0.004084574058651924,0.006354899145662785,0.42326414585113525,0.580275297164917,-0.6957931518554688,0.004882246255874634,-0.0004260540008544922,-0.00092315673828125,0.4155485062782783,-0.3472918246675309,-0.17745932790782665,0.8217153551683445,-0.6190666907381408,0.5465139047814811,2.383973392676693
1780949155416441600,2.6638107299804688,0.006797740235924721,-0.01175953820347786,0.0021050265058875084,0.4232722818851471,0.5802006125450134,-0.6958503723144531,0.007315486669540405,-4.76837158203125e-07,0.0035896897315979004,0.4155238244847027,-0.34726480536426774,-0.17743154875866524,0.8217451490783222,-0.6189749987713175,0.546485906189502,2.3840126844322227
1780949155426476544,2.6738455295562744,0.005134596023708582,-0.006746935658156872,0.0011289780959486961,0.4232600927352905,0.5801263451576233,-0.6959197521209717,0.0024296045303344727,-0.002352297306060791,0.00567317008972168,0.41551699207031934,-0.3472302749200726,-0.17740139213380707,0.8217697403954151,-0.61888380376188,0.5464288675734029,2.3840025938863367
1780949155436511488,2.683880567550659,0.0010053650476038456,-0.0007070191204547882,-0.0012894385727122426,0.4232580363750458,0.580111563205719,-0.6959333419799805,-0.007501810789108276,-0.005892813205718994,0.007685661315917969,0.4155171145932072,-0.34722393911602556,-0.17739466647061977,0.8217737913111117,-0.6188656376760308,0.5464180543087394,2.3839970506936194
1780949155446546432,2.693915605545044,0.0017244184855371714,0.006957557983696461,-0.005937986075878143,0.4232746660709381,0.5801565051078796,-0.6958857774734497,-0.00957837700843811,-0.005327403545379639,0.006127476692199707,0.4155353452706961,-0.3472530652542537,-0.17740468367109768,0.821750144478504,-0.6189208109142565,0.546465867967551,2.3839718297133667
1780949155456581632,2.7039506435394287,0.01798514649271965,-0.0012789331376552582,-0.008930313400924206,0.4232344627380371,0.5801488757133484,-0.6959165334701538,-0.00036767125129699707,-0.004846811294555664,0.002480924129486084,0.4155883996660714,-0.3472392416605467,-0.17738841445290682,0.8217325897158951,-0.6189114681726554,0.5464040722800537,2.3838277392884635
1780949155466617600,2.71398663520813,0.01605675369501114,-0.007221510633826256,-0.014066486619412899,0.42313113808631897,0.5800818204879761,-0.6960352659225464,0.007197201251983643,-0.012119174003601074,5.137920379638672e-05,0.4156618164864358,-0.347173301299526,-0.17735016087664102,0.8217315694537495,-0.6188291368530605,0.5462199610803246,2.3835962511302218
1780949155476652544,2.7240216732025146,-0.008633147925138474,-0.004926664754748344,-0.015513913705945015,0.4229944050312042,0.5801323056221008,-0.6960763335227966,0.005777567625045776,-0.02263718843460083,-0.0012198686599731445,0.4157316148186462,-0.3471291861570447,-0.17737862235265012,0.8217087947238233,-0.6188911104671717,0.5460503255971279,2.3833996421384067
1780949155486687744,2.7340567111968994,-0.052147068083286285,-0.004783920012414455,-0.017797308042645454,0.42287540435791016,0.5803930163383484,-0.6959312558174133,0.0006780624389648438,-0.03399103879928589,0.00483018159866333,0.4157424305876346,-0.3471564630900773,-0.17752960965756237,0.8216591816821581,-0.6192112228333942,0.5460179445207693,2.383416966836534
1780949155496722688,2.744091749191284,-0.08081040531396866,-0.0025677704252302647,-0.013775669038295746,0.42278745770454407,0.5809282660484314,-0.6955379843711853,0.0033600032329559326,-0.035121381282806396,0.010433614253997803,0.4156746654835284,-0.34728109499573406,-0.17783938250819323,0.82157380109236,-0.6198686602394852,0.5461764873897195,2.3837202170037757
1780949155506757376,2.75412654876709,-0.07849851250648499,0.01131289079785347,-0.006007760763168335,0.42277148365974426,0.5815404653549194,-0.6950359344482422,0.004413574934005737,-0.022488951683044434,0.014646530151367188,0.41557094258476457,-0.34746573151592913,-0.17818415619504718,0.821473543208877,-0.6206209955741537,0.5464802845770447,2.3841577083731
1780949155516792576,2.7641615867614746,-0.05520011484622955,0.011966297402977943,-0.0003924858756363392,0.4228319227695465,0.5820311903953552,-0.6945882439613342,0.010059922933578491,-0.0027617812156677246,0.013573288917541504,0.41547868365936397,-0.34765312625779643,-0.1784465455583732,0.8213839504418375,-0.621224333669735,0.5468298778834862,2.384553759654153
1780949155526827520,2.7741966247558594,-0.010852093808352947,0.0066538238897919655,0.00647660531103611,0.42289072275161743,0.5822441577911377,-0.6943739652633667,0.010550439357757568,0.017502546310424805,0.0010451078414916992,0.4154192435138879,-0.3477486016305423,-0.17856069503708816,0.821348838046468,-0.6214862692014336,0.5470287074537604,2.3847833059662356
1780949155536862720,2.784231662750244,-0.005797946359962225,0.00896451622247696,-0.0032583135180175304,0.42296522855758667,0.5822582244873047,-0.6943168044090271,0.0020377933979034424,0.020540177822113037,-0.0151863694190979,0.41539849666823214,-0.3477910610277753,-0.17855807696650408,0.8213419202175225,-0.6215035809414966,0.5471435846482438,2.384861540875194
1780949155546897664,2.794266700744629,0.00518279941752553,0.015026403591036797,-0.0005376281915232539,0.4230717122554779,0.5822218656539917,-0.6942824125289917,-0.010977596044540405,0.0233079195022583,-0.0123826265335083,0.4154096436756314,-0.34784063267216764,-0.17850965114404896,0.8213258158356558,-0.6214588596659268,0.547277433907946,2.3848563954324646
1780949155556932608,2.8043017387390137,0.019221119582653046,0.00445751566439867,-0.007014435715973377,0.4231523275375366,0.5820783376693726,-0.6943535804748535,-0.009425520896911621,0.018980562686920166,-0.007123470306396484,0.41544734670280165,-0.34784351553806614,-0.17840429743923433,0.8213284005697827,-0.6212823551410349,0.5473165305188528,2.3847450364126637
1780949155566967552,2.8143365383148193,0.03726377338171005,-0.004168196581304073,-0.005260477773845196,0.4231426417827606,0.5818060040473938,-0.6945877075195312,-0.0015880763530731201,0.015316188335418701,0.00635528564453125,0.41551728291491874,-0.34775696283192065,-0.17824486950389384,0.8213642525469362,-0.6209474203229497,0.5471565351673541,2.3844867799824825
1780949155577002496,2.824371576309204,0.04520105570554733,-0.0007605487480759621,-0.0051582129672169685,0.42314791679382324,0.5814241766929626,-0.6949042081832886,-0.0008151531219482422,0.008373796939849854,0.012683749198913574,0.41560354066996363,-0.3476436911964364,-0.17802179547689506,0.8214170299752351,-0.6204780477905871,0.5469597110489791,2.384159765595607
1780949155587037440,2.834406614303589,0.04337679222226143,0.008281415328383446,-0.0063835326582193375,0.42318862676620483,0.5810939073562622,-0.6951555013656616,-0.006715267896652222,-0.0013515353202819824,0.014476239681243896,0.4156990101742713,-0.34757072671059497,-0.1778112085185054,0.8214450670280393,-0.6200721671562172,0.5468418280999857,2.383837158179317
1780949155597072640,2.8444416522979736,0.03833622857928276,0.005703342147171497,-0.00417124480009079,0.42325377464294434,0.5808537006378174,-0.6953165531158447,-0.004110157489776611,-0.011914551258087158,0.010364830493927002,0.415791572567295,-0.3475426461253491,-0.1776395843455766,0.8214472070212093,-0.6197770446821848,0.5468073224507761,2.383557483428295
1780949155607108608,2.854477643966675,0.019821928814053535,0.0012332266196608543,0.0032038467470556498,0.4232964515686035,0.5807169675827026,-0.6954049468040466,0.005475550889968872,-0.024762988090515137,0.0023201704025268555,0.41584229495312525,-0.34752927874874523,-0.17754137996095126,0.8214485873120895,-0.6196091075278866,0.5467956510440921,2.38340514178809
1780949155617143552,2.8645126819610596,-0.005042940378189087,0.0017299056053161621,0.008888364769518375,0.42330098152160645,0.5806792378425598,-0.6954336166381836,0.009499311447143555,-0.030584633350372314,-1.621246337890625e-05,0.41584413510484575,-0.347518948123428,-0.17752119055105756,0.8214563324494062,-0.6195627603472003,0.5467820958338698,2.3833902795886965
1780949155627178752,2.8745477199554443,-0.030713150277733803,0.005666856653988361,0.007292597554624081,0.42331570386886597,0.5808249115943909,-0.6953030228614807,0.006097137928009033,-0.03076082468032837,0.003515303134918213,0.415800733647588,-0.34756926774487346,-0.17760658273786664,0.8214385726813166,-0.619741690587638,0.546880964538414,2.3835457312569983
1780949155637213696,2.884582757949829,-0.04442017152905464,0.0054342299699783325,0.008088084869086742,0.4233643710613251,0.581115186214447,-0.6950308680534363,0.007116585969924927,-0.02545112371444702,0.009621262550354004,0.41571407118195686,-0.3476803873805632,-0.1777721131191763,0.8213996481001214,-0.6200982987100039,0.5471059320747583,2.3838620670273447
1780949155647248384,2.8946175575256348,-0.04797069728374481,-0.0043771215714514256,0.011153116822242737,0.42340677976608276,0.5814492106437683,-0.6947254538536072,0.013101369142532349,-0.01331871747970581,0.014244556427001953,0.4155993408483693,-0.34779751358053274,-0.17797233312591837,0.8213646388360795,-0.6205088127305665,0.5473457329636219,2.384258315842853
1780949155657283584,2.9046525955200195,-0.05102028325200081,-0.003108525648713112,0.006224404089152813,0.4234393537044525,0.5818158388137817,-0.6943985819816589,0.013862282037734985,-0.003965497016906738,0.013734519481658936,0.41546783927843633,-0.34791693568525633,-0.17819796134029603,0.8213316887464328,-0.6209595623839612,0.5475891030932041,2.3847029546548897
1780949155667318528,2.9146876335144043,-0.042640380561351776,-0.000827527604997158,0.007749596610665321,0.42345526814460754,0.5821516513824463,-0.6941074132919312,0.001990288496017456,0.0021378397941589355,0.010605216026306152,0.41534701031276805,-0.34801839680329244,-0.1784082465011326,0.8213041839112225,-0.621372523096522,0.5477922615277011,2.385106994660925
1780949155677353728,2.924722671508789,-0.027342386543750763,-8.67694616317749e-05,0.006554103456437588,0.42350029945373535,0.5823602080345154,-0.6939049959182739,-0.0022509098052978516,0.01058107614517212,0.004406094551086426,0.4152544815641338,-0.34809741614484324,-0.17853767015697153,0.8212893975928581,-0.6216290224670262,0.5479692229723411,2.38541165424548
1780949155687388672,2.934757709503174,-0.004608578514307737,-0.004849300254136324,0.001901294686831534,0.4235541820526123,0.5823688507080078,-0.6938648819923401,-0.000946730375289917,0.016386032104492188,-0.0017528533935546875,0.41519365129831465,-0.3481176101235499,-0.1785544643493112,0.8213079592080602,-0.6216396426105405,0.5480514919742415,2.3855793939093273
1780949155697423616,2.9447927474975586,0.008078188635408878,-0.00832832045853138,0.00039154873229563236,0.42357784509658813,0.5822383761405945,-0.6939598917961121,-0.0028014779090881348,0.019446194171905518,-0.006204843521118164,0.4151657968217203,-0.3480787507667578,-0.17849713636883516,0.8213509943348005,-0.6214791646661635,0.5480154383865614,2.3856138718917292
1780949155707458560,2.9548275470733643,0.013598920777440071,-0.005113618914037943,-0.0014811861328780651,0.4235817790031433,0.582050621509552,-0.6941149830818176,-0.0014321208000183105,0.014308631420135498,-0.006080269813537598,0.41517116073946075,-0.3480157480155267,-0.17840273493314177,0.8213954683209174,-0.6212482115634752,0.5479201938272573,2.385543299813111
1780949155717493504,2.964862585067749,0.01341196708381176,-0.00246377382427454,0.0009641283540986478,0.4236018657684326,0.5818724036216736,-0.6942521333694458,-0.003695249557495117,0.004843294620513916,7.748603820800781e-06,0.4151781677443345,-0.34796562719749125,-0.17830834533638396,0.8214336177374728,-0.6210290832813951,0.547853460633413,2.385476785878199
1780949155727529472,2.97489857673645,0.014955002814531326,-0.0023729605600237846,0.001279979245737195,0.4236580729484558,0.5817370414733887,-0.6943312287330627,-0.0047127604484558105,-0.004191875457763672,0.005488455295562744,0.41517992857456226,-0.34794988803492294,-0.17822813097101206,0.8214567540259389,-0.6208626336520927,0.5478618101913375,2.3854477137426984
1780949155737564672,2.984933614730835,0.01635769009590149,-0.003868724685162306,0.0029359327163547277,0.4237040877342224,0.5816240906715393,-0.6943977475166321,-0.0046215057373046875,-0.009343266487121582,0.00769120454788208,0.4151844768435912,-0.3479369309797745,-0.17816012841097087,0.8214746566666267,-0.6207237907166481,0.5478675169297634,2.385415692713679
1780949155747599616,2.9949686527252197,0.008709623478353024,-0.0007988982833921909,0.00017103897698689252,0.42371153831481934,0.5815485119819641,-0.6944565176963806,-0.001195669174194336,-0.01712590456008911,0.004606723785400391,0.41519994641276714,-0.34791773929006603,-0.17811508018080224,0.8214848143154845,-0.6206308997189433,0.5478376632455698,2.385356900888561
1780949155757634560,3.0050036907196045,-0.0026434320025146008,0.00043813977390527725,-0.0014431029558181763,0.42369383573532104,0.5815639495849609,-0.6944543123245239,-0.0009644031524658203,-0.023672163486480713,0.003414332866668701,0.41521604598319367,-0.34791676126602245,-0.1781200856890286,0.8214759205807834,-0.6206498867434804,0.5478205148094618,2.385316857032941
1780949155767669760,3.0150387287139893,-0.024447530508041382,-0.000847900751978159,0.0006357606034725904,0.42367035150527954,0.581719696521759,-0.6943382620811462,0.004613310098648071,-0.02703225612640381,0.00538867712020874,0.41520081778249124,-0.3479552123424948,-0.1782078753510624,0.8214483372450923,-0.6208413398786159,0.5478701801012946,2.3853952824743154
1780949155777704448,3.025073528289795,-0.03730021044611931,0.0019758488051593304,-0.0008790454594418406,0.42363548278808594,0.5819841027259827,-0.6941379308700562,0.0053806304931640625,-0.024458467960357666,0.008453726768493652,0.41515689811600065,-0.34801946026459174,-0.17836336691507174,0.8214096019130458,-0.6211664623881795,0.5479618921041709,2.385573969093577
1780949155787739392,3.0351085662841797,-0.04308566078543663,0.0036041056737303734,0.000327899178955704,0.4236355423927307,0.5822974443435669,-0.6938750743865967,0.004083573818206787,-0.019080281257629395,0.01095271110534668,0.41509720427485697,-0.3481173048394112,-0.17854075880048997,0.8213597659702693,-0.6215517934770984,0.548130395952257,2.3858173143398314
1780949155797774592,3.0451436042785645,-0.044675834476947784,0.007909904234111309,0.0021708067506551743,0.4236702620983124,0.5826210975646973,-0.6935821175575256,-0.0017036795616149902,-0.011087894439697266,0.00840151309967041,0.4150203730930187,-0.34823464781111413,-0.17872201213640376,0.8213094396275081,-0.6219499758366971,0.5483546494633403,2.386116666903406
1780949155807809536,3.055178642272949,-0.044207118451595306,0.01197228953242302,-0.0014753271825611591,0.42374786734580994,0.5829253792762756,-0.6932790279388428,-0.0035513341426849365,-0.005807459354400635,0.0025289058685302734,0.4149439568173526,-0.348369463075528,-0.17888322650222674,0.8212558160769707,-0.6223244232760639,0.5486306400882209,2.386422640507237
1780949155817844736,3.065213680267334,-0.033378440886735916,0.010711549781262875,-0.00032457528868690133,0.42382970452308655,0.5831720232963562,-0.6930215358734131,-0.002702385187149048,3.415346145629883e-05,-0.002260446548461914,0.41488827291369246,-0.34849084317910045,-0.1790066379629957,0.8212055316161191,-0.6226279833242009,0.5488819140859904,2.386661414753586
1780949155827879680,3.0752487182617188,-0.026641443371772766,0.00698445551097393,-0.0027744171675294638,0.4238889515399933,0.5833437442779541,-0.6928406953811646,-0.002197057008743286,0.005340397357940674,-0.0008848905563354492,0.41484898645047835,-0.3485765691534076,-0.17909224327860276,0.8211702608717064,-0.6228393746114914,0.5490602953384532,2.3868296358899816
1780949155837914624,3.0852837562561035,-0.023691458627581596,0.003866426646709442,-0.004641825333237648,0.42393410205841064,0.5834563374519348,-0.6927182078361511,-0.0009452104568481445,0.012658774852752686,0.0025632381439208984,0.4148169400868899,-0.3486349605347595,-0.1791495090149616,0.8211491537983119,-0.6229779999809784,0.5491864057061198,2.3869573230672385
1780949155847950592,3.0953197479248047,-0.017481500282883644,0.006313871592283249,4.857734893448651e-06,0.42399463057518005,0.5835264921188354,-0.6926221251487732,0.0012983381748199463,0.01202404499053955,0.004221796989440918,0.41478413861028685,-0.348686814759978,-0.17918272771413213,0.8211364842916501,-0.6230643910261356,0.5493117572797925,2.3870784267806924
1780949155857986048,3.1053550243377686,-0.005077827721834183,0.0033151523675769567,-0.00023429412976838648,0.4240806996822357,0.5835354328155518,-0.6925618648529053,0.0025397837162017822,0.009253263473510742,0.0060079097747802734,0.41475638951094984,-0.3487325282770989,-0.17917782469977075,0.8211321558883411,-0.6230754307518569,0.5494408822484007,2.387175953335458
1780949155868020992,3.1153900623321533,0.01839660480618477,-0.0012777349911630154,0.0004591930191963911,0.4241408109664917,0.5834422707557678,-0.692603588104248,0.007286190986633301,0.012749135494232178,0.004859507083892822,0.41475653652022737,-0.34873344332394374,-0.17911778265673906,0.8211448551210845,-0.622960676925141,0.549477160472569,2.387165257105686
1780949155878055936,3.125424861907959,0.03007749654352665,-0.00437552435323596,0.00043522455962374806,0.4241400957107544,0.5832444429397583,-0.6927706599235535,0.009941935539245605,0.007514834403991699,0.0008761286735534668,0.41479358991456194,-0.34867101699067493,-0.17900610520366347,0.8211770480907744,-0.6227171167530502,0.549369018165889,2.3870125336928902
1780949155888090880,3.1354598999023438,0.02587556093931198,-0.004013600293546915,0.0013995551271364093,0.4241126477718353,0.5830280184745789,-0.6929696202278137,0.007619529962539673,0.0024364590644836426,0.0021431446075439453,0.4148367927425373,-0.3485882972154634,-0.17888934620972177,0.8212157505178144,-0.622450717448932,0.5492123357103558,2.3868304859201848
1780949155898125824,3.1454949378967285,0.01876225695014,-0.002894939389079809,0.0015052827075123787,0.42409712076187134,0.582861065864563,-0.6931195259094238,0.0050563812255859375,-0.007146954536437988,0.006397664546966553,0.41486560415266077,-0.34852669968302036,-0.17879982581022208,0.8212468811612329,-0.6222452785351676,0.5490997519738786,2.3867030251853083
1780949155908161024,3.1555299758911133,0.01389719545841217,-8.824281394481659e-07,0.00701775960624218,0.4241063892841339,0.5827401876449585,-0.6932154297828674,0.0033533573150634766,-0.013053297996520996,0.009118139743804932,0.41487562980287623,-0.3484913591163158,-0.17873458749252738,0.8212709010123439,-0.6220964963771536,0.5490478510578533,2.3866433161089744
1780949155918195968,3.165565013885498,0.013337931595742702,-0.0030475384555757046,0.00764892902225256,0.42411860823631287,0.5826671123504639,-0.6932693719863892,0.003325849771499634,-0.013499021530151367,0.01109468936920166,0.41487731673108,-0.34847277194088827,-0.178695410885435,0.8212864652918757,-0.6220066291531272,0.5490260573881269,2.3866201029134526
1780949155928230912,3.175600051879883,0.002784622833132744,-0.002182810101658106,0.005220392718911171,0.42413195967674255,0.5826265811920166,-0.6932953000068665,0.004853606224060059,-0.014236748218536377,0.004742443561553955,0.4148605729757962,-0.3484623078968386,-0.17867954832061858,0.8213028386116497,-0.6219567279351358,0.5490234435216639,2.386652371833666
1780949155938266112,3.1856350898742676,-0.014407945796847343,0.0011891508474946022,0.002901578089222312,0.4241545498371124,0.5827049612998962,-0.6932156085968018,0.004678487777709961,-0.01754993200302124,0.003884553909301758,0.4148348616657122,-0.34849716040559603,-0.17872300506157804,0.8212916342781114,-0.6220531637984261,0.5490982800986862,2.386746784962941
1780949155948300800,3.1956698894500732,-0.0122798141092062,-0.006205382291227579,0.0008919566753320396,0.42416396737098694,0.5828418731689453,-0.6930947303771973,0.0059812963008880615,-0.011400222778320312,0.005213260650634766,0.4147959563165452,-0.3485424722235728,-0.17880370905466564,0.8212744818203952,-0.6222216314923391,0.5491858135912556,2.386887519062495
1780949155958336768,3.2057058811187744,-0.013884634710848331,-0.007486229296773672,-0.00017623722669668496,0.42413851618766785,0.5829394459724426,-0.6930282711982727,0.008860111236572266,-0.008415579795837402,0.007054150104522705,0.4147591234452024,-0.34855463841476175,-0.17887296666916924,0.8212728188323042,-0.6223417231306054,0.5492018183588849,2.3869998802571097
1780949155968371968,3.215740919113159,-0.029237758368253708,-0.00033351173624396324,0.0016536207403987646,0.424143522977829,0.5830852389335632,-0.6929025053977966,-0.002741575241088867,-0.008881807327270508,0.00850003957748413,0.4147117304110554,-0.34859879501016205,-0.17896267992897377,0.8212583696615599,-0.622521143900504,0.5492878816912846,2.387162584794662
1780949155978406912,3.225775957107544,-0.04394906014204025,0.004673364572227001,-0.002455902984365821,0.4241722524166107,0.5833259224891663,-0.6926822662353516,-0.010002970695495605,-0.009214043617248535,0.007989943027496338,0.41465177992831603,-0.3486871912380208,-0.17909806228774558,0.8212216067004415,-0.622817465612049,0.549459613243742,2.3873934706503612
1780949155988441856,3.2358109951019287,-0.04091891273856163,0.0017137937247753143,-0.001138703664764762,0.4242236018180847,0.5836187601089478,-0.6924041509628296,-0.006834685802459717,-0.0032506585121154785,0.0005706548690795898,0.414576724047778,-0.34880353187001917,-0.17925968466896658,0.8211748512675355,-0.6231780162125782,0.5496924019476862,2.3876848522960756
1780949155998477056,3.2458460330963135,-0.027357300743460655,-0.009095445275306702,0.0018709347350522876,0.4242153763771057,0.5838266015052795,-0.6922338604927063,0.004480302333831787,0.006154417991638184,-0.002346217632293701,0.4145065009329238,-0.3488572384670611,-0.17939256458179942,0.8211584551704676,-0.6234340506297475,0.5497933253923117,2.387918932497313
1780949156008512000,3.2558810710906982,-0.012143992818892002,0.010451891459524632,0.0057761939242482185,0.42427995800971985,0.583901047706604,-0.692131519317627,0.0014860033988952637,0.01549464464187622,0.0038228631019592285,0.41445029950171236,-0.3489078077188931,-0.17943683600175392,0.8211556687707533,-0.6235257078575648,0.549927015632835,2.38809972844333
1780949156018546944,3.265915870666504,0.023352747783064842,0.009130697697401047,0.01598968356847763,0.424456924200058,0.5837675333023071,-0.6921356320381165,0.0001951754093170166,0.023318588733673096,0.0015228986740112305,0.4144089579359368,-0.3489514169473841,-0.17934626937642806,0.8211777954491893,-0.6233612651104133,0.5501101826848499,2.3882140609833225
1780949156028581888,3.2759509086608887,0.03557053580880165,0.005571382120251656,0.014416820369660854,0.4246388375759125,0.5834402441978455,-0.6922999620437622,0.004056841135025024,0.022959232330322266,-0.003271937370300293,0.4143978302811991,-0.3489357990884765,-0.17914747112733828,0.821233445158428,-0.6229582442475219,0.5501953724103416,2.3881950417202096
1780949156038616832,3.2859859466552734,0.06005963310599327,0.009980778209865093,0.011525692418217659,0.4248068928718567,0.5830393433570862,-0.6925346255302429,-0.00047525763511657715,0.01641744375228882,-0.00247269868850708,0.414428030519139,-0.3488952899290492,-0.17889874028399613,0.8212896935044801,-0.6224646987185783,0.5502206866666565,2.388047797532425
1780949156048652032,3.296020984649658,0.0694320946931839,0.0014480105601251125,0.0036086472682654858,0.42491090297698975,0.5825241208076477,-0.6929042935371399,0.0009466707706451416,0.007548511028289795,-0.004910588264465332,0.41451227937255436,-0.3487899770175282,-0.17858721305246025,0.821359724751805,-0.621830689872755,0.5500919254817296,2.387712733223946
1780949156058686976,3.306056022644043,0.05948784947395325,-0.005272743292152882,0.0030991844832897186,0.42490240931510925,0.5820376873016357,-0.6933181285858154,0.003930568695068359,-0.008093655109405518,0.001042187213897705,0.4146180927190427,-0.3486361601135737,-0.17830807741671834,0.8214321679028266,-0.6212323481528099,0.5498170037323303,2.3872990340545646
1780949156068722944,3.316092014312744,0.03189190849661827,-0.007825915701687336,6.983886123634875e-05,0.42484331130981445,0.5817093253135681,-0.6936298608779907,0.0017771422863006592,-0.02612161636352539,0.009914100170135498,0.4146934088553029,-0.3485030521977908,-0.1781310948163753,0.8214890533427885,-0.6208285823476372,0.5495547787372791,2.3869939718536473
1780949156078757888,3.326127052307129,-0.0027177343145012856,-0.004589641932398081,-0.0028591055888682604,0.424796998500824,0.5816356539726257,-0.6937200427055359,3.820657730102539e-05,-0.03518790006637573,0.015588939189910889,0.414713942601285,-0.3484553168724186,-0.17809792829306348,0.8215061779640705,-0.6207380107648235,0.5494483450123822,2.386906456223317
1780949156088793088,3.3361620903015137,-0.023547116667032242,-0.003029030282050371,0.0003500034217722714,0.42476627230644226,0.5817970037460327,-0.693603515625,-0.0018994808197021484,-0.03838580846786499,0.016449034214019775,0.41469059794295776,-0.3484899487018025,-0.17819370667633944,0.8214824783764724,-0.6209364055546319,0.5494909297040725,2.387004321973642
1780949156098827776,3.3461968898773193,-0.040590547025203705,0.00024439487606287,0.004955408163368702,0.424746036529541,0.5820912718772888,-0.6933690309524536,4.3392181396484375e-05,-0.03547567129135132,0.010034680366516113,0.41462287936413605,-0.34856784047355877,-0.17837028005977573,0.8214452894222402,-0.6212982102823549,0.5496203221632808,2.3872553432137438
1780949156108862976,3.356231927871704,-0.050093770027160645,0.006423194892704487,0.008233759552240372,0.42478594183921814,0.5824424624443054,-0.6930495500564575,-0.0022090375423431396,-0.02197188138961792,0.0068160295486450195,0.4145218656849124,-0.34869261691729153,-0.17857399491006312,0.8213990898280609,-0.6217301992038745,0.5498674740331391,2.387624428631069
1780949156118897920,3.366266965866089,-0.04073568806052208,0.013200540095567703,0.0038070527371019125,0.42487406730651855,0.5827912092208862,-0.6927023530006409,-0.005867719650268555,-0.006619274616241455,0.0014029145240783691,0.41442812453723316,-0.3488453647993928,-0.17876169100625233,0.821340746572777,-0.622159262726609,0.5501832416546578,2.3879904036643387
1780949156128932864,3.3763020038604736,-0.036987822502851486,0.010978132486343384,0.005269926972687244,0.4249833822250366,0.5830408930778503,-0.6924249529838562,-0.0016283094882965088,0.003323793411254883,-0.0024144649505615234,0.41434481353975244,-0.34897745598878976,-0.17889173054721821,0.821298178503015,-0.622466599011193,0.5504764177641598,2.3883062402316053
1780949156138968064,3.3863370418548584,-0.033241286873817444,0.0045884097926318645,0.00351517042145133,0.42507991194725037,0.5832395553588867,-0.6921985149383545,0.0019525885581970215,0.009823799133300781,0.0003802776336669922,0.4142724180890735,-0.34908647282812927,-0.17899545152198917,0.8212659367085571,-0.6227111004506269,0.550723513698063,2.3885760457145926
1780949156149003008,3.396372079849243,-0.02558762952685356,0.005198806524276733,-0.0009932949906215072,0.4251639246940613,0.583365261554718,-0.6920409798622131,-0.0020529329776763916,0.014153659343719482,0.0030608773231506348,0.4142099194260041,-0.3491648577210572,-0.17906260087824202,0.821249488672763,-0.6228658612250016,0.5509131638738647,2.388794508891545
1780949156159037952,3.406406879425049,-0.009025697596371174,0.005327170714735985,-0.0038468718994408846,0.42523398995399475,0.583408534526825,-0.6919613480567932,-0.002123028039932251,0.01696377992630005,0.005010664463043213,0.4141844387475828,-0.34921428818116623,-0.17907737874858998,0.8212380373012518,-0.6229192031515863,0.5510380004874479,2.3888922719200965
1780949156169073920,3.41644287109375,0.013904651626944542,-0.0016441857442259789,-0.004401874728500843,0.4252774119377136,0.5832932591438293,-0.6920318007469177,0.0013125240802764893,0.017384231090545654,0.0037994384765625,0.4141942696337716,-0.34920015322419473,-0.17900654271118016,0.8212544892799585,-0.6227772471498472,0.5510381299812691,2.388845384133576
1780949156179108864,3.4264779090881348,0.029928626492619514,-0.005251970142126083,-0.00300664477981627,0.42528852820396423,0.5830483436584473,-0.6922314167022705,0.0035139620304107666,0.012883663177490234,0.002793550491333008,0.4142350565450783,-0.3491285288686145,-0.17886745697932385,0.8212947738108187,-0.6224757864954138,0.5509211605044902,2.3886721315355435
1780949156189143808,3.4365129470825195,0.03184956684708595,-0.002649262547492981,0.000360656064003706,0.42526158690452576,0.5827797651290894,-0.6924740076065063,0.008438944816589355,0.004469931125640869,0.002639472484588623,0.4142946674344333,-0.34903125817430625,-0.17871817235993379,0.8213384089043247,-0.6221452275400277,0.5507366424839565,2.3884332599318627
1780949156199179008,3.4465479850769043,0.02063792198896408,-0.005159159190952778,0.001863477868027985,0.42522644996643066,0.5825818777084351,-0.6926621198654175,0.010244131088256836,-0.009156644344329834,0.0047196149826049805,0.41433939353360194,-0.3489510410532354,-0.1786116008030188,0.8213732380857687,-0.6219017512427076,0.5505786656468104,2.3882509727294976
1780949156209213952,3.456583023071289,-0.001537421136163175,-0.001988133415579796,0.004244609735906124,0.42520368099212646,0.5825007557868958,-0.692744255065918,0.011060327291488647,-0.019070029258728027,0.008570730686187744,0.4143437342364376,-0.3489104551411278,-0.17857590431738865,0.8213959798523792,-0.6218019461773694,0.5505019156103679,2.388207508512176
1780949156219248896,3.466618061065674,-0.01453364733606577,-0.004427322186529636,0.005017193034291267,0.425200879573822,0.582564651966095,-0.6926923394203186,0.010437548160552979,-0.01954585313796997,0.011967241764068604,0.4143090275658687,-0.34892388871465435,-0.17862235467496582,0.8213977561768621,-0.6218805073821466,0.5505324188063714,2.3883114399046437
1780949156229283840,3.4766528606414795,-0.018754757940769196,-0.003696017898619175,0.008118177764117718,0.42519786953926086,0.5827056765556335,-0.6925755143165588,0.007419288158416748,-0.01706242561340332,0.010706007480621338,0.4142473329985684,-0.34895871648461657,-0.17871784575112062,0.8213932074317047,-0.6220540545247082,0.550604460863817,2.388505117356933
1780949156239318784,3.4866878986358643,-0.02093588560819626,-0.0023346105590462685,0.00955122523009777,0.42519810795783997,0.582878828048706,-0.6924296617507935,0.006335705518722534,-0.014397382736206055,0.006959080696105957,0.4141814239643915,-0.3490057717024181,-0.1788299322737749,0.8213820765717982,-0.62226710937597,0.5506986193265206,2.3887204679967415
1780949156249353984,3.496722936630249,-0.023979347199201584,0.002572263590991497,0.0057570189237594604,0.42522746324539185,0.5830692052841187,-0.6922513246536255,-0.0016282200813293457,-0.009369254112243652,0.005102276802062988,0.4141128975916847,-0.34907480707857175,-0.17894441566539993,0.8213623954363501,-0.6225014138539622,0.5508442600673605,2.388956890009923
1780949156259388928,3.506757974624634,-0.018381383270025253,0.002919007558375597,0.0060220034793019295,0.42528069019317627,0.5832356214523315,-0.6920784115791321,-0.006503254175186157,-0.005476951599121094,0.00322037935256958,0.41404899695837116,-0.3491499122252481,-0.17903949953828602,0.8213419440031065,-0.6227063169260268,0.551011538124016,2.3891819576407816
1780949156269424896,3.516793966293335,-0.010885915718972683,0.0035120933316648006,0.00858636200428009,0.4253714084625244,0.5833232998847961,-0.6919488310813904,-0.006532907485961914,0.0021106600761413574,0.0040215253829956055,0.41398637489287793,-0.34921854205749814,-0.17908659615215877,0.8213341493525325,-0.6228142459417294,0.5511902314949814,2.389390976214855
1780949156279459840,3.5268290042877197,-0.003364616073668003,0.004766575060784817,0.008768255822360516,0.4255097210407257,0.5832818746566772,-0.6918986439704895,-0.006900101900100708,0.005737900733947754,0.0032085180282592773,0.4139283817443144,-0.3492694280640604,-0.1790573430421579,0.8213480723036383,-0.6227632208485914,0.5513676056707993,2.3895625375543523
1780949156289495040,3.5368640422821045,0.004647237714380026,0.010254018008708954,0.01029531192034483,0.42568472027778625,0.5831726789474487,-0.6918830275535583,-0.008005887269973755,0.00796806812286377,0.003086090087890625,0.41388620301442625,-0.3493205210620743,-0.17897947080295387,0.8213645635196197,-0.6226288048150548,0.5515611995653106,2.38968568558457
1780949156299529984,3.5468990802764893,0.00911309290677309,0.007335193920880556,0.011370164342224598,0.42588576674461365,0.5830301642417908,-0.6918794512748718,-0.0066963136196136475,0.0043874382972717285,0.0005648136138916016,0.41384334225153013,-0.34937436039164693,-0.17887934785241735,0.8213851368114018,-0.6224534024056502,0.5517742507440495,2.3898081820789536
