time,seconds_elapsed,rotationRateX,rotationRateY,rotationRateZ,gravityX,gravityY,gravityZ,accelerationX,accelerationY,accelerationZ,quaternionW,quaternionX,quaternionY,quaternionZ,pitch,roll,yaw
1780773227715100160,0.26340603828430176,-1.8127779960632324,-0.6249829530715942,1.0064892768859863,-0.26872146129608154,-0.042527418583631516,-0.9622786641120911,0.03878676891326904,-0.2556903660297394,0.049330055713653564,-0.45108581480685045,-0.13053995964006773,0.042661429385105434,-0.881850781740231,0.04254024790460646,-0.2723180588344832,2.201776871338744
1780773227725135104,0.2734410762786865,-2.3120338916778564,-0.6830242872238159,0.9991801977157593,-0.27534154057502747,-0.019910966977477074,-0.9611402750015259,0.052044421434402466,-0.2789934575557709,0.04896986484527588,-0.4479472589133475,-0.12853777916641995,0.05392503928571071,-0.8831270854983732,0.01991228196973664,-0.27900174255380655,2.2055613348300933
1780773227735170048,0.2834761142730713,-2.7884767055511475,-0.7494600415229797,1.0215989351272583,-0.28230392932891846,0.007468266878277063,-0.959295928478241,0.04684555530548096,-0.28995421528816223,0.020437896251678467,-0.4450458137325028,-0.12568448570385013,0.06749397406391663,-0.884071335122284,-0.007468336525074506,-0.2862030800002079,2.207780921256846
1780773227745205248,0.29351115226745605,-3.2000644207000732,-0.8206214308738708,1.0860570669174194,-0.28960996866226196,0.03930329158902168,-0.9563374519348145,0.04603391885757446,-0.2661862373352051,-0.024268627166748047,-0.4420980040918097,-0.12208832802399813,0.08322089475362672,-0.8847135425052484,-0.0393134189244391,-0.29405330947856967,2.208942582182969
1780773227755240192,0.3035461902618408,-3.4813079833984375,-0.8733823895454407,1.1208698749542236,-0.2970838248729706,0.07456891238689423,-0.9519352316856384,0.04322335124015808,-0.23789899051189423,-0.04522663354873657,-0.4389691767968933,-0.11793111276144004,0.10062125710436513,-0.8850275023792147,-0.0746381932665579,-0.3025058941760444,2.20933447627885
1780773227765274880,0.3135809898376465,-3.74227237701416,-0.916642427444458,1.114416480064392,-0.304552286863327,0.11226475238800049,-0.945856511592865,0.045931071043014526,-0.2152005434036255,-0.04468303918838501,-0.43578209660590944,-0.11335415376337028,0.11925847313046573,-0.8848854416490323,-0.11250191845188517,-0.31150318257809834,2.2086934228264603
1780773227775310080,0.32361602783203125,-3.9904708862304688,-1.0140131711959839,1.1101738214492798,-0.31216326355934143,0.15232780575752258,-0.9377368092536926,0.05894365906715393,-0.1830284744501114,-0.04128235578536987,-0.43257906552404085,-0.10843025571615601,0.13919218613700743,-0.8841628432026767,-0.15292313445270175,-0.32135154422428697,2.2067352244309335
1780773227785345024,0.333651065826416,-4.036366939544678,-1.0987718105316162,1.0778778791427612,-0.32017722725868225,0.19336186349391937,-0.9274145364761353,0.07455649971961975,-0.17041264474391937,-0.047637343406677246,-0.4292468267489097,-0.10359680503365574,0.15987630664528882,-0.8828671135826492,-0.19458753137961227,-0.3324247550048763,2.203760304225394
1780773227795380224,0.3436861038208008,-4.100638389587402,-1.1619819402694702,0.9984123706817627,-0.32838115096092224,0.23430666327476501,-0.9150225520133972,0.08666667342185974,-0.16785463690757751,-0.08444339036941528,-0.4259357079601137,-0.09894974080876454,0.18082500254524944,-0.8809598118635712,-0.23650531814757703,-0.3445616476250306,2.1995464852137157
1780773227805415168,0.35372114181518555,-4.164871692657471,-1.2595336437225342,0.9141952395439148,-0.3369560241699219,0.2751486003398895,-0.9004186987876892,0.11811450123786926,-0.12437653541564941,-0.08583307266235352,-0.4227665409491174,-0.09452532780734749,0.20212769348075962,-0.8783380514154624,-0.2787442619603053,-0.3580879688606357,2.193633091539417
1780773227815450112,0.3637561798095703,-4.135751247406006,-1.3833578824996948,0.8429594039916992,-0.34615692496299744,0.3153643012046814,-0.8835840225219727,0.14327606558799744,-0.0731310248374939,-0.07575130462646484,-0.41940627423624927,-0.09061132152025383,0.2236013693294349,-0.8751516833653433,-0.32084053607929225,-0.37338678701768235,2.186680327140902
1780773227825485056,0.373790979385376,-3.860956907272339,-1.4870891571044922,0.46961483359336853,-0.3566559851169586,0.3527703881263733,-0.8650720119476318,0.12498179078102112,-0.03129822015762329,-0.08010315895080566,-0.4165399867091507,-0.08781650532232711,0.24444274557409879,-0.8712235809697253,-0.36053020013804576,-0.3910515942771367,2.177471026256865
1780773227835520000,0.38382601737976074,-3.630528688430786,-1.4875013828277588,0.33735400438308716,-0.367555171251297,0.3867812752723694,-0.8457561731338501,0.023820430040359497,0.11652988195419312,-0.0317462682723999,-0.4144985819881443,-0.08572020119854032,0.2641476202638942,-0.8666424391858452,-0.3971386481439956,-0.4099633382815402,2.1657293496230143
1780773227845554944,0.3938610553741455,-3.2766520977020264,-1.1358191967010498,0.48704415559768677,-0.37693437933921814,0.41693925857543945,-0.8270925879478455,0.01453813910484314,0.31365156173706055,0.01883453130722046,-0.412694430090462,-0.08367912245204055,0.281871437186999,-0.8621076951155613,-0.4300753090155135,-0.42761223801063036,2.153884988864753
1780773227855590144,0.4038960933685303,-2.958282232284546,-1.192284107208252,0.5184822678565979,-0.38405001163482666,0.444536417722702,-0.8092545866966248,0.12114107608795166,0.350629597902298,0.07948780059814453,-0.4099336647276966,-0.08145782301594198,0.29788809527951055,-0.8582434551188994,-0.4606566548681531,-0.44309949714457536,2.1448499996652766
1780773227865625088,0.41393113136291504,-3.0241706371307373,-1.2216087579727173,0.34644630551338196,-0.3920295238494873,0.46977901458740234,-0.7909618020057678,0.1202704906463623,0.15927982330322266,0.06363636255264282,-0.4074964374960273,-0.08006064155141543,0.3132241867887524,-0.8540653924943744,-0.4890404437467906,-0.46015070591413715,2.134479983043062
1780773227875660288,0.4239661693572998,-3.6092822551727295,-1.2143553495407104,0.488442599773407,-0.3994288742542267,0.4972870945930481,-0.7701702117919922,0.005431711673736572,0.028790175914764404,0.09106254577636719,-0.4050664721840072,-0.07780555797349616,0.3299411987650539,-0.8491208982191596,-0.520468997652744,-0.4784356967794473,2.1216670132698425
1780773227885695232,0.43400120735168457,-4.143815040588379,-1.4300487041473389,0.4136218726634979,-0.407066285610199,0.5287039875984192,-0.7448282241821289,0.006004303693771362,-0.041536688804626465,0.15915018320083618,-0.40234645606496283,-0.0747387693189901,0.34928497213665827,-0.8429302283376119,-0.5570729462464402,-0.5001703354957453,2.10508201491804
1780773227895729920,0.44403600692749023,-4.500478744506836,-1.621529221534729,0.33711564540863037,-0.416221022605896,0.5619767904281616,-0.7148021459579468,-0.002297043800354004,-0.15568101406097412,0.022449851036071777,-0.3995871659072746,-0.07179369204657701,0.37073519263410376,-0.8353030127432495,-0.596773714225878,-0.5272944702929008,2.0835324576501453
1780773227905765120,0.454071044921875,-4.911957263946533,-1.711018681526184,0.20156660676002502,-0.4264151155948639,0.5959607362747192,-0.6804417371749878,-0.06661161780357361,-0.11947453022003174,-0.04819595813751221,-0.39690040583302916,-0.06890385083997977,0.39374026248037497,-0.8262511042266385,-0.6384615122435773,-0.5598021479819741,2.056508230386892
1780773227915800064,0.46410608291625977,-5.260904788970947,-1.7164970636367798,0.05720943585038185,-0.4369468092918396,0.6303985118865967,-0.6416191458702087,-0.159732848405838,0.09239500761032104,-0.056409358978271484,-0.39461699880145534,-0.0655308285342247,0.4182058532604767,-0.8155285847622911,-0.6820664526385155,-0.5978645814830288,2.02238635595655
1780773227925834240,0.4741401672363281,-5.200118064880371,-1.7838319540023804,-0.018146837130188942,-0.4477083683013916,0.663201630115509,-0.5997673869132996,-0.2151791751384735,0.26520413160324097,-0.07729560136795044,-0.39244625027010616,-0.062218056189211834,0.44299573638781065,-0.8036602069227321,-0.7250883962861734,-0.6412381053710011,1.9824666018703074
1780773227935869184,0.4841752052307129,-4.921274662017822,-1.825695514678955,-0.16488781571388245,-0.45882630348205566,0.6921572685241699,-0.5571327209472656,-0.30220580101013184,0.3222012519836426,-0.11700057983398438,-0.3902065369643352,-0.0597433631481978,0.46675944706140554,-0.7913945441844434,-0.7644737261696383,-0.688936318691787,1.938945852709208
1780773227945904128,0.49421000480651855,-4.6576972007751465,-1.7954784631729126,-0.33811020851135254,-0.4703512489795685,0.716743528842926,-0.5148285627365112,-0.389008492231369,0.3882521986961365,-0.14795219898223877,-0.38827678358842,-0.05812718926222968,0.4890878616013989,-0.7788809418970255,-0.7991212062215904,-0.7402823772226218,1.8918686448360718
1780773227955939072,0.5042450428009033,-4.227837562561035,-1.8261629343032837,-0.5422172546386719,-0.4825041592121124,0.7367231249809265,-0.47373926639556885,-0.3846985995769501,0.4741228222846985,-0.13174474239349365,-0.38674376295107565,-0.05757197570461713,0.5097213235099554,-0.7663543734842782,-0.8282114257263936,-0.7945638532634856,1.8421234477362212
1780773227965974016,0.5142800807952881,-3.678302526473999,-1.905850887298584,-0.7870192527770996,-0.49596405029296875,0.7514451742172241,-0.435143381357193,-0.33106228709220886,0.5235791802406311,-0.087927907705307,-0.3856071188227483,-0.05874924109409703,0.5281825766601729,-0.754240549661694,-0.8502497048382479,-0.8506262712666179,1.7918426554664382
1780773227976009216,0.5243151187896729,-3.1261141300201416,-1.9709763526916504,-1.002699375152588,-0.5109333992004395,0.7610912919044495,-0.3996084928512573,-0.29439491033554077,0.5354021191596985,-0.0312386155128479,-0.38477511160441163,-0.061926253373994725,0.5443903821361621,-0.7428002860256964,-0.8649938909069095,-0.9070566378332465,1.7430414793746465
1780773227986044160,0.5343501567840576,-2.538020133972168,-1.9181965589523315,-1.215574860572815,-0.5269321799278259,0.7661927342414856,-0.36781957745552063,-0.30197107791900635,0.5198180079460144,0.0009372234344482422,-0.38441711906930864,-0.0667398208037115,0.5582436850281736,-0.7322112394593953,-0.8728953694990261,-0.9613872023818504,1.697455328630723
1780773227996079104,0.5443851947784424,-2.2533493041992188,-1.8279480934143066,-1.3842413425445557,-0.5436201691627502,0.7675967812538147,-0.3395179808139801,-0.32707685232162476,0.4679378867149353,0.026819586753845215,-0.38471127339729777,-0.07268911243871515,0.5700502684211869,-0.7223270419589649,-0.8750831622087499,-1.0125206689828417,1.655273926492269
1780773228006114048,0.554419994354248,-2.2298364639282227,-1.6755847930908203,-1.5343810319900513,-0.5605636239051819,0.7668271660804749,-0.3126412630081177,-0.3231491446495056,0.41548484563827515,0.024967312812805176,-0.3857434929465577,-0.07888707195023095,0.5809098003425517,-0.7124062266145491,-0.8738832154688357,-1.0620403212529261,1.6136410065622446
1780773228016148992,0.5644550323486328,-2.338289976119995,-1.5356229543685913,-1.6784833669662476,-0.5777510404586792,0.7644835710525513,-0.2859521806240082,-0.2967606782913208,0.30839240550994873,0.006640017032623291,-0.3876623375953497,-0.08489777016448093,0.5914526885714514,-0.7019216726412524,-0.8702398626226031,-1.1112048008129731,1.570491246120046
1780773228026184192,0.5744900703430176,-2.4854769706726074,-1.4295144081115723,-1.7936738729476929,-0.595134437084198,0.7608044147491455,-0.25882744789123535,-0.23769021034240723,0.18354672193527222,0.02091243863105774,-0.39036979074280714,-0.09059741001452355,0.6019787236719363,-0.6906700841877788,-0.8645517088439967,-1.1605653518742085,1.525272529000638
1780773228036219136,0.5845251083374023,-2.700453281402588,-1.3347705602645874,-1.877632737159729,-0.6124815344810486,0.7560694217681885,-0.2307058721780777,-0.15238046646118164,0.10936319828033447,0.025200575590133667,-0.39367143396406157,-0.09582456466920979,0.6127517564847562,-0.6785098699568872,-0.8572865850750362,-1.210558848861144,1.4776366827318828
1780773228046254080,0.5945601463317871,-2.814302682876587,-1.2685184478759766,-2.0151407718658447,-0.6300028562545776,0.7499224543571472,-0.20177410542964935,-0.04400831460952759,0.11264163255691528,0.04073287546634674,-0.39757379592020153,-0.1007553436613738,0.6236676264025712,-0.6654488392742499,-0.84794480786077,-1.260844036177801,1.4281379763958593
1780773228056289280,0.6045951843261719,-2.9329748153686523,-1.302535057067871,-2.140768051147461,-0.6479787230491638,0.7419731616973877,-0.17204463481903076,0.0882101058959961,0.15741032361984253,0.08616818487644196,-0.40189929543245834,-0.10578352262455043,0.6346554429569379,-0.651536057072882,-0.8360087178542784,-1.3112744051299452,1.3777505451526126
1780773228066323968,0.6146299839019775,-2.92974591255188,-1.3357832431793213,-2.241333246231079,-0.6662904024124146,0.7321351766586304,-0.14154595136642456,0.19819653034210205,0.18572676181793213,0.18904656171798706,-0.406331663912076,-0.11115123215193204,0.6456565853191527,-0.6369203913058115,-0.8214512892936068,-1.3614694596217314,1.3277084818169167
1780773228076358912,0.6246650218963623,-2.83888840675354,-1.3090687990188599,-2.3285562992095947,-0.6846380233764648,0.720292866230011,-0.11157427728176117,0.2627630829811096,0.14907658100128174,0.25409138202667236,-0.41088270369498076,-0.11689020019979877,0.6561627411436609,-0.622063061771635,-0.8042244510273585,-1.4092482232633137,1.280206558871956
1780773228086394112,0.6347000598907471,-2.8994171619415283,-1.263080358505249,-2.377427816390991,-0.7027431130409241,0.7066851854324341,-0.08214593678712845,0.2982020974159241,0.09557604789733887,0.24517083168029785,-0.41557937551342755,-0.12275018502233033,0.6662277569108084,-0.6069321601097616,-0.7848021532216654,-1.4544311494756856,1.2350208492361159
1780773228096429056,0.6447350978851318,-3.0478365421295166,-1.1883875131607056,-2.3887274265289307,-0.720304012298584,0.6916676163673401,-0.05251793563365936,0.32906872034072876,0.03893846273422241,0.26905542612075806,-0.4205026463463854,-0.1282129189659044,0.6762414359524127,-0.5911315830830467,-0.7637955088189778,-1.498014325229668,1.1902519333530934
1780773228106464256,0.6547701358795166,-3.123770236968994,-1.103822112083435,-2.3773019313812256,-0.7370999455451965,0.6753941178321838,-0.022946855053305626,0.36156588792800903,-0.03553199768066406,0.286069393157959,-0.4255787613781502,-0.13317090352005004,0.6861429028193995,-0.5747662074571995,-0.741498964324099,-1.5396751123822845,1.1461687425410498
1780773228116499200,0.6648051738739014,-3.2536680698394775,-0.9888172745704651,-2.346440076828003,-0.752997875213623,0.6579936742782593,0.006219000555574894,0.40555524826049805,-0.08366811275482178,0.2706059217453003,-0.43082440607036837,-0.1374920695959449,0.6958487127165992,-0.557925535031042,-0.7181512595162175,-1.5790551268150932,1.1028864240582081
1780773228126534144,0.6748402118682861,-3.3536202907562256,-0.8671662211418152,-2.301219940185547,-0.767938494682312,0.639573872089386,0.03486262261867523,0.45353126525878906,-0.09546089172363281,0.2538183927536011,-0.4362753195261864,-0.1410223364231857,0.7053679976053276,-0.540585200796999,-0.6939438095057003,-1.6161628549619071,1.060074123402885
1780773228136569088,0.6848750114440918,-3.46097993850708,-0.7788134217262268,-2.2515833377838135,-0.7819332480430603,0.6201944351196289,0.06276463717222214,0.4877590537071228,-0.1111001968383789,0.25496912002563477,-0.441844643148416,-0.14384685202118344,0.7146260585039523,-0.5228681161231891,-0.6689905473039102,-1.6508931387847896,1.0180831031906
1780773228146604032,0.6949100494384766,-3.6038858890533447,-0.6521626710891724,-2.1725597381591797,-0.7949175238609314,0.5999822020530701,0.09015283733606339,0.4994158148765564,-0.15056508779525757,0.2678946256637573,-0.44751440388299324,-0.1457837202932622,0.7237565363245586,-0.5046329914374281,-0.6434788872658795,-1.6837253654002864,0.9761422038476548
1780773228156638976,0.7049450874328613,-3.5887420177459717,-0.4593319594860077,-2.0994908809661865,-0.8069634437561035,0.5790877342224121,0.11604991555213928,0.490114688873291,-0.2100691795349121,0.2414635419845581,-0.4534115581569219,-0.14682133214438028,0.7324400678448507,-0.4862027095600147,-0.617609239245451,-1.713627663935329,0.9350285212545891
1780773228166674176,0.7149801254272461,-3.390564203262329,-0.2456350028514862,-2.031320095062256,-0.8182671070098877,0.5577791929244995,0.1390012502670288,0.4792320728302002,-0.233850359916687,0.1430269479751587,-0.45959383001172643,-0.14728785900527008,0.7401397913403381,-0.4682658394872964,-0.591707664590992,-1.7390627631299513,0.8967086255357193
1780773228176709120,0.7250151634216309,-3.083249092102051,-0.06355041265487671,-1.9457653760910034,-0.828852653503418,0.536565363407135,0.15843334794044495,0.4797467589378357,-0.17334508895874023,0.06289531290531158,-0.4658834464282537,-0.14751458977798984,0.7466298416840935,-0.45137129460208075,-0.566361640663902,-1.7596658302870818,0.8624341817317863
1780773228186744320,0.7350502014160156,-2.8057315349578857,0.07997612655162811,-1.8719987869262695,-0.8389348387718201,0.5156887173652649,0.17393611371517181,0.498007595539093,-0.07542681694030762,-0.020341143012046814,-0.4723295303444934,-0.1477457749392414,0.7517574355049635,-0.43581752105729443,-0.5418113278178962,-1.7752296355085317,0.8327626390098906
1780773228196779008,0.7450850009918213,-2.5328619480133057,0.18967945873737335,-1.7788110971450806,-0.8484280705451965,0.4954076409339905,0.18639037013053894,0.516701877117157,-0.021103382110595703,-0.09262512624263763,-0.47873630517427224,-0.14797848189134366,0.7558422827179272,-0.4214457178175487,-0.5183040470357715,-1.7870500359837038,0.806765985115713
1780773228206813952,0.755120038986206,-2.194810628890991,0.28200724720954895,-1.6959044933319092,-0.8573381304740906,0.47600945830345154,0.195924773812294,0.5365220904350281,-0.03170403838157654,-0.1518878936767578,-0.48499899272566116,-0.14836550862442427,0.7589137364701073,-0.40842831146413455,-0.49611152789824126,-1.7954651093167682,0.7846101249340216
1780773228216849152,0.7651550769805908,-1.934993863105774,0.40392836928367615,-1.5974023342132568,-0.8657307624816895,0.45764783024787903,0.2026546597480774,0.5356830954551697,-0.03845837712287903,-0.22241485118865967,-0.4911399909655898,-0.1489406745578774,0.7610151153177159,-0.396805050973572,-0.4753479401552249,-1.800741085562014,0.7661043714609306
1780773228226884096,0.7751901149749756,-1.7396920919418335,0.5827319025993347,-1.460173487663269,-0.8736305236816406,0.4405117630958557,0.2066865861415863,0.5222815275192261,-0.014577865600585938,-0.2596803605556488,-0.49739506733440236,-0.14925490734218666,0.7622770284963406,-0.386335313198387,-0.4561686427596025,-1.8031084040962886,0.7498944405949922
1780773228236919040,0.7852251529693604,-1.5286670923233032,0.7135642170906067,-1.3183486461639404,-0.8810253739356995,0.42487236857414246,0.20803385972976685,0.5120829939842224,-0.02512255311012268,-0.3105880916118622,-0.5037774382398279,-0.14922159390469097,0.7627252754761872,-0.3770829021616071,-0.43882089967099286,-1.8026760123581707,0.7357606487172188
1780773228246954240,0.7952601909637451,-1.3414082527160645,0.7735931873321533,-1.1678504943847656,-0.8877841234207153,0.4108685851097107,0.207428440451622,0.5064059495925903,-0.051920801401138306,-0.3725590705871582,-0.5100305128454445,-0.14891940532811657,0.7625858842979524,-0.36899152495949017,-0.423406562224022,-1.800326073958941,0.7234543676652246
1780773228256988160,0.8052940368652344,-1.1317970752716064,0.7614997625350952,-1.0406429767608643,-0.893855631351471,0.39844900369644165,0.2055741846561432,0.4980272650718689,-0.048076629638671875,-0.40445730090141296,-0.5159226437836808,-0.1485324191367271,0.7620532857960477,-0.3619900910387391,-0.40982518984998423,-1.7968513132736184,0.7129383912920334
1780773228267023104,0.8153290748596191,-0.8609799146652222,0.7580994367599487,-0.8886465430259705,-0.8992170691490173,0.3876977562904358,0.2027297019958496,0.4644330143928528,-0.018648624420166016,-0.4275221526622772,-0.5212991266546849,-0.1482554344423585,0.7611735530366192,-0.3562056324868239,-0.3981326887062658,-1.7925403328294964,0.7046107926066273
1780773228277058048,0.8253641128540039,-0.49480247497558594,0.7962769865989685,-0.7299346923828125,-0.9038854241371155,0.37901145219802856,0.1983473151922226,0.4025426506996155,0.010911643505096436,-0.45226871967315674,-0.5261986066819154,-0.148169456356032,0.7597496089856433,-0.3520532126314788,-0.38872782143366913,-1.7868110410362503,0.6992786567316726
1780773228287093248,0.8353991508483887,-0.13519662618637085,0.8095685243606567,-0.562530517578125,-0.9078997373580933,0.3725219666957855,0.1922113299369812,0.3331318497657776,0.020086616277694702,-0.4731408655643463,-0.5306264398418611,-0.1483979082000416,0.7576831283382699,-0.34975681067179465,-0.3817251058848251,-1.7794255894260906,0.697478764024575
1780773228297128192,0.8454341888427734,0.14442382752895355,0.795939028263092,-0.40353554487228394,-0.9112176895141602,0.3681521415710449,0.18478697538375854,0.28572946786880493,0.025753498077392578,-0.4825165271759033,-0.5345258405725187,-0.148847560483095,0.7551409728063074,-0.3491254493379281,-0.3770207767387908,-1.7708743345095184,0.6986838285081196
1780773228307162880,0.8554689884185791,0.29040366411209106,0.6650272011756897,-0.23805710673332214,-0.9137416481971741,0.3656163215637207,0.17720314860343933,0.24220234155654907,-0.010864704847335815,-0.4984159469604492,-0.5377129344266817,-0.1493731615217753,0.7525219171307136,-0.3496616247141803,-0.3742948711784605,-1.7623498951505596,0.7017327234777893
1780773228317198080,0.8655040264129639,0.25783318281173706,0.5005986094474792,-0.04064761847257614,-0.9152722358703613,0.36481842398643494,0.17083333432674408,0.16669142246246338,-0.12112033367156982,-0.5092580318450928,-0.539936026053874,-0.14965399485248368,0.7503468171168527,-0.35078817734555406,-0.37343777255585664,-1.7553206542073982,0.7050291560936289
1780773228327233024,0.8755390644073486,0.1719161719083786,0.3912923336029053,0.2005130648612976,-0.9157381653785706,0.3658856749534607,0.16598495841026306,0.05737042427062988,-0.24268627166748047,-0.49491873383522034,-0.54130447391761,-0.14916412094252635,0.7488274459037416,-0.35213191424914186,-0.37458428546921446,-1.7501076069488972,0.7071443345626137
1780773228337268224,0.8855741024017334,0.14112204313278198,0.30225032567977905,0.48942503333091736,-0.9150423407554626,0.3692905902862549,0.16224054992198944,-0.057690203189849854,-0.305646151304245,-0.4722839593887329,-0.5418840578044897,-0.14767468670552364,0.7478719575039285,-0.35389459891524994,-0.37824552012067725,-1.746276535981146,0.7081072130675469
1780773228347303168,0.8956091403961182,0.1440669596195221,0.22105614840984344,0.7790206670761108,-0.9130992293357849,0.3753166198730469,0.15933293104171753,-0.16241639852523804,-0.28216177225112915,-0.4113166332244873,-0.5416290721629994,-0.14522116673176358,0.7473802781011096,-0.3563303998126815,-0.38473833698908033,-1.7435537521803146,0.7084164849998953
1780773228357338112,0.9056441783905029,0.23396436870098114,0.14552649855613708,1.064499855041504,-0.9098641872406006,0.3840735852718353,0.1569541096687317,-0.2686178684234619,-0.23113474249839783,-0.37306439876556396,-0.5405205626533409,-0.1419241590198439,0.7472178983771661,-0.3596671327103417,-0.39420424233987084,-1.7416179626775035,0.7086750828766223
1780773228367373056,0.9156789779663086,0.3634054362773895,0.026701319962739944,1.2752397060394287,-0.9054142236709595,0.39523953199386597,0.15495455265045166,-0.394283652305603,-0.21379727125167847,-0.38789522647857666,-0.5385237659963005,-0.13815636831119216,0.7472550409760024,-0.3640259879462899,-0.4063286020246482,-1.7402963660265605,0.709697355349297
1780773228377408000,0.9257140159606934,0.5236377120018005,-0.11672082543373108,1.4237616062164307,-0.8998851180076599,0.40818819403648376,0.1535877287387848,-0.5089741349220276,-0.22465544939041138,-0.38420915603637695,-0.5355520333745776,-0.13436823520651983,0.7474884909516907,-0.36931039787828496,-0.4204684894530106,-1.7398422761998238,0.7120090290332651
1780773228387442944,0.9357490539550781,0.5652408599853516,-0.2206398993730545,1.502490520477295,-0.8935138583183289,0.4222393333911896,0.15279756486415863,-0.5704144835472107,-0.2085551917552948,-0.3769339323043823,-0.531819315197625,-0.13064732268081342,0.7478837199508941,-0.3751926030977676,-0.43591425990184235,-1.7401655174559802,0.7152635801371163
1780773228397478144,0.9457840919494629,0.6508356332778931,-0.34975340962409973,1.5277161598205566,-0.8865423202514648,0.436713844537735,0.15272143483161926,-0.5598077774047852,-0.18733948469161987,-0.3445854187011719,-0.5274894328480569,-0.12709148234596837,0.7484707558232985,-0.3813059312163066,-0.4519425203546278,-1.7413883788506148,0.7190178225472814
1780773228407513088,0.9558191299438477,0.8095515370368958,-0.5023220181465149,1.5165748596191406,-0.8791131973266602,0.4513166844844818,0.15320958197116852,-0.46164602041244507,-0.1885909140110016,-0.3023337125778198,-0.5225149909334376,-0.12409527472996996,0.7491362710822466,-0.38777989225592124,-0.46824028878114515,-1.7433408041455698,0.7241201175346732
1780773228417548288,0.9658541679382324,0.7825851440429688,-0.6935606598854065,1.5009580850601196,-0.8712551593780518,0.4658239185810089,0.15466874837875366,-0.31461209058761597,-0.1558873951435089,-0.25110435485839844,-0.5168228544046475,-0.12170831511468194,0.7500143065477138,-0.39441060954118706,-0.48456549750011063,-1.7464899887041125,0.7302258479117176
1780773228427583232,0.9758892059326172,0.7020809650421143,-0.8763948678970337,1.463134765625,-0.8629888296127319,0.47987550497055054,0.15801770985126495,-0.1554742455482483,-0.05594056844711304,-0.11996233463287354,-0.5104717797541634,-0.11956816055278231,0.7514734253204635,-0.4005117374393814,-0.5005128126567105,-1.7518953333124934,0.7354208241707781
1780773228437617920,0.9859240055084229,0.7402496933937073,-1.0173146724700928,1.3988325595855713,-0.8544700741767883,0.49339017271995544,0.16262660920619965,-0.032508254051208496,0.01860329508781433,-0.027601465582847595,-0.5035671244042109,-0.11792204267797443,0.7532646914279132,-0.4063335963874939,-0.5159830754763429,-1.7588714743567038,0.7405985737823835
1780773228447653120,0.9959590435028076,0.6312459707260132,-1.1521720886230469,1.2975263595581055,-0.8458994030952454,0.5060514211654663,0.16842329502105713,0.05186241865158081,0.07308071851730347,0.040179505944252014,-0.49627978412262547,-0.1167800077913987,0.7553635420841303,-0.41169749312246856,-0.530600585285876,-1.7673317360081917,0.7454796753574922
1780773228457688064,1.0059940814971924,0.5423213839530945,-1.2741742134094238,1.18399977684021,-0.8374434113502502,0.5175461173057556,0.17559750378131866,0.09942162036895752,0.11599874496459961,0.11096261441707611,-0.48876959255257224,-0.116043723546446,0.7578473518344381,-0.4162997991496413,-0.5439806107823608,-1.7774847262009275,0.7493427659893578
1780773228467723008,1.0160291194915771,0.33345553278923035,-1.3701833486557007,1.0738070011138916,-0.829121470451355,0.5278095006942749,0.18432264029979706,0.1066635251045227,0.09909790754318237,0.13528801500797272,-0.4810888233200842,-0.11560960914076637,0.7607862639409995,-0.4199908073131951,-0.5560194917748175,-1.7895496598436003,0.7516998374452145
1780773228477758208,1.026064157485962,0.014701249077916145,-1.3882393836975098,0.9219689965248108,-0.8211683630943298,0.5364096760749817,0.19480028748512268,0.08303976058959961,0.08627098798751831,0.1634150743484497,-0.4735904855696143,-0.11514686224815689,0.7642913986121234,-0.42226994301309195,-0.5661771518629938,-1.8037141959109537,0.7511394530153468
1780773228487793152,1.0360991954803467,-0.29561400413513184,-1.3813680410385132,0.7835994362831116,-0.8137493133544922,0.5431272387504578,0.2069421261548996,0.03646653890609741,0.06568324565887451,0.19488286972045898,-0.466531900995175,-0.11446797771722834,0.7683541794804218,-0.4229385071896819,-0.574157064802137,-1.819824490263394,0.7470647350226614
1780773228497828096,1.0461339950561523,-0.5266858339309692,-1.3600454330444336,0.6223388910293579,-0.8069506883621216,0.5479775071144104,0.22034358978271484,-0.018259942531585693,0.030834197998046875,0.19606879353523254,-0.4599774587205971,-0.11368288604361709,0.7728182152291668,-0.4221954255432041,-0.5799444858658733,-1.8373553029903718,0.7401230257820439
1780773228507863040,1.056169033050537,-0.6461458802223206,-1.3308401107788086,0.4076177775859833,-0.8010224103927612,0.5507943034172058,0.23449738323688507,-0.06923222541809082,0.057558417320251465,0.1778257191181183,-0.45398345301895293,-0.11315000736809595,0.7774611048632842,-0.42029804685747973,-0.5833156127590111,-1.855586334418537,0.7315436082055978
1780773228517897984,1.0662040710449219,-0.6339683532714844,-1.2264829874038696,0.2026723474264145,-0.7962555289268494,0.5516317486763,0.2483542114496231,-0.09114992618560791,0.185535728931427,0.22569063305854797,-0.44870899650118173,-0.11319598922437694,0.7818975486530506,-0.4177119124180802,-0.5843192719866127,-1.8731368970043922,0.7230224540626605
1780773228527933184,1.0762391090393066,-0.4936988651752472,-1.0866798162460327,0.05485280603170395,-0.7926048636436462,0.551207959651947,0.2606675326824188,-0.10485619306564331,0.30154478549957275,0.2805159389972687,-0.44422832257337824,-0.11384150844331328,0.7857314314864781,-0.41512351752497473,-0.5838112853673975,-1.888528585915668,0.7160969683460231
1780773228537968128,1.0862741470336914,-0.47546473145484924,-0.9478915333747864,-0.08250798285007477,-0.7899614572525024,0.5498346090316772,0.27137240767478943,-0.1300978660583496,0.32386845350265503,0.30862942337989807,-0.44050443351406776,-0.11496013055876078,0.7889679189250792,-0.41263749202535666,-0.5821661968187597,-1.9016921966992153,0.7107540114883187
1780773228548003072,1.0963091850280762,-0.5753865242004395,-0.8101853132247925,-0.24620504677295685,-0.7884367108345032,0.5470892190933228,0.28117841482162476,-0.14587432146072388,0.273955762386322,0.2757979929447174,-0.4376720633564819,-0.11626919475220311,0.7918779453481435,-0.409700009707723,-0.5788829769726751,-1.9133633663400678,0.7054989516615231
1780773228558038016,1.1063439846038818,-0.6695372462272644,-0.7239812016487122,-0.38471418619155884,-0.7879993915557861,0.5427711606025696,0.29061341285705566,-0.14158117771148682,0.18250954151153564,0.21549007296562195,-0.43566252179778747,-0.11773051516336804,0.7946359093704093,-0.40606817126921557,-0.5737330678828959,-1.9241194688500707,0.6997777652857864
1780773228568072960,1.1163790225982666,-0.7280948162078857,-0.693865954875946,-0.5038048624992371,-0.7883198261260986,0.5372019410133362,0.2999427616596222,-0.10439550876617432,0.12908822298049927,0.16770857572555542,-0.4341695040990695,-0.11940566034111529,0.7973165395049598,-0.40190218787321336,-0.5671161957773537,-1.9343658251698868,0.693858466570196
1780773228578108160,1.1264140605926514,-0.8429548144340515,-0.6914949417114258,-0.5651896595954895,-0.7890816926956177,0.5305474996566772,0.3096279799938202,-0.07116305828094482,0.11523497104644775,0.13186979293823242,-0.43293805891370923,-0.12125634799524658,0.8000693045943068,-0.3971783944639411,-0.5592463435588191,-1.9447254320112324,0.6875095387469115
1780773228588143104,1.1364490985870361,-0.9553468823432922,-0.6569691300392151,-0.6191098690032959,-0.7900894284248352,0.5230194926261902,0.31970253586769104,-0.045405685901641846,0.08177798986434937,0.12957730889320374,-0.4319592437735688,-0.12301560314487422,0.8029436004890798,-0.39186745389950606,-0.5503897666934753,-1.955297093403808,0.6802374493024517
1780773228598178048,1.146484136581421,-1.0176358222961426,-0.6307910680770874,-0.6371203064918518,-0.7912768125534058,0.5147781372070312,0.32997626066207886,-0.028547286987304688,0.049934327602386475,0.12603268027305603,-0.4312075865799654,-0.12467368435297957,0.8058812619720616,-0.38609820020825086,-0.5407488383319289,-1.9658863438118723,0.6722870719277624
1780773228608211968,1.1565179824829102,-0.9037550687789917,-0.5783128142356873,-0.6330558061599731,-0.7924890518188477,0.506483793258667,0.3397572636604309,-0.013419032096862793,0.05706900358200073,0.11573275923728943,-0.4305856880272728,-0.12630476141881794,0.8086567471082344,-0.380417162069242,-0.5311019037512311,-1.9758150657161602,0.6647345469626141
1780773228618246912,1.166553020477295,-0.7559419274330139,-0.5440829396247864,-0.6350148320198059,-0.7937662601470947,0.49859288334846497,0.3483397960662842,-0.008861422538757324,0.06509736180305481,0.07458809018135071,-0.43005012367997003,-0.1281644393728224,0.8110140365848949,-0.3753493331095729,-0.52197474505431,-1.98433453007772,0.6589087709950664
1780773228628282112,1.1765880584716797,-0.6859806776046753,-0.4674142599105835,-0.6040241122245789,-0.7950536608695984,0.4911124110221863,0.35594770312309265,-0.016424119472503662,0.07302036881446838,0.0666140615940094,-0.4296116849037835,-0.13008785646586737,0.8130504287703166,-0.37075616979600007,-0.513366304676391,-1.9917381969160735,0.6542214355142651
1780773228638317056,1.1866230964660645,-0.6180868148803711,-0.3726089298725128,-0.5781036019325256,-0.7964380979537964,0.4840553402900696,0.36245986819267273,-0.015695810317993164,0.047835588455200195,0.07867184281349182,-0.42942695427741145,-0.13186944997083241,0.814764004026785,-0.3665551824779989,-0.5052832839827844,-1.9978842327765465,0.6502032208191559
1780773228648352256,1.1966581344604492,-0.4925558567047119,-0.3466865122318268,-0.5425480008125305,-0.7978476285934448,0.47751501202583313,0.3679925799369812,0.005763888359069824,0.02251550555229187,0.06361746788024902,-0.429377247741037,-0.1336085297455216,0.8161770952664642,-0.3628207280461721,-0.4978242559251521,-2.002951138037971,0.6470571824968956
1780773228658387200,1.206693172454834,-0.382270872592926,-0.32489654421806335,-0.5018985867500305,-0.7990905046463013,0.4717167615890503,0.3727434575557709,0.01965630054473877,0.029427647590637207,0.06539738178253174,-0.4292398855646491,-0.1354313654132913,0.8173310633433136,-0.3596962545195452,-0.49123675414804596,-2.007253448449473,0.6450988931296117
1780773228668422144,1.2167282104492188,-0.29839277267456055,-0.2302497923374176,-0.448923796415329,-0.8002820611000061,0.46662747859954834,0.3765733242034912,0.012211441993713379,0.04361116886138916,0.09210038185119629,-0.4291868133837241,-0.13714682889505597,0.8182159959525287,-0.35708829206939774,-0.48547382042349885,-2.0106082218892296,0.6438887669634479
1780773228678457088,1.2267630100250244,-0.22517871856689453,-0.11909396201372147,-0.40684664249420166,-0.8016011714935303,0.46221181750297546,0.3792039155960083,-0.014698147773742676,0.013572394847869873,0.08144372701644897,-0.4294038873403346,-0.13865461696236472,0.8187654432938608,-0.35497925302585176,-0.48048783515825966,-2.012659044350511,0.6432874970458583
1780773228688492032,1.2367980480194092,-0.14994068443775177,-0.022155702114105225,-0.3695474863052368,-0.8031260371208191,0.45838478207588196,0.38062071800231934,-0.029683470726013184,-0.03606721758842468,0.06408149003982544,-0.42994142515711387,-0.13995888829427752,0.8189761065205983,-0.35332717076946113,-0.47617693902424496,-2.0133663673482314,0.6432390029596321
1780773228698526976,1.246833086013794,-0.03420370817184448,0.033810894936323166,-0.3649607300758362,-0.8048465847969055,0.4550713002681732,0.3809622526168823,-0.021447479724884033,-0.03955915570259094,0.05510348081588745,-0.4307029829951975,-0.1412369293811367,0.8188609485226565,-0.3521560304349869,-0.47245229360950786,-2.0128854901010196,0.6440390158208565
1780773228708562176,1.2568681240081787,0.17421847581863403,0.06323643028736115,-0.35243773460388184,-0.8066713213920593,0.4524219036102295,0.380257785320282,-0.013427555561065674,-0.012099027633666992,0.06439864635467529,-0.4314954695456278,-0.1427638172516767,0.8183809576747266,-0.35168571039066704,-0.4694792011269158,-2.0112961190620844,0.6464331293149997
1780773228718597120,1.2669031620025635,0.36377108097076416,0.09401112049818039,-0.35089948773384094,-0.8085572123527527,0.45061835646629333,0.3783891797065735,-0.010473549365997314,0.013828665018081665,0.05193912982940674,-0.4322331955654656,-0.14466781396707007,0.8174752716317988,-0.3521077862459161,-0.4674578827705168,-2.008502001262453,0.6509150158967908
1780773228728632320,1.2769381999969482,0.5089466571807861,0.1432281881570816,-0.34175339341163635,-0.8105738162994385,0.4494668245315552,0.37543314695358276,-0.00973886251449585,0.023509979248046875,0.054284900426864624,-0.4330120128019792,-0.14683618930107228,0.8161836262194346,-0.3532480164634222,-0.4661683888724821,-2.0045479690636,0.6570507876516641
1780773228738667264,1.286973237991333,0.5624578595161438,0.17859497666358948,-0.3205692768096924,-0.8126792907714844,0.44879844784736633,0.3716614246368408,-0.01236337423324585,-0.01268702745437622,0.05373835563659668,-0.4338645310556945,-0.1490846245924908,0.814619231976074,-0.3548673384558391,-0.4654203233972124,-1.9997279242433348,0.6641452214038062
1780773228748701952,1.2970080375671387,0.5416457653045654,0.20583738386631012,-0.2962426543235779,-0.8147915005683899,0.4483586847782135,0.3675448000431061,-0.010632634162902832,-0.07976740598678589,0.05748876929283142,-0.4347905010903289,-0.15121513938974276,0.8129614861217971,-0.35662974173568524,-0.4649282596479179,-1.9945568344728062,0.6713023513958467
1780773228758737152,1.3070430755615234,0.43682077527046204,0.19303211569786072,-0.2648589015007019,-0.8167957663536072,0.4478718936443329,0.3636697828769684,0.006141960620880127,-0.1296040117740631,0.05936482548713684,-0.4357440645378506,-0.15306778898251416,0.8114216846217618,-0.3581791562406025,-0.4643837599216371,-1.9896844400183333,0.6776310839786036
1780773228768772096,1.3170781135559082,0.29192671179771423,0.13458357751369476,-0.22190742194652557,-0.8184950351715088,0.44719621539115906,0.36066827178001404,0.02889835834503174,-0.13335338234901428,0.05768194794654846,-0.4365741601969323,-0.1545669150881744,0.8102118316053722,-0.3592616352983497,-0.46362817467217043,-1.985846059936514,0.6825008074656473
1780773228778807040,1.327113151550293,0.14903908967971802,0.10115691274404526,-0.17761452496051788,-0.8198035359382629,0.4463461935520172,0.35874423384666443,0.037775278091430664,-0.11754980683326721,0.06593847274780273,-0.4372301171249693,-0.1556496909420868,0.8094104565613182,-0.35980240214312376,-0.46267805276806834,-1.9832888624621703,0.685646422515621
1780773228788842240,1.3371481895446777,0.04649459943175316,0.10066050291061401,-0.14772561192512512,-0.8208828568458557,0.4453675448894501,0.3574901223182678,0.019704818725585938,-0.12407848238945007,0.0699237585067749,-0.43785340879065676,-0.15632907432930684,0.8088920109314753,-0.3599157732674632,-0.4615847309441174,-1.9815223926405217,0.6873457981489256
1780773228798877184,1.3471832275390625,-0.03478188067674637,0.10455803573131561,-0.12762513756752014,-0.8218639492988586,0.44424059987068176,0.3566368520259857,0.002879023551940918,-0.13576894998550415,0.0725928246974945,-0.4385199225550498,-0.15669771712949376,0.8085568982485126,-0.35969684450045525,-0.46032643727024747,-1.980211949033467,0.6879582825039225
1780773228808912128,1.3572180271148682,-0.03100179135799408,0.10507562011480331,-0.09218084812164307,-0.8227277398109436,0.4432172179222107,0.3559177815914154,-0.0077318549156188965,-0.1178082823753357,0.06810867786407471,-0.43917300477467397,-0.1568729223748022,0.8083005456453114,-0.35939968432163877,-0.45918448649787663,-1.9790924902641496,0.6880882087398135
1780773228818947072,1.367253065109253,-0.024217654019594193,0.10546470433473587,-0.07499466836452484,-0.8234716057777405,0.4424332082271576,0.35517171025276184,-0.00936824083328247,-0.08450788259506226,0.02791529893875122,-0.4397701043078493,-0.1569604304068921,0.8080527722545191,-0.359188308263435,-0.4583100689308269,-1.9779996223498328,0.6881763869410136
1780773228828982016,1.3772881031036377,0.039862796664237976,0.09979430586099625,-0.06910615414381027,-0.8241532444953918,0.4418647885322571,0.35429784655570984,-0.01642286777496338,-0.06077653169631958,-0.014393001794815063,-0.44030995037585824,-0.1570773122452365,0.8077596397174935,-0.35913541321736164,-0.45767632650419976,-1.9768041971789352,0.6885517182553323
1780773228839017216,1.3873231410980225,0.061520420014858246,0.12258856743574142,-0.06546960771083832,-0.8248367309570312,0.4415120482444763,0.35314542055130005,-0.020210325717926025,-0.05584609508514404,-0.021205633878707886,-0.4408332172215779,-0.1572643373000243,0.8073664843496716,-0.3592957782675768,-0.45728317214370456,-1.975323384481008,0.6893968948997284
1780773228849052160,1.3973581790924072,0.06027352809906006,0.141663059592247,-0.06122453138232231,-0.8255873918533325,0.4412005543708801,0.3517778515815735,-0.01273047924041748,-0.05020934343338013,-0.014818072319030762,-0.4414380203557066,-0.15741483928835073,0.8069135643811869,-0.35950464978843194,-0.4569360492393525,-1.9735932701101933,0.6902954680940576
1780773228859087104,1.407393217086792,0.010091050527989864,0.15208321809768677,-0.047161445021629333,-0.8263548612594604,0.44089052081108093,0.3503612279891968,0.008544862270355225,-0.050082504749298096,-0.0035900473594665527,-0.44210814686439553,-0.15745755064423683,0.8064662045560361,-0.3596660693171543,-0.4565905961407271,-1.9718061090184424,0.690953985901998
1780773228869122304,1.4174282550811768,-0.063874252140522,0.14931045472621918,-0.03757060319185257,-0.8270686864852905,0.4404356777667999,0.3492472469806671,0.0316128134727478,-0.0437987744808197,0.021342962980270386,-0.4428133138700511,-0.15729586511114985,0.8061523655260139,-0.35957288884056604,-0.45608388069128303,-1.9703533634093817,0.6908425664584367
1780773228879156992,1.4274630546569824,-0.12328644096851349,0.1464185267686844,-0.031037867069244385,-0.8277325630187988,0.4398275315761566,0.34844037890434265,0.03738832473754883,-0.046455949544906616,0.03363966941833496,-0.44353971273151743,-0.1569657037094468,0.8059664781354698,-0.3592386235620847,-0.4554066220670731,-1.9692381279695204,0.6900413189509087
1780773228889192192,1.4374980926513672,-0.19240665435791016,0.1436833292245865,-0.022238517180085182,-0.8283575177192688,0.43905478715896606,0.34792959690093994,0.03540390729904175,-0.05103898048400879,0.026185423135757446,-0.4443007176974969,-0.1564566697913596,0.80590701356855,-0.3586532921692907,-0.45454636486937866,-1.9684442735459964,0.6885223727811102
1780773228899227136,1.447533130645752,-0.2189871370792389,0.13272789120674133,-0.015708180144429207,-0.8289304971694946,0.43816956877708435,0.34768080711364746,0.029797077178955078,-0.034360915422439575,0.007360726594924927,-0.44506752476587835,-0.15581100468732528,0.8059549195255973,-0.3578751139607356,-0.45356135525872354,-1.967942245074184,0.6864453413574765
1780773228909262080,1.4575681686401367,-0.23345795273780823,0.12446755915880203,-0.012106254696846008,-0.8294336795806885,0.43727168440818787,0.34761011600494385,0.022213399410247803,-0.011536329984664917,-0.01612827181816101,-0.4457821568629911,-0.1551340890880226,0.8060635617666004,-0.357033699811325,-0.4525627163852127,-1.9676533226924684,0.6841860613847575
1780773228919297280,1.4676032066345215,-0.24968326091766357,0.1067143976688385,-0.0030504423193633556,-0.8298720121383667,0.43636879324913025,0.3476996421813965,0.0065991878509521484,-0.006299763917922974,-0.024884551763534546,-0.4464467767471352,-0.15443037139997298,0.806226441120911,-0.35613982044767906,-0.4515589943181587,-1.9675568038526274,0.6817719732026919
1780773228929332224,1.4776382446289062,-0.24813462793827057,0.1000857874751091,0.015331494621932507,-0.830206036567688,0.43553078174591064,0.34795278310775757,-0.0076694488525390625,-0.008574515581130981,-0.02600756287574768,-0.44704738471407895,-0.15365830397342425,0.8064524239618203,-0.3552074856072402,-0.45062784515237664,-1.9676727719969072,0.6791464178338658
1780773228939367168,1.487673044204712,-0.21908940374851227,0.0908169224858284,0.029482733458280563,-0.8304564952850342,0.43489789962768555,0.3481460511684418,-0.010592639446258545,-0.004691630601882935,-0.029145866632461548,-0.4475842794401056,-0.1528800696428222,0.8066602197745358,-0.35439414564357186,-0.44992487544901144,-1.9677632349150256,0.6766791369137005
1780773228949402112,1.4977080821990967,-0.1895160675048828,0.06340420246124268,0.03968849778175354,-0.8305752277374268,0.43446990847587585,0.3483971953392029,-0.005713164806365967,0.013467073440551758,-0.033684760332107544,-0.44799497971949426,-0.1521356415236406,0.8068787693672632,-0.3536974366755093,-0.44944963932704574,-1.967969410212711,0.6744069838071746
1780773228959437056,1.5077431201934814,-0.11269744485616684,0.048602357506752014,0.04036467522382736,-0.8305904269218445,0.4342638850212097,0.3486182689666748,-0.0026616454124450684,0.031114012002944946,-0.04399183392524719,-0.44825646685887477,-0.15154094951674926,0.8070591545398822,-0.3532097452945073,-0.449220935260562,-1.9681892003162302,0.67267515969406
1780773228969472256,1.5177781581878662,-0.03901151567697525,0.05612538754940033,0.04403291270136833,-0.8305858373641968,0.43435990810394287,0.3485089838504791,-0.006496012210845947,0.03022441267967224,-0.041837841272354126,-0.448448483507461,-0.15110654343598728,0.8071067470862783,-0.35304308052780253,-0.44932752107799057,-1.9680792964859188,0.6717220249388488
1780773228979507200,1.527813196182251,0.025721676647663116,0.05842822045087814,0.033346712589263916,-0.8306291103363037,0.4346664547920227,0.34802383184432983,-0.00196683406829834,0.030391007661819458,-0.03779730200767517,-0.44863201411712056,-0.15082508628017538,0.8070091131320053,-0.3531536134794542,-0.44966786969162537,-1.9675639679149675,0.6714908081154807
1780773228989542144,1.5378482341766357,0.11011379212141037,0.025480525568127632,0.014916308224201202,-0.8306722044944763,0.43510040640830994,0.3473782539367676,0.005156338214874268,0.05337926745414734,-0.03310820460319519,-0.44870373430172883,-0.1508186243552172,0.8068103079142094,-0.3535193915937191,-0.4501498025139748,-1.966884166903415,0.6721135909875533
1780773228999577088,1.5478830337524414,0.13593900203704834,0.05296674370765686,0.010610243305563927,-0.8307482600212097,0.43565261363983154,0.34650328755378723,0.007231354713439941,0.06451523303985596,-0.018957674503326416,-0.4487341193123561,-0.15099542906070343,0.8065060591788985,-0.35409915040623174,-0.4507631892802929,-1.9659547534376391,0.6733941345197665
1780773229009612032,1.5579180717468262,0.07935454696416855,0.09360791742801666,0.010258705355226994,-0.8309627771377563,0.4361247718334198,0.3453924059867859,-0.0031893253326416016,0.023332595825195312,0.004079669713973999,-0.44893358514777654,-0.15107253880726987,0.8061471908352008,-0.35462992161315504,-0.4512877870776743,-1.9647236631950895,0.6744983554918957
1780773229019647232,1.567953109741211,-0.023856796324253082,0.1007680892944336,0.008445092476904392,-0.831264853477478,0.4362969994544983,0.3444467782974243,-0.0005984902381896973,-0.03036746382713318,0.012944549322128296,-0.44929650958212913,-0.15092096203586713,0.8058822847909076,-0.3548368871926558,-0.45147920078554493,-1.963624384770567,0.6747419614469058
1780773229029681152,1.5779871940612793,-0.10256651788949966,0.07552146166563034,-0.0014813075540587306,-0.831558108329773,0.43610456585884094,0.34398192167282104,0.011108458042144775,-0.041298747062683105,0.006451398134231567,-0.4496968275399848,-0.15061051558713007,0.8057961454914255,-0.354657135976717,-0.4512653476003025,-1.9630223850438027,0.6740844697832611
1780773229039716352,1.588022232055664,-0.13864275813102722,0.07145348191261292,0.00402584346011281,-0.8318012356758118,0.4356737434864044,0.34394076466560364,0.013380825519561768,-0.014561682939529419,0.01703643798828125,-0.4500786982852803,-0.15019667547771398,0.805860619083135,-0.3542017025448349,-0.45078667449230925,-1.962876897334243,0.6727812524104266
1780773229049751040,1.5980570316314697,-0.09395145624876022,0.08212516456842422,-0.011277745477855206,-0.832080602645874,0.43525415658950806,0.3437955677509308,-0.002697169780731201,0.011431574821472168,-0.006393641233444214,-0.4504872270133448,-0.1498019079248635,0.8058890596963357,-0.3537843380384367,-0.4503205641632932,-1.9626093098619144,0.6715876858852163
1780773229059785984,1.6080920696258545,-0.050234872847795486,0.09784180670976639,-0.014743848703801632,-0.8324556946754456,0.43488436937332153,0.34335556626319885,-0.016314387321472168,0.02280297875404358,-0.03459396958351135,-0.45093567161348147,-0.14953026201399722,0.805803005949377,-0.3535240193640447,-0.44990987183763015,-1.9619986273724883,0.6708896012793354
1780773229069821184,1.6181271076202393,-0.01831156201660633,0.10728764533996582,-0.01867600716650486,-0.8328848481178284,0.4346514046192169,0.34260842204093933,-0.017502546310424805,0.01475033164024353,-0.052935659885406494,-0.4514051417947675,-0.14935058696411177,0.805604503660328,-0.3534530040752328,-0.44965118484363303,-1.9610500084174942,0.6706756699157701
1780773229079856128,1.628162145614624,-0.03058420680463314,0.08290267735719681,-0.023814311251044273,-0.833329439163208,0.4343644678592682,0.3418915271759033,-0.005827784538269043,-0.008262723684310913,-0.029254168272018433,-0.45186783827311017,-0.14921183078688013,0.8054077211991635,-0.35336917991966615,-0.4493325979454463,-1.9601261965359482,0.6705098068616999
1780773229089891072,1.6381971836090088,-0.03642638400197029,0.05227845162153244,-0.01753005012869835,-0.8336456418037415,0.4340704083442688,0.3414931297302246,0.006955087184906006,-0.028324007987976074,0.004896610975265503,-0.4521945682826565,-0.14910510813321332,0.8053038089742124,-0.35323280684861025,-0.449006149475689,-1.9595837984026663,0.6702500547752535
1780773229099926272,1.6482322216033936,-0.06695552915334702,0.05352800711989403,0.0010723976884037256,-0.8338678479194641,0.4338158369064331,0.3412741422653198,-0.0006505250930786133,-0.04575434327125549,-0.0015066862106323242,-0.4524617477726064,-0.14893658219453784,0.8052670113429024,-0.3530456700584303,-0.44872360132887407,-1.9592653975985062,0.6697698169140633
1780773229109960960,1.6582670211791992,-0.09459887444972992,0.07334405928850174,0.024898899719119072,-0.8340261578559875,0.43366894125938416,0.3410743176937103,-0.006931483745574951,-0.054365962743759155,-0.018457770347595215,-0.4527629753288275,-0.14856912970769987,0.8052728605208699,-0.3528010081186936,-0.448560568021012,-1.9589936513674024,0.668860150630283
1780773229119996160,1.668302059173584,-0.12312985211610794,0.05587185546755791,0.03535659983754158,-0.8341338634490967,0.4335304796695709,0.34098684787750244,0.0018584728240966797,-0.06142964959144592,-0.009932160377502441,-0.45306716591365886,-0.14808606197490568,0.8053346753983337,-0.3524723146163513,-0.4484069098333235,-1.9588585388005417,0.6676100657809447
1780773229130031104,1.6783370971679688,-0.12012846767902374,0.017133379355072975,0.04770248383283615,-0.8340754508972168,0.4334607720375061,0.3412182629108429,0.020888864994049072,-0.048878252506256104,0.0076434314250946045,-0.45323140122862304,-0.14757128104834283,0.8055009949424642,-0.3520967953258678,-0.44832953317372465,-1.9591207880909096,0.6661619121667185
1780773229140066048,1.6883721351623535,-0.09139642119407654,-0.011524362489581108,0.05762675404548645,-0.8338558673858643,0.4335310459136963,0.34166523814201355,0.024606049060821533,-0.019972115755081177,0.0050907135009765625,-0.45322621812896435,-0.14711536798489636,0.8057230843138717,-0.35178596399377304,-0.4484075432513597,-1.9596721095127172,0.6648447812848155
1780773229150101248,1.6984071731567383,-0.06323695182800293,0.014078334905207157,0.08103913813829422,-0.833550214767456,0.43385279178619385,0.3420030176639557,0.003090500831604004,-0.011794596910476685,-0.013252347707748413,-0.4531536834844145,-0.1466680647873543,0.8059094126726833,-0.35163947678856206,-0.44876458966422106,-1.9601476451297908,0.6637812745798062
1780773229160136192,1.708442211151123,-0.09446624666452408,0.022625749930739403,0.09897712618112564,-0.8332341909408569,0.43434780836105347,0.34214454889297485,-0.014223754405975342,-0.03533044457435608,-0.001278519630432129,-0.45313742273140034,-0.14609944202530178,0.8060565942199739,-0.35155971225232396,-0.44931408248890975,-1.9604262160834,0.6626397444888316
1780773229170171136,1.7184772491455078,-0.14315229654312134,0.003589075757190585,0.11810581386089325,-0.8328170776367188,0.4348360002040863,0.3425394296646118,-0.011146485805511475,-0.05003988742828369,0.025212615728378296,-0.45310125700770176,-0.14535472556315596,0.8063136632330227,-0.351325315241645,-0.44985613424553544,-1.9610077998359492,0.6609242101516277
1780773229180206080,1.7285120487213135,-0.17985518276691437,-0.015674367547035217,0.13450555503368378,-0.832233726978302,0.43534526228904724,0.34330984950065613,-0.007289588451385498,-0.06182536482810974,0.031812191009521484,-0.45295747418675275,-0.14449722833607118,0.8067065567178175,-0.3509624795114464,-0.4504217595954149,-1.9620456838741713,0.6587479418944019
1780773229190241024,1.7385470867156982,-0.23187310993671417,0.0076241642236709595,0.16542164981365204,-0.8315705060958862,0.4358613193035126,0.3442605435848236,-0.016039907932281494,-0.06987926363945007,0.035729050636291504,-0.4528272743401546,-0.14343554289393726,0.8071905072109732,-0.3504528204244425,-0.45099507151294604,-1.963303188934954,0.655976982585916
1780773229200276224,1.748582124710083,-0.22595690190792084,0.030284734442830086,0.19220666587352753,-0.8308507800102234,0.43656960129737854,0.34509995579719543,-0.01671391725540161,-0.06204262375831604,0.03383684158325195,-0.45276318063242593,-0.14213211649612656,0.8076809040446364,-0.3499364464272942,-0.451782170251992,-1.9644712874283596,0.6527998048319902
1780773229210311168,1.7586171627044678,-0.17497441172599792,0.012094546109437943,0.18898583948612213,-0.8300942778587341,0.4374666213989258,0.34578341245651245,-0.008910119533538818,-0.036282628774642944,0.010158360004425049,-0.45266692038394024,-0.1408576408761173,0.8081156010505016,-0.34957239507126553,-0.4527794776143537,-1.9654958607697346,0.6499073427125863
1780773229220346112,1.7686522006988525,-0.059196408838033676,-0.006795787718147039,0.19208069145679474,-0.8292576670646667,0.4386143088340759,0.34633684158325195,0.00029343366622924805,-0.0007786154747009277,-0.002800464630126953,-0.4524134846207012,-0.13981901316058984,0.808467108469888,-0.3495048336902334,-0.45405616796753595,-1.9664223248284594,0.6478399737664529
1780773229230381312,1.7786872386932373,0.03633277490735054,0.0007645268924534321,0.18421052396297455,-0.8284145593643188,0.44017383456230164,0.3463759422302246,-0.008545219898223877,0.016994714736938477,-0.030274897813796997,-0.45207436900549874,-0.13904586597908775,0.8086125281965209,-0.3499154199116904,-0.4557922693051334,-1.9668243717439795,0.6469810756976379
1780773229240416000,1.788722038269043,0.07594809681177139,0.021058080717921257,0.1923462152481079,-0.8276283740997314,0.44191643595695496,0.34603631496429443,-0.01270359754562378,0.020089179277420044,-0.023740172386169434,-0.4517530804357714,-0.13839691303548068,0.8086188560092044,-0.3505723935259005,-0.4577339086655053,-1.9668131545692698,0.64675360838592
1780773229250451200,1.7987570762634277,0.06540916860103607,0.023191407322883606,0.1932610124349594,-0.8268595933914185,0.44377923011779785,0.34549015760421753,-0.011672019958496094,-0.022102534770965576,-0.013977617025375366,-0.4514584804160691,-0.13775418089284805,0.808559747742632,-0.351340650900883,-0.45981154083208786,-1.9665817952705913,0.6467337527839986
1780773229260486144,1.8087921142578125,-0.025213144719600677,0.015185677446424961,0.20314745604991913,-0.8260484337806702,0.44550424814224243,0.3452102243900299,-0.001573026180267334,-0.055077582597732544,0.00771021842956543,-0.45117804223546143,-0.13696664363442101,0.808606985982988,-0.35189958494088863,-0.46173740390090656,-1.9666426081043993,0.6461218524731425
1780773229270521088,1.8188271522521973,-0.09182146191596985,-0.012843692675232887,0.21319477260112762,-0.8251287341117859,0.4470113217830658,0.34546178579330444,0.0068302154541015625,-0.05101507902145386,0.019314855337142944,-0.4508672576528775,-0.13597511665442727,0.808852060979675,-0.3521192540991235,-0.4634214629258347,-1.9672985043826374,0.6445755467698677
1780773229280556288,1.828862190246582,-0.11987653374671936,-0.020125841721892357,0.21901057660579681,-0.8240891098976135,0.4484352171421051,0.3460971713066101,-0.0011216402053833008,-0.04381784796714783,0.018557339906692505,-0.4504843532510667,-0.134877210501745,0.8092321813148597,-0.3521581236166722,-0.46501390187923164,-1.9684034361340437,0.6425060185979942
1780773229290591232,1.8388972282409668,-0.13178326189517975,-0.014934409409761429,0.22489270567893982,-0.8230342864990234,0.44982898235321045,0.3467968702316284,-0.01648890972137451,-0.034789979457855225,0.008259445428848267,-0.450113936359529,-0.13371752998171602,0.8096407004266485,-0.3521347328517411,-0.4665738381057267,-1.9695830774584553,0.640228674428543
1780773229300625920,1.8489320278167725,-0.08600857853889465,-0.015860389918088913,0.2274962067604065,-0.8219673037528992,0.4512993395328522,0.34741684794425964,-0.022087812423706055,-0.0064446330070495605,-0.001973181962966919,-0.44973569695392,-0.13257059359441187,0.8100206545705761,-0.3521779310274173,-0.4682208545967033,-1.970687593433854,0.6380775168553238
1780773229310661120,1.8589670658111572,-0.024487964808940887,-0.02698494680225849,0.22887998819351196,-0.8208569884300232,0.4529823362827301,0.3478519916534424,-0.017216861248016357,0.021520286798477173,-0.009534090757369995,-0.44927746460943346,-0.1315645427716374,0.8103189267058214,-0.3524540069908382,-0.4701077361642581,-1.9716220348645355,0.6365173326619448
1780773229320696064,1.869002103805542,0.0029636335093528032,-0.027835292741656303,0.23310217261314392,-0.8197094202041626,0.4548611342906952,0.3481064438819885,-0.013390064239501953,0.030963510274887085,-0.009956330060958862,-0.4487622361516728,-0.13065818159744128,0.8105440504903394,-0.35292965001063387,-0.4722162846744565,-1.9723878824636598,0.6354322043599521
1780773229330731264,1.8790371417999268,-0.006971022579818964,-0.04135243222117424,0.23469100892543793,-0.8185322284698486,0.4567713141441345,0.3483749032020569,-0.011194944381713867,0.02058464288711548,-0.00566256046295166,-0.4482150823274494,-0.12977642710656892,0.8107684848676766,-0.3534343139544705,-0.4743623565127692,-1.9731829360251276,0.6344208382395912
1780773229340766208,1.8890721797943115,-0.03575047478079796,-0.03245667368173599,0.23779678344726562,-0.8173205256462097,0.45865151286125183,0.34874919056892395,-0.011506378650665283,-0.016039788722991943,-0.014230847358703613,-0.4476593912506099,-0.1288420387484005,0.8110328779004374,-0.35387356948846466,-0.47647707706396775,-1.9741044759747965,0.6332018338491687
1780773229350801152,1.8991072177886963,-0.091595359146595,-0.02597360871732235,0.2404293268918991,-0.8161131739616394,0.4603838622570038,0.3492932915687561,-0.006884753704071045,-0.02914002537727356,-0.012562304735183716,-0.4471564479728432,-0.12777240357969047,0.8113697403883795,-0.35412483806801354,-0.4784275472250912,-1.9752019841308575,0.631456492182132
1780773229360836096,1.909142017364502,-0.10820629447698593,-0.03687925636768341,0.2340443879365921,-0.814903736114502,0.46197035908699036,0.3500218689441681,0.005196094512939453,-0.0050154030323028564,-0.006714344024658203,-0.4466737950493515,-0.1266271479265453,0.8117736757154382,-0.3542196676345698,-0.48021553782665743,-1.976493805643434,0.6293257654602862
1780773229370871040,1.9191770553588867,-0.08798118680715561,-0.05240268632769585,0.22864297032356262,-0.8136591911315918,0.4635187089443207,0.3508692681789398,0.006423473358154297,0.014706999063491821,-0.021309971809387207,-0.4461358858183633,-0.12553213220867854,0.812204604979879,-0.35429957189967787,-0.4819621580073224,-1.9779268178092497,0.6272282328969496
1780773229380905984,1.9292120933532715,-0.056071989238262177,-0.057378269731998444,0.2251419723033905,-0.8124126195907593,0.46510612964630127,0.3516557514667511,-0.0010638236999511719,0.034695446491241455,-0.03080931305885315,-0.4455552439722977,-0.12454730819564049,0.8125982090267003,-0.3544750194110302,-0.48375448167861784,-1.9793002367000576,0.6254597701801228
1780773229390941184,1.9392471313476562,0.007732822094112635,-0.05743832141160965,0.21882309019565582,-0.8111781477928162,0.46681320667266846,0.3522430658340454,-0.007379472255706787,0.05891305208206177,-0.029428154230117798,-0.444948494512852,-0.12368323907005747,0.8129108091915941,-0.35482278202522066,-0.4856838186958273,-1.9804641816210429,0.6241753192984388
1780773229400976128,1.949282169342041,0.0770498514175415,-0.07743759453296661,0.2032923400402069,-0.8099628686904907,0.4686848819255829,0.3525542914867401,-0.010532617568969727,0.07239171862602234,-0.020660310983657837,-0.4442820807436567,-0.1230425863210469,0.8131037249984193,-0.35543811888675514,-0.48780143300894346,-1.9813353136018486,0.6236991267081049
1780773229411011328,1.9593172073364258,0.12120452523231506,-0.10194853693246841,0.18763108551502228,-0.8087157607078552,0.47062209248542786,0.3528367578983307,-0.010788023471832275,0.06950852274894714,-0.0242997407913208,-0.44349706488293483,-0.12262813212842115,0.8132531697715182,-0.35621903619398076,-0.4899956922453955,-1.9821929593730665,0.6238375741718041
1780773229421046272,1.9693522453308105,0.12184847891330719,-0.09617827087640762,0.1756916046142578,-0.8075050115585327,0.4725388288497925,0.3530484139919281,-0.019857168197631836,0.04723659157752991,-0.02090996503829956,-0.44268543501904517,-0.12235405910825445,0.8133595049960629,-0.3570792082727482,-0.49216929139307986,-1.982962440615164,0.6243441949915604
1780773229431080960,1.9793870449066162,0.06176596134901047,-0.09781678020954132,0.17181670665740967,-0.8063362240791321,0.4742708206176758,0.35339635610580444,-0.018767476081848145,0.03566262125968933,0.015454381704330444,-0.4419248214827017,-0.12201657012518229,0.8135171401318062,-0.35777681060019745,-0.49413560527592865,-1.983856397841308,0.6244940432889731
1780773229441116160,1.989422082901001,-0.005211205687373877,-0.09981228411197662,0.15550032258033752,-0.8052041530609131,0.4757051169872284,0.3540492355823517,-0.012499094009399414,0.033846884965896606,0.028061270713806152,-0.44120877005989134,-0.12159155342416927,0.813781365299667,-0.35820409298148964,-0.49576548197181547,-1.98505284746943,0.6240597653421391
1780773229451151104,1.9994571208953857,-0.06500902026891708,-0.08646291494369507,0.12866097688674927,-0.8041839599609375,0.4767304062843323,0.3549872040748596,-0.012985169887542725,0.037109315395355225,0.021462053060531616,-0.44059123260154703,-0.12108829202955523,0.8141444716111929,-0.35830943998204623,-0.49693149547025295,-1.9864967254236434,0.6230000461063253
1780773229461186048,2.0094921588897705,-0.0784931406378746,-0.05777721479535103,0.0898589938879013,-0.8034088015556335,0.4773475229740143,0.35591283440589905,-0.018338143825531006,0.05580991506576538,0.024671941995620728,-0.4401500029904326,-0.12060706578893181,0.8145000588919874,-0.35820618115326347,-0.4976336270178749,-1.9878166569499143,0.6217261548508297
1780773229471221248,2.0195271968841553,-0.06277036666870117,-0.018773222342133522,0.05292494222521782,-0.8029302358627319,0.47766077518463135,0.3565713167190552,-0.021578311920166016,0.08064299821853638,0.032619327306747437,-0.4399033310971346,-0.12023727259661646,0.8147568090434713,-0.3580493733487088,-0.4979901661445076,-1.9887225927322267,0.6206677492845593
1780773229481256192,2.02956223487854,0.0016973003512248397,0.016850817948579788,0.013915492221713066,-0.8027769923210144,0.4778091609477997,0.3567183315753937,-0.02781999111175537,0.1075943112373352,0.02321070432662964,-0.4398712669997264,-0.12002316139872185,0.8148334823963932,-0.3579864264161824,-0.49815908567280187,-1.9889463311456608,0.620161363997159
1780773229491291136,2.0395970344543457,0.07540028542280197,0.01983688771724701,-0.025827394798398018,-0.8028797507286072,0.47789183259010315,0.3563752770423889,-0.029716014862060547,0.12167173624038696,0.02118811011314392,-0.4399393971750392,-0.12010330099689277,0.8147164155094386,-0.35814190486671604,-0.49825318127090706,-1.9885419535833326,0.6206010235852545
1780773229501326080,2.0496320724487305,0.13040734827518463,0.042194657027721405,-0.04834521934390068,-0.8031572699546814,0.47796788811683655,0.3556475043296814,-0.032398760318756104,0.11771997809410095,0.03590834140777588,-0.44005339630932966,-0.1204439379507111,0.8144427649640675,-0.35850979540954736,-0.498339770590352,-1.98765648997848,0.6218871349180828
1780773229511361024,2.0596671104431152,0.12092383205890656,0.0627494677901268,-0.08010900765657425,-0.803648829460144,0.47792336344718933,0.3545955419540405,-0.03595089912414551,0.10239896178245544,0.03920319676399231,-0.4403029786788169,-0.12089780346661673,0.8140525152956818,-0.3589367223116618,-0.49828907227445046,-1.9863348813117627,0.6235489208514793
1780773229521396224,2.0697021484375,0.1148478239774704,0.07738939672708511,-0.11391197890043259,-0.8043649792671204,0.4775455892086029,0.35347846150398254,-0.03399854898452759,0.07761487364768982,0.045584648847579956,-0.440696856296238,-0.12141915007827918,0.8136317493051317,-0.3592311033128451,-0.49785905640623906,-1.9848426057976578,0.6251887166082278
1780773229531431168,2.0797371864318848,0.06278382986783981,0.09690038114786148,-0.12313610315322876,-0.8052495121955872,0.4769151210784912,0.3523136377334595,-0.035433292388916016,0.039198100566864014,0.05575212836265564,-0.4412128210596916,-0.12196075565602287,0.8131927165415911,-0.35940829439648797,-0.49714161700597015,-1.9832244625829318,0.6267343175683177
1780773229541466112,2.0897722244262695,-0.028919199481606483,0.12208136916160583,-0.13372856378555298,-0.8062480688095093,0.4759367108345032,0.35135242342948914,-0.022670507431030273,0.0259401798248291,0.053203850984573364,-0.44188345918629623,-0.12231396380575653,0.8128440858170168,-0.3592532414858539,-0.4960287987628807,-1.981768058608817,0.6274690229924329
1780773229551501056,2.099807024002075,-0.062258247286081314,0.1069711223244667,-0.15920595824718475,-0.8073607087135315,0.4745863080024719,0.35062330961227417,-0.010922491550445557,0.01726555824279785,0.018120557069778442,-0.4426540576550694,-0.12259884993919129,0.8125768735759674,-0.35881162508687514,-0.4944939703963261,-1.980503709287119,0.6276544037898908
1780773229561535232,2.1098411083221436,-0.06378103792667389,0.07474607974290848,-0.17733116447925568,-0.8084845542907715,0.47299373149871826,0.3501851260662079,0.0029121041297912598,0.015562176704406738,-0.010753393173217773,-0.44336796771894404,-0.12298450656162237,0.8123837614341631,-0.3582349492210413,-0.4926855413367661,-1.9795394194778533,0.6277624619790121
1780773229571570176,2.1198761463165283,-0.022007230669260025,0.06809336692094803,-0.19025176763534546,-0.8096006512641907,0.47134190797805786,0.3498331606388092,0.009277284145355225,0.030794203281402588,-0.03472393751144409,-0.444007848517534,-0.12351373090406778,0.812195136777749,-0.3576874708978734,-0.49081169344712905,-1.9786702471132747,0.6281350569354509
1780773229581605120,2.129911184310913,0.0028842713218182325,0.07392009347677231,-0.19939438998699188,-0.8107733130455017,0.4697299897670746,0.3492852449417114,0.0021033287048339844,0.03283339738845825,-0.0407068133354187,-0.44465676654680936,-0.12415827182621948,0.8119281684196814,-0.3572641357202011,-0.48898491083691725,-1.977573632581259,0.6289239003262217
1780773229591640320,2.139946222305298,0.03890299052000046,0.05531272292137146,-0.20350044965744019,-0.811948835849762,0.46815600991249084,0.34866756200790405,0.006757795810699463,0.023375362157821655,-0.04857301712036133,-0.4452674622386459,-0.12491149511943749,0.8116223883778463,-0.3569357306525927,-0.4872028257949991,-1.9764053067559224,0.6300425160811605
1780773229601675008,2.1499810218811035,0.06298596411943436,0.04907027259469032,-0.20416784286499023,-0.8130907416343689,0.4666837155818939,0.3479793071746826,0.013011515140533447,0.011297792196273804,-0.048418790102005005,-0.4458144933420228,-0.12576815478276962,0.8112780159957355,-0.3567348212904151,-0.48553738561418497,-1.9751807776288013,0.6315219810592487
1780773229611709952,2.1600160598754883,0.059893760830163956,0.04766133055090904,-0.20332229137420654,-0.8142130970954895,0.4652530252933502,0.34727078676223755,0.012867152690887451,-0.007153570652008057,-0.039241641759872437,-0.4463403893143535,-0.12664659955278504,0.8109229528024291,-0.3565739501668967,-0.4839204261600001,-1.9739460606992794,0.6330935155870884
1780773229621745152,2.170051097869873,0.0529429093003273,0.023056384176015854,-0.19178654253482819,-0.8152610063552856,0.46383213996887207,0.34671199321746826,0.01682966947555542,-0.02477574348449707,-0.02162352204322815,-0.44680798935073057,-0.12750687762986346,0.8106158150339312,-0.35637986559074425,-0.4823159003101432,-1.972901831124804,0.6345447662778243
1780773229631780096,2.180086135864258,0.04306710883975029,-0.006700979080051184,-0.1797751486301422,-0.8161546587944031,0.4624902307987213,0.34640222787857056,0.020454585552215576,-0.029979825019836426,-0.012021183967590332,-0.44713954729016825,-0.12836856064523236,0.8103842461503066,-0.3561813678552541,-0.48080179866753514,-1.9721858465018278,0.6359187958299726
1780773229641815296,2.1901211738586426,0.013044762425124645,0.0032400679774582386,-0.1570807546377182,-0.8169342279434204,0.4611920416355133,0.34629541635513306,0.00911867618560791,-0.038767725229263306,-0.02369403839111328,-0.44741184150282026,-0.12913441912357,0.8102296063672243,-0.3559142903517763,-0.479338192112972,-1.9717317977052153,0.6369766568542725
1780773229651850240,2.2001562118530273,-0.03804238885641098,0.02730492502450943,-0.14022454619407654,-0.8176780939102173,0.4599359631538391,0.3462105095386505,-0.006372928619384766,-0.059224843978881836,-0.03773877024650574,-0.44775343080329894,-0.12967902776115822,0.8101164171740781,-0.355544230603913,-0.47792309567002467,-1.9713168122434295,0.6375052919073868
1780773229661885184,2.210191249847412,-0.08045589178800583,0.022582074627280235,-0.12480243295431137,-0.8183857202529907,0.4586208164691925,0.34628307819366455,-0.001987934112548828,-0.06433361768722534,-0.03884896636009216,-0.44814225093252824,-0.13002867086622302,0.8100827623851773,-0.35500291609174,-0.47644253114958474,-1.9710815004301003,0.6374273499097175
1780773229671920128,2.2202260494232178,-0.06126914918422699,-0.0015584155917167664,-0.11646302044391632,-0.8189865350723267,0.4573792517185211,0.34650418162345886,0.016862571239471436,-0.042553842067718506,-0.04700472950935364,-0.4484626387519114,-0.1303233240637967,0.8101036490864665,-0.35444200716637014,-0.47504587521092173,-1.9710472032178254,0.6371846660756001
1780773229681955072,2.2302610874176025,-0.0027877292595803738,-0.03274482861161232,-0.11400572210550308,-0.8194606900215149,0.45632609724998474,0.3467717468738556,0.029208064079284668,-0.012631058692932129,-0.04878285527229309,-0.4486274225925902,-0.13074325676964918,0.8101185589376546,-0.354044546585525,-0.47386195392719305,-1.9711165306936542,0.6373562011453996
1780773229691990016,2.2402961254119873,0.06548081338405609,-0.054918043315410614,-0.09351988136768341,-0.8197818398475647,0.4555797278881073,0.3469943404197693,0.030765056610107422,0.008546948432922363,-0.034250110387802124,-0.4486134305344109,-0.13130955849992482,0.8100956534370443,-0.35390523119544015,-0.47302332934950664,-1.9712061863457335,0.6381238828368225
1780773229702026240,2.2503323554992676,0.11867398768663406,-0.05912104621529579,-0.08036360144615173,-0.8199828863143921,0.4551898241043091,0.3470306098461151,0.02118527889251709,0.00570186972618103,-0.028457671403884888,-0.4484774719142245,-0.13197245715801526,0.8099991245622576,-0.3540517192098803,-0.47258538592820043,-1.9711557182743316,0.6394737711479455
1780773229712061440,2.2603673934936523,0.16001130640506744,-0.0623830147087574,-0.06584085524082184,-0.8201112151145935,0.45508646965026855,0.34686267375946045,0.014660894870758057,-0.01233750581741333,-0.014068514108657837,-0.44827642767352477,-0.1326874285635911,0.8098304678596048,-0.3544246516194269,-0.47246932015174137,-1.9709258547095845,0.6412579726832777
1780773229722096384,2.270402431488037,0.16667772829532623,-0.07593823969364166,-0.05527449771761894,-0.8201496005058289,0.4551814794540405,0.34664788842201233,0.018818914890289307,-0.026195794343948364,-0.0023027360439300537,-0.44799808029972166,-0.13342516358919485,0.8096429247010003,-0.35492800699658805,-0.47257600545652273,-1.970686870489534,0.6432601898095308
1780773229732131328,2.2804372310638428,0.12353985011577606,-0.09071172773838043,-0.05010636895895004,-0.8200973272323608,0.4552561640739441,0.34667304158210754,0.014585912227630615,-0.03422042727470398,-0.007393866777420044,-0.4476505921345985,-0.13412048922283246,0.8095358011560835,-0.3553483314463896,-0.4726598961421754,-1.9707357491844972,0.6450156157167731
1780773229742166272,2.2904722690582275,0.05385610833764076,-0.08834125101566315,-0.03994001820683479,-0.8199916481971741,0.4551968574523926,0.347000390291214,0.010207831859588623,-0.04198893904685974,-4.604458808898926e-05,-0.44730552198907936,-0.13466766546330944,0.8095460556631319,-0.35555237565937287,-0.4725933020772489,-1.9711206048706802,0.6461514040932717
1780773229752201216,2.3005073070526123,-0.025853101164102554,-0.10267837345600128,-0.025391701608896255,-0.8198135495185852,0.45497041940689087,0.3477180302143097,0.008854568004608154,-0.051985740661621094,0.010955005884170532,-0.44697007696809415,-0.1350041787793675,0.8097116077379144,-0.3554698155760886,-0.4723389916149801,-1.971940716378087,0.6464432766773713
1780773229762236416,2.310542345046997,-0.1257421374320984,-0.10590026527643204,-0.018660029396414757,-0.8195512294769287,0.4545342028141022,0.34890425205230713,0.0038622617721557617,-0.06644222140312195,0.010272353887557983,-0.44663846140620306,-0.1351119612554724,0.8100598068936369,-0.35505192980036515,-0.4718492002363137,-1.9732817289082472,0.6457760163027069
1780773229772271360,2.320577383041382,-0.17599545419216156,-0.10993482172489166,-0.01831621490418911,-0.8192607164382935,0.4538324475288391,0.3504965603351593,-0.002730131149291992,-0.06647288799285889,0.0018288791179656982,-0.4463400322426519,-0.1350337039937902,0.8105641073052051,-0.3543053091899436,-0.4710615089082765,-1.9750535445347925,0.6442532362764165
1780773229782306560,2.3306124210357666,-0.151098370552063,-0.09879454970359802,-0.01969413459300995,-0.818977952003479,0.4530985653400421,0.35210394859313965,-0.011985301971435547,-0.04092809557914734,-0.006553381681442261,-0.4460620644247032,-0.13492200690822082,0.8110783106674788,-0.3535205820457343,-0.47023812256859615,-1.976836090560358,0.6426216466622031
1780773229792341504,2.3406474590301514,-0.06468864530324936,-0.08101595938205719,-0.023153314366936684,-0.8187682628631592,0.45251867175102234,0.35333430767059326,-0.013720691204071045,0.002299964427947998,-0.009553849697113037,-0.44581899400248765,-0.13491984279040425,0.811457815761465,-0.35295631419175205,-0.46958771019117523,-1.9781964940147048,0.641567899491118
1780773229802376192,2.350682258605957,0.048585180193185806,-0.06767351925373077,-0.029351288452744484,-0.8186314702033997,0.45225459337234497,0.3539891541004181,-0.013628661632537842,0.03649967908859253,-0.011078476905822754,-0.4455712624664002,-0.13514632094915788,0.8116218672689488,-0.3528054502031744,-0.46929162023420506,-1.978931399579753,0.6415992376145486
1780773229812411392,2.360717296600342,0.12004338949918747,-0.04334447532892227,-0.03560971841216087,-0.8185877799987793,0.4522991478443146,0.3540334701538086,-0.016510605812072754,0.0374775230884552,0.00042822957038879395,-0.4453420786756083,-0.1355883139875586,0.8115617935104655,-0.3530633948226146,-0.46934157977277363,-1.9789964443795278,0.6426951496532064
1780773229822446336,2.3707523345947266,0.10530385375022888,-0.011449662037193775,-0.02968285232782364,-0.8186399936676025,0.4524422287940979,0.3537292778491974,-0.02395021915435791,0.010784029960632324,0.018188446760177612,-0.4452083588158492,-0.1360340348057075,0.8113934781098355,-0.3534470156363926,-0.4695019996641806,-1.9786601277416414,0.6440523269294957
1780773229832481280,2.3807873725891113,0.014767029322683811,0.018741529434919357,-0.019604118540883064,-0.8187720775604248,0.4524701237678528,0.353387713432312,-0.023467183113098145,-0.02472054958343506,0.0332241952419281,-0.44523147437073296,-0.13626803147556044,0.8112489601092842,-0.3536594746382853,-0.4695332863043992,-1.9782497571432358,0.6448299191302233
1780773229842516480,2.390822410583496,-0.07702520489692688,0.017456289380788803,-0.00941060297191143,-0.8189005851745605,0.45225295424461365,0.35336846113204956,-0.015816330909729004,-0.04626229405403137,0.05428531765937805,-0.4453590963122178,-0.1362083585123397,0.8112530474653662,-0.3535125213906227,-0.4692897756208036,-1.9781728565127112,0.6445457722529249
1780773229852551424,2.400857448577881,-0.12364330887794495,0.011079083196818829,-0.011964308097958565,-0.8189965486526489,0.45179930329322815,0.35372576117515564,-0.002887547016143799,-0.038270920515060425,0.061511605978012085,-0.44550301844333606,-0.1359976389533884,0.811398496716538,-0.35307805774442425,-0.46878118587837925,-1.9784979814755763,0.6435284141390385
1780773229862586368,2.4108922481536865,-0.1114146038889885,0.00844282004982233,-0.009115258231759071,-0.8190750479698181,0.45127660036087036,0.3542114496231079,0.0014327764511108398,-0.009900867938995361,0.05159604549407959,-0.44563652707870344,-0.13575999474375933,0.8115879138794874,-0.3525655203642447,-0.4681953781704527,-1.9789627417853597,0.6423306022623864
1780773229872621312,2.4209272861480713,-0.04834749177098274,0.013989917933940887,-0.02085154317319393,-0.8191919326782227,0.4508669674396515,0.3544620871543884,-0.001410365104675293,0.018767982721328735,0.02432200312614441,-0.4457721209516356,-0.13562112529063683,0.8116883390962514,-0.35221597770409685,-0.46773639742439305,-1.9791685160126566,0.6415777862944396
1780773229882656256,2.430962324142456,0.0031873390544205904,0.005387907847762108,-0.015760378912091255,-0.8193097710609436,0.4506296217441559,0.35449203848838806,-0.003657817840576172,0.031517595052719116,0.01266491413116455,-0.44585937272383286,-0.13562768724360227,0.8116964604193774,-0.35208443678985624,-0.46747051587588717,-1.9791468700763473,0.6414173869481548
1780773229892691456,2.440997362136841,0.08305687457323074,0.017785456031560898,-0.02229391224682331,-0.8194443583488464,0.4506227970123291,0.3541894555091858,-0.00558316707611084,0.028976261615753174,0.001554042100906372,-0.4459128440482977,-0.1357915995010988,0.8115758564787429,-0.3522315491680179,-0.4674628702154327,-1.9787759248680972,0.6419768986742579
1780773229902726400,2.4510324001312256,0.12406609207391739,0.024251077324151993,-0.02373361587524414,-0.8196265697479248,0.450810968875885,0.3535274565219879,-0.00524824857711792,0.024057745933532715,-0.003261953592300415,-0.44597232928173214,-0.13608037432845696,0.8113235213143,-0.3526257595493981,-0.46767367352105516,-1.9780141608234059,0.6431670551373777
1780773229912761344,2.4610674381256104,0.1070018857717514,0.0291086845099926,-0.02452138066291809,-0.8198246955871582,0.45104244351387024,0.3527716398239136,-0.002715468406677246,0.01077994704246521,-0.00639718770980835,-0.4460343742421648,-0.13640548316685694,0.8110359851101434,-0.3530826809361588,-0.46793300414291994,-1.9771486638754339,0.6445267995942348
1780773229922796288,2.471102237701416,0.00510188564658165,0.04992847889661789,-0.01837240718305111,-0.8200603127479553,0.4510810673236847,0.3521743714809418,-0.006462454795837402,-0.03451615571975708,-0.008241325616836548,-0.4461931667856745,-0.13655239000397215,0.8108271242702082,-0.3533049959222223,-0.4679762647189502,-1.9764295557170797,0.6452327069714158
1780773229932831232,2.481137275695801,-0.09673233330249786,0.0496206134557724,-0.0070814029313623905,-0.8203021883964539,0.45080068707466125,0.3519704043865204,-0.0024669766426086426,-0.07378649711608887,0.016544580459594727,-0.44645759880191266,-0.13641030459690034,0.8107881586480147,-0.3531153653465535,-0.46766213085853214,-1.976112688861318,0.6447998805938226
1780773229942866432,2.4911723136901855,-0.1380813717842102,0.03180593252182007,-0.006712022237479687,-0.8204749226570129,0.45032647252082825,0.35217443108558655,0.00478595495223999,-0.06968078017234802,0.024061530828475952,-0.4467202587296804,-0.1360874510645847,0.8109053062142138,-0.35263827861602126,-0.4671309376483354,-1.9762463760519076,0.6435725403258308
1780773229952901376,2.5012073516845703,-0.08433771133422852,0.014081930741667747,-0.0038909357972443104,-0.820575475692749,0.4498676061630249,0.35252663493156433,0.009204685688018799,-0.012047171592712402,-0.0017576217651367188,-0.4468958035490435,-0.13581217927907258,0.8110600288116675,-0.3521659168923282,-0.46661709783569405,-1.97656437525225,0.6423950876850352
1780773229962936320,2.511242389678955,0.036895234137773514,0.028755415230989456,-0.004840352572500706,-0.8206647634506226,0.44975706934928894,0.35246002674102783,-0.0006853342056274414,0.03794434666633606,-0.031186223030090332,-0.44700009848769545,-0.13574284414484353,0.8110511076136502,-0.35208088714958796,-0.466493314405781,-1.976456405046382,0.6421842039435679
1780773229972971520,2.52127742767334,0.09144077450037003,0.0426643081009388,0.012999631464481354,-0.8207741975784302,0.450032114982605,0.3518541157245636,-0.00870901346206665,0.03736424446105957,-0.03682103753089905,-0.4470936719018113,-0.13581511318894796,0.8108522134382657,-0.3523923727247453,-0.4668013018675851,-1.9757845958155147,0.6428704022144487
1780773229983006208,2.5313122272491455,0.09899269789457321,0.0312420092523098,0.014051047153770924,-0.8208527565002441,0.45048606395721436,0.35108840465545654,-0.0002989768981933594,0.0056601762771606445,-0.031615257263183594,-0.44716225871501675,-0.13591355830821333,0.8105996010840373,-0.3528480049057148,-0.46730971502779917,-1.9749616581947216,0.6438280761960954
1780773229993041152,2.5413472652435303,0.0631585344672203,-0.01074938289821148,0.01520020142197609,-0.8208345770835876,0.45088469982147217,0.35061877965927124,0.010898053646087646,-0.032259851694107056,-0.018862277269363403,-0.4471289766566373,-0.13602760880185802,0.8104356135274817,-0.35322266959266235,-0.4677562501592608,-1.974485916523869,0.6446304757411409
1780773230003076352,2.551382303237915,0.024134431034326553,-0.015737751498818398,0.026125285774469376,-0.8206850290298462,0.4512147605419159,0.35054415464401245,0.008154571056365967,-0.04444599151611328,-0.026417046785354614,-0.44699707269844374,-0.13607264144684705,0.8104050329678617,-0.3534423424885017,-0.46812607786303145,-1.9744748400302856,0.6450063919755649
1780773230013111296,2.5614173412323,-0.029217205941677094,0.01538860984146595,0.04168134182691574,-0.820534348487854,0.4514808654785156,0.35055461525917053,-0.005225539207458496,-0.042652130126953125,-0.032424092292785645,-0.44693878361661604,-0.13593408369293625,0.8104315116757117,-0.35350876699115236,-0.4684242789551952,-1.974551957020473,0.6448404827663817
1780773230023146496,2.5714523792266846,-0.0787341520190239,0.010886270552873611,0.06046435236930847,-0.8203555345535278,0.4517146348953247,0.3506719470024109,0.000638127326965332,-0.04364883899688721,-0.009348034858703613,-0.4469505619307093,-0.13556852588747437,0.8105289281608059,-0.3534108927520522,-0.468686305487567,-1.9747516268496441,0.6440354909991168
1780773230033181440,2.5814874172210693,-0.09366410225629807,-0.02233985997736454,0.06893294304609299,-0.8200435042381287,0.45193758606910706,0.35111382603645325,0.015081465244293213,-0.03720372915267944,0.007589787244796753,-0.4468747892664698,-0.1351159993754766,0.8107407640582943,-0.3531939370382749,-0.46893619809591164,-1.9753446035802338,0.6428360920358506
1780773230043216384,2.591522455215454,-0.06325772404670715,-0.05236193910241127,0.07689153403043747,-0.8195788860321045,0.4522380232810974,0.3518115282058716,0.021223783493041992,-0.012998521327972412,0.007731318473815918,-0.4466476399379588,-0.1346985648361852,0.8110253163567961,-0.3529875174909073,-0.469273042945548,-1.9762687555730212,0.6416406350992626
1780773230053251328,2.6015572547912598,0.01899692788720131,-0.047672249376773834,0.0792742595076561,-0.8190444707870483,0.45279818773269653,0.35233575105667114,0.007566630840301514,0.016196101903915405,-0.017115265130996704,-0.4463145482773304,-0.134426333252651,0.8112320462410084,-0.35303773163536395,-0.4699011890572306,-1.9770454586993844,0.6410720427247414
1780773230063286272,2.6115922927856445,0.07430519163608551,-0.02051626145839691,0.08304822444915771,-0.8185566663742065,0.4536338746547699,0.35239407420158386,-0.008713960647583008,0.024637669324874878,-0.03165432810783386,-0.4460004417067765,-0.1342658140137102,0.8112766073560465,-0.3533931018138346,-0.4708387048946294,-1.9773218878291436,0.6412132640522268
1780773230073321216,2.6216273307800293,0.11784974485635757,-0.01815962977707386,0.08402853459119797,-0.8181103467941284,0.45467808842658997,0.3520846366882324,-0.007756471633911133,0.01507905125617981,-0.006869763135910034,-0.44571125281991036,-0.1341788733247819,0.8111956285330324,-0.35397637143231475,-0.47201076480438314,-1.9772009212909358,0.6418735410114088
1780773230083356416,2.631662368774414,0.10173282027244568,-0.02218046970665455,0.0833856463432312,-0.8176541924476624,0.4557630121707916,0.35174107551574707,0.0013547539710998535,-0.014387279748916626,0.01076197624206543,-0.44540223026955816,-0.1341258846382735,0.8110985041797372,-0.35460732737272754,-0.4732292425701158,-1.9770489549930281,0.6426639563141965
1780773230093391360,2.641697406768799,0.05252585932612419,-0.013376724906265736,0.07869049906730652,-0.8172163367271423,0.4566992521286011,0.35154399275779724,0.0024275779724121094,-0.022846132516860962,0.0015749633312225342,-0.4451264386088555,-0.13400782857374252,0.8110572755103879,-0.3550921243015374,-0.47428135888396417,-1.9770399746455325,0.6431149725535421
1780773230103426560,2.6517324447631836,0.004478439223021269,-0.00380745530128479,0.07441958785057068,-0.8168427348136902,0.4574069082736969,0.35149261355400085,0.004479944705963135,-0.011422961950302124,0.010659486055374146,-0.444940533904819,-0.13377712500096015,0.8110795242105677,-0.3553613610582193,-0.47507699448169943,-1.9771529043685698,0.6430550246317673
1780773230113461248,2.6617672443389893,-0.034999459981918335,0.016144681721925735,0.06664342433214188,-0.8165450096130371,0.45793890953063965,0.35149145126342773,0.0032820701599121094,-0.007484227418899536,0.029230564832687378,-0.4448563534687704,-0.13344175184787757,0.8111344102281735,-0.3554674358048186,-0.4756753374702964,-1.9772840991662586,0.6425903936084338
1780773230123496192,2.671802282333374,-0.06477919220924377,0.030822694301605225,0.058801740407943726,-0.8163478374481201,0.45826882123947144,0.35151979327201843,0.0011621713638305664,-0.0041976869106292725,0.04147031903266907,-0.4448842160800626,-0.1330246652905781,0.8112116435797486,-0.3554127702365344,-0.4760464614081197,-1.9774010639600017,0.6417712302431098
1780773230133531392,2.681837320327759,-0.04648860543966293,0.03217983990907669,0.04460469260811806,-0.816224992275238,0.4584791660308838,0.3515307307243347,-0.0021802783012390137,0.014665424823760986,0.051911622285842896,-0.44496139489157066,-0.13262939971417342,0.8112797324518806,-0.35530844839273035,-0.4762831434458353,-1.9774670302444146,0.640933910624331
1780773230143566336,2.6918723583221436,-0.0013107401318848133,0.0428742952644825,0.04299987480044365,-0.8161592483520508,0.4587535858154297,0.35132497549057007,-0.010958671569824219,0.03431892395019531,0.03823196887969971,-0.44505274299042447,-0.13233651364579668,0.8112641580961311,-0.35533866295811206,-0.4765919602231869,-1.9772836435454142,0.6405087792109031
1780773230153601536,2.7019073963165283,0.04932207614183426,0.07554955780506134,0.031243348494172096,-0.8161914944648743,0.4591353237628937,0.3507504165172577,-0.029480934143066406,0.03929296135902405,0.025516003370285034,-0.4452055642103905,-0.13213460922871537,0.8111199957063867,-0.35555124080367734,-0.47702161096533247,-1.9766752068745665,0.6405790564559238
1780773230163636480,2.711942434310913,0.08243396133184433,0.10616818070411682,0.027451006695628166,-0.8163883686065674,0.45960214734077454,0.34967952966690063,-0.04277294874191284,0.022148311138153076,0.028967231512069702,-0.4454855323988318,-0.13201202880802326,0.8108098322797656,-0.35595340786506513,-0.47754717803806607,-1.9754798782480598,0.6411703490831058
1780773230173671168,2.7219772338867188,0.09454282373189926,0.11110794544219971,0.01657705381512642,-0.816675066947937,0.4600852131843567,0.34837234020233154,-0.04053306579589844,0.012372612953186035,0.02700909972190857,-0.4458360470240239,-0.13192630998213578,0.8104206456393602,-0.3564323205656747,-0.4780911709714705,-1.973999404959858,0.6419920574470166
1780773230183706368,2.7320122718811035,0.08695494383573532,0.1102227121591568,0.011594015173614025,-0.8169992566108704,0.4605155289173126,0.3470407724380493,-0.030992567539215088,0.011515021324157715,0.013676941394805908,-0.4461952244452598,-0.1318928279372648,0.810015224426553,-0.3569163962909588,-0.4785758904433541,-1.972476274467717,0.6429213572948819
1780773230193741312,2.7420473098754883,0.04360932856798172,0.11436325311660767,0.017131257802248,-0.8173332214355469,0.46086934208869934,0.3457832634449005,-0.025852322578430176,0.0030436813831329346,0.013973265886306763,-0.4465913821450457,-0.13178251282122247,0.8096449813792512,-0.3573018007127477,-0.47897453480734326,-1.9710249847568924,0.6435702687320384
1780773230203776256,2.752082347869873,-0.016540292650461197,0.09954862296581268,0.008124714717268944,-0.8176386952400208,0.4610331654548645,0.344841331243515,-0.015643775463104248,-0.003025352954864502,0.0013196468353271484,-0.44699600609510076,-0.13155424711910044,0.8093912158375688,-0.35745483419714486,-0.4791591239892726,-1.969913267245439,0.6436274922746296
1780773230213811456,2.762117385864258,-0.06318528950214386,0.07399466633796692,-0.0037540490739047527,-0.8179267644882202,0.4609030485153198,0.3443320691585541,-0.005849599838256836,-0.005199223756790161,-0.005541175603866577,-0.44736565193519334,-0.13130556024305867,0.8092742911155542,-0.35734870327720064,-0.47901249874420576,-1.969258363347276,0.6431985507843947
1780773230223846400,2.7721524238586426,-0.08143060654401779,0.06783397495746613,-0.009963741526007652,-0.8182023763656616,0.4605925679206848,0.3440918028354645,-0.002827167510986328,0.00922548770904541,-0.0057434141635894775,-0.44770778902140207,-0.1310538652868127,0.8092408736660607,-0.35708789452700446,-0.4786626800319469,-1.9688884339397783,0.6424922641951423
1780773230233881600,2.7821874618530273,-0.07865665853023529,0.07575714588165283,-0.014999247156083584,-0.81850665807724,0.4602220356464386,0.3438643515110016,-0.0026603341102600098,0.0248701274394989,-0.0091627836227417,-0.44807589194193537,-0.13079133686259264,0.8092130793280229,-0.3567854636257337,-0.4782452798011527,-1.9685194179557255,0.6417109934235987
1780773230243916288,2.792222261428833,-0.03986026346683502,0.07442982494831085,-0.030386727303266525,-0.8188693523406982,0.4598160982131958,0.3435441255569458,-0.0012754201889038086,0.03238674998283386,-0.016868680715560913,-0.44845985773331354,-0.13061098168111618,0.8091432720702111,-0.35652750284485213,-0.47778809155328406,-1.9680287364032312,0.641158057511557
1780773230253951232,2.8022572994232178,0.007657188456505537,0.06366240233182907,-0.044758740812540054,-0.8192940354347229,0.4594495892524719,0.3430212736129761,0.00459665060043335,0.03232598304748535,-0.018375247716903687,-0.44882626932474423,-0.13061350997873356,0.8089813063179317,-0.35643291371958713,-0.47737539847415256,-1.967300954890988,0.6411927648049278
1780773230263986432,2.8122923374176025,0.012788833118975163,0.05956725403666496,-0.04844482243061066,-0.8197199702262878,0.45911434292793274,0.34245240688323975,0.013338685035705566,0.027641087770462036,-0.02372637391090393,-0.4491512272232246,-0.13072056377670302,0.8087881898230577,-0.35642269908683033,-0.4769979954061164,-1.9665251112403352,0.6415320260439265
1780773230274021376,2.8223273754119873,-0.0004540011868812144,0.0384778156876564,-0.024259058758616447,-0.8201024532318115,0.45878860354423523,0.3419724404811859,0.016010046005249023,0.02058151364326477,-0.0364609956741333,-0.4494412706069333,-0.13081624239209053,0.808624347492365,-0.35639357256456106,-0.4766313703462298,-1.9658607686722542,0.6418014846366117
1780773230284056320,2.832362413406372,-0.03347613289952278,0.651042640209198,0.0740526020526886,-0.8209920525550842,0.4579659700393677,0.3409387171268463,0.02875572443008423,0.0015982389450073242,-0.026439785957336426,-0.45017516060909796,-0.13089245544226605,0.808292348429448,-0.3561923076818642,-0.4757057700974187,-1.9644023487097688,0.6419760091980758
1780773230294091520,2.842397451400757,-0.17457865178585052,1.2912514209747314,-0.7313871383666992,-0.8208803534507751,0.4575054347515106,0.34182536602020264,0.1381104588508606,0.020659297704696655,-0.02183327078819275,-0.44997662816566664,-0.13099797180806133,0.8085494462464974,-0.35582084557404553,-0.47518779518227783,-1.9653714017198505,0.6414428397392605
1780773230304126208,2.8524322509765625,-0.1886124461889267,0.3554307520389557,-0.5819848775863647,-0.8210492730140686,0.4570175111293793,0.34207165241241455,-0.02396714687347412,-0.01106417179107666,-0.04545608162879944,-0.4501581980690271,-0.13084295009288538,0.8086506974282553,-0.35541771816088574,-0.47463915215742775,-1.9655540153327085,0.6405899670271251
1780773230314161408,2.8624672889709473,-0.14824852347373962,-0.09660636633634567,-0.07547057420015335,-0.8217321634292603,0.456110417842865,0.34164220094680786,-0.062133073806762695,-0.025766849517822266,-0.014234334230422974,-0.4508372763881862,-0.13057815416137797,0.8085607234092513,-0.3548585714310377,-0.4736195724997425,-1.9648134323710622,0.639537221329485
1780773230324196352,2.872502326965332,-0.11692894250154495,0.08640925586223602,-0.05070557817816734,-0.8222699761390686,0.4550771415233612,0.3417261838912964,0.001240372657775879,-0.010176658630371094,-0.009984880685806274,-0.4513002834403152,-0.1304625250675995,0.8086053585573514,-0.3542103011047036,-0.472458849081923,-1.964668667854936,0.6384914290411544
1780773230334231296,2.882537364959717,-0.06944265216588974,0.07217053323984146,-0.026782136410474777,-0.8226876854896545,0.4544380307197571,0.34157124161720276,-0.015645384788513184,0.013838917016983032,-0.02307465672492981,-0.4517252390552425,-0.1302607516816922,0.8085899798838196,-0.35377767811397337,-0.47174124052654953,-1.964328078441457,0.6376324573618737
1780773230344266496,2.8925724029541016,-0.001000215532258153,0.037172071635723114,-0.049028586596250534,-0.8230661749839783,0.45396384596824646,0.3412899374961853,0.015052318572998047,0.03173863887786865,-0.019817739725112915,-0.45204242553593343,-0.13025708530725513,0.8085035937333319,-0.3535712787126509,-0.47120897890032487,-1.963873624860816,0.6374445674151478
1780773230354301440,2.9026074409484863,0.044724393635988235,0.0072806160897016525,-0.041153352707624435,-0.8233722448348999,0.4536505937576294,0.3409683406352997,0.017174124717712402,0.023049235343933105,-0.02088475227355957,-0.4522147438555548,-0.13046286851334857,0.8083709615650037,-0.3535784175330003,-0.4708574403232122,-1.9634087335617685,0.6379075246917216
1780773230364336128,2.912642240524292,0.045387256890535355,-0.005907091312110424,-0.03342592343688011,-0.8235421776771545,0.45350614190101624,0.34074968099594116,0.016825318336486816,0.010376274585723877,-0.009542375802993774,-0.4522550166996542,-0.1307107322812144,0.8082632857277652,-0.3536813497086091,-0.4706953533216982,-1.9631091087364052,0.6385367437592427
1780773230374371328,2.9226772785186768,0.038297656923532486,-0.014456769451498985,-0.031696200370788574,-0.8236597776412964,0.45338284969329834,0.340629518032074,0.006399095058441162,-0.009138524532318115,-0.009513884782791138,-0.452245533798506,-0.13096231735977057,0.8081853969073867,-0.35377842008755794,-0.47055704581045593,-1.9629341115925552,0.6391376894707911
1780773230384406272,2.9327123165130615,-0.019224759191274643,-0.0022576279006898403,-0.019111167639493942,-0.8237547874450684,0.45320925116539,0.3406306803226471,-0.00626218318939209,-0.03858223557472229,-0.015694767236709595,-0.4522500578054076,-0.1311212596619192,0.8081599809169655,-0.3537718101478866,-0.47036227006219355,-1.9628945535860804,0.6394099969804399
1780773230394441472,2.9427473545074463,-0.10380435734987259,0.006225738674402237,-0.012814388610422611,-0.8238532543182373,0.45285141468048096,0.3408682644367218,-0.00518721342086792,-0.054215580224990845,-0.0076164305210113525,-0.4523437659543955,-0.13104272462858013,0.8082462080761859,-0.3534839617661974,-0.46996089954564035,-1.9630985974118484,0.6388413181601018
1780773230404476416,2.952782392501831,-0.17846181988716125,-0.020622653886675835,-0.010057484731078148,-0.8238860368728638,0.45227357745170593,0.3415558338165283,0.01018059253692627,-0.05215761065483093,-0.0010101795196533203,-0.45243375502177635,-0.13077923228308638,0.808501518727591,-0.3528821249524921,-0.46931290861015534,-1.9637968967604735,0.6374244534531338
1780773230414511360,2.962817430496216,-0.21502462029457092,-0.060308411717414856,-0.010291842743754387,-0.8237848877906799,0.451516330242157,0.34279921650886536,0.022896945476531982,-0.031167268753051758,0.0033311545848846436,-0.45241310201830026,-0.13043546355420838,0.8089414063196312,-0.35202658288631544,-0.4684640335145609,-1.9651276130834363,0.6353925205395023
1780773230424546304,2.9728522300720215,-0.1885639876127243,-0.10014690458774567,0.06361301243305206,-0.823504626750946,0.4508640766143799,0.344327837228775,0.014865100383758545,-0.013318300247192383,-0.0056591033935546875,-0.4522344782992322,-0.13008554437941675,0.8094699971613258,-0.3511695391105037,-0.467733153503095,-1.9668293759975284,0.6332710256277044
1780773230434581248,2.9828872680664062,-0.1266268491744995,0.3157321810722351,0.6431522965431213,-0.8236452341079712,0.45013687014579773,0.34494268894195557,0.000357210636138916,-0.010851532220840454,-0.01887759566307068,-0.4524689830661161,-0.1296928744030704,0.8097228515907924,-0.35042909209245665,-0.4669186227929814,-1.9674038615918505,0.631476394397984
1780773230444616192,2.992922306060791,-0.1055668368935585,0.8915725946426392,0.6768130660057068,-0.823069155216217,0.4496828615665436,0.34690427780151367,0.14072662591934204,0.03479897975921631,-0.002009868621826172,-0.4519284561172626,-0.1295744820122705,0.8103472050674767,-0.34972641263738796,-0.4664102319119307,-1.9696787251547103,0.6298421436715356
1780773230454651392,3.002957344055176,-0.09744872152805328,0.3670210838317871,0.11494490504264832,-0.8227083086967468,0.44925543665885925,0.3483108878135681,0.07302886247634888,0.04149770736694336,-0.019514471292495728,-0.45157112986444653,-0.12951595354627238,0.8107903903636372,-0.3491819660373751,-0.46593176032913536,-1.9712864165002228,0.6286675891417921
1780773230464686336,3.0129923820495605,-0.04768622666597366,-0.10696832835674286,-0.032957207411527634,-0.8224579691886902,0.4492133557796478,0.3489556610584259,-0.03220200538635254,0.020803093910217285,-0.008089691400527954,-0.4514043178940547,-0.1293433824430763,0.8110167203259235,-0.3489358852258222,-0.4658846575066944,-1.9720602511770748,0.6278757086897846
1780773230474721536,3.0230274200439453,-0.04983939602971077,0.02381804585456848,-0.0043878816068172455,-0.8225340843200684,0.4489005208015442,0.34917956590652466,-0.02381002902984619,0.005750447511672974,0.006243497133255005,-0.4514504706669875,-0.12933580174844955,0.811086941220652,-0.34871596759731494,-0.46553453680139983,-1.9722576443856081,0.6275260647258488
1780773230484756480,3.03306245803833,-0.0868152529001236,0.057831406593322754,-0.0038238242268562317,-0.8226838707923889,0.4486595690250397,0.34913620352745056,-0.020974695682525635,0.017465978860855103,0.03463760018348694,-0.4516715501604107,-0.12909942386611317,0.8111112421268444,-0.34846062267225075,-0.4652649269987864,-1.972147514264517,0.6268009884885067
1780773230494791168,3.0430972576141357,-0.12520605325698853,0.1215258315205574,-0.07232964783906937,-0.82302325963974,0.44811171293258667,0.349039763212204,0.00924152135848999,0.01351243257522583,0.07765698432922363,-0.45206066155856467,-0.1288233729655444,0.8111254066104655,-0.34802489980985285,-0.4646519932095198,-1.9718998976294522,0.6257957066486206
1780773230504826368,3.0531322956085205,-0.15975870192050934,0.2309013158082962,-0.18497470021247864,-0.8234727382659912,0.4473399221897125,0.34896984696388245,0.01551973819732666,0.009340435266494751,0.08939996361732483,-0.45254357972443976,-0.1285230848068206,0.811151487595066,-0.34744713186084986,-0.4637888512956219,-1.9716316832755652,0.6245634909765327
1780773230514861312,3.0631673336029053,-0.1498304307460785,0.27265143394470215,-0.3360220193862915,-0.8240076899528503,0.4464993476867676,0.3487837016582489,0.008318424224853516,0.0394931435585022,0.08729735016822815,-0.4531094638521335,-0.12820349860405583,0.8111446959878031,-0.34684304852104475,-0.4628492301156454,-1.9712068983789828,0.623296661463203
1780773230524896256,3.07320237159729,-0.07723160088062286,0.23274236917495728,-0.48258456587791443,-0.8246557712554932,0.4458217918872833,0.3481180965900421,-0.018117785453796387,0.06496626138687134,0.07099512219429016,-0.45374862027669427,-0.12800094500021136,0.8109715229903821,-0.3464870636133747,-0.4620921150817243,-1.9702398984669265,0.6226779346151374
1780773230534931456,3.083237409591675,-0.009307947009801865,0.10175598412752151,-0.5873665809631348,-0.8254489898681641,0.4452556073665619,0.34696075320243835,-0.059377849102020264,0.06902667880058289,0.056359559297561646,-0.4544399454576669,-0.1280272303476966,0.8106105134083983,-0.34641605172738055,-0.46145971180293044,-1.9687045824174116,0.6229534856509514
1780773230544966400,3.0932724475860596,0.060378190129995346,-0.06689481437206268,-0.5916252732276917,-0.8264339566230774,0.4447438716888428,0.34526780247688293,-0.10258209705352783,0.06663918495178223,0.04314470291137695,-0.4552388514445294,-0.1282478076880527,0.8100533325269195,-0.3465886897507706,-0.460888279694607,-1.966535933644483,0.6240221097178498
1780773230555001344,3.1033072471618652,0.11396419256925583,-0.26380640268325806,-0.4652827978134155,-0.8276119232177734,0.4442868232727051,0.3430272936820984,-0.12714576721191406,0.060656994581222534,0.0248163640499115,-0.45618497852560275,-0.1285771875095826,0.8093093039951983,-0.3469605431871271,-0.4603780505760208,-1.9637214634390607,0.6256803451097468
1780773230565036288,3.11334228515625,0.14315350353717804,-0.46007606387138367,-0.2141946405172348,-0.8289104700088501,0.4438101649284363,0.34050002694129944,-0.12996721267700195,0.037253767251968384,0.024352937936782837,-0.45723339130073026,-0.12894587748882988,0.8084695268987007,-0.34740139124694186,-0.45984605079302565,-1.9605613148005203,0.6275711612036904
1780773230575071232,3.1233773231506348,0.1233811303973198,-0.6197617053985596,0.12482549995183945,-0.8302943706512451,0.4431266486644745,0.33800941705703735,-0.11112725734710693,-0.0022238492965698242,0.02055683732032776,-0.45835651846835856,-0.12929880790519044,0.8076425781747761,-0.3477135533907403,-0.45908344430540876,-1.9574048470282417,0.629260011135618
1780773230585106432,3.1334123611450195,0.07796917110681534,-0.6896800994873047,0.516077995300293,-0.8317221403121948,0.4420073926448822,0.33595797419548035,-0.06782925128936768,-0.027014106512069702,0.008906006813049316,-0.4595087745359991,-0.1295949693189032,0.8069598117633745,-0.3476675202388885,-0.457835298679518,-1.9546865115056689,0.6302743652587344
1780773230595141376,3.1434473991394043,0.04163059964776039,-0.5944863557815552,0.8084733486175537,-0.8331860899925232,0.4403737187385559,0.3344726264476776,-0.011891424655914307,-0.022389709949493408,-0.01286303997039795,-0.4606459234188754,-0.12989888721911547,0.8064506116891506,-0.3472305035313322,-0.45601488417573094,-1.9525418104261802,0.6306507262721923
1780773230605176576,3.153482437133789,0.028854884207248688,-0.3754037618637085,0.9305406808853149,-0.8344874382019043,0.4384463429450989,0.3337599039077759,0.045287489891052246,0.0010221004486083984,-0.02936229109764099,-0.46155567057916597,-0.13030088135774132,0.8061647671808142,-0.34653497608776096,-0.453869284351769,-1.9512664608563444,0.6306612864432147
1780773230615211264,3.1635172367095947,0.00919223390519619,-0.11302381753921509,0.9264695048332214,-0.8356939554214478,0.43638521432876587,0.333442360162735,0.0723576545715332,0.018174201250076294,-0.04788932204246521,-0.4623233922707034,-0.1307937131691856,0.8059864704857831,-0.3457397945884598,-0.4515772327671505,-1.9504408265226045,0.6305974137002046
1780773230625246208,3.1735522747039795,-0.0010255154920741916,0.15898798406124115,0.8010865449905396,-0.8368624448776245,0.43423834443092346,0.33331403136253357,0.09047877788543701,0.03590017557144165,-0.05262863636016846,-0.46301538122251107,-0.1313651759352549,0.8058537084546277,-0.34490537101564317,-0.4491925768469622,-1.9498277788776834,0.6305699902948715
1780773230635281408,3.1835873126983643,-0.030610572546720505,0.4065917730331421,0.5881228446960449,-0.8379639983177185,0.4321248233318329,0.3332938551902771,0.09681391716003418,0.03014025092124939,-0.04838177561759949,-0.46363635335071124,-0.13196526040237883,0.8057494002072678,-0.34408503266872115,-0.4468476278058679,-1.9493550363520091,0.6305814779242513
1780773230645316352,3.193622350692749,-0.08776413649320602,0.5773225426673889,0.3114483654499054,-0.8389338254928589,0.4300543963909149,0.3335319757461548,0.09924864768981934,0.008635878562927246,-0.0348258912563324,-0.46415807674378246,-0.13251220316281043,0.8057335216162106,-0.34320751700263186,-0.4445530150275034,-1.949203104764771,0.6303598403389877
1780773230655351296,3.203657388687134,-0.10975571721792221,0.6803978085517883,0.01462735515087843,-0.8397335410118103,0.4280807077884674,0.33405786752700806,0.0882686972618103,8.091330528259277e-05,-0.03114032745361328,-0.46454229958238064,-0.13301751809585677,0.8058134247692021,-0.34230333473097635,-0.4423679963106577,-1.949416924850376,0.6299580552092935
1780773230665386496,3.2136924266815186,-0.11081299930810928,0.72810298204422,-0.28975704312324524,-0.8404052257537842,0.42633765935897827,0.33459699153900146,0.059979259967803955,0.00013020634651184082,-0.03346481919288635,-0.4648316425214669,-0.1335076880608305,0.805899618442482,-0.3415157708809371,-0.44044016413974363,-1.9496962249268672,0.6296758877801266
1780773230675421184,3.223727226257324,-0.07788540422916412,0.7174770832061768,-0.5536150336265564,-0.8411027789115906,0.42480820417404175,0.33478936553001404,0.025947868824005127,0.008953332901000977,-0.03345873951911926,-0.4651626127868546,-0.13401320852141474,0.8058753868639514,-0.3409237163794875,-0.43875000242240497,-1.9496086383199105,0.629757890881854
1780773230685456384,3.233762264251709,-0.03684822842478752,0.6409208178520203,-0.7462169528007507,-0.8418768048286438,0.42357295751571655,0.33440908789634705,0.0006597638130187988,0.026134103536605835,-0.03497052192687988,-0.4655840845240464,-0.13455315171952145,0.8056674235974622,-0.3406272481334687,-0.43738594613313053,-1.9489026198588844,0.6304202819049105
1780773230695491328,3.2437973022460938,0.0012054144171997905,0.49635669589042664,-0.8539863228797913,-0.8427073359489441,0.42261451482772827,0.33352893590927124,-0.008977293968200684,0.034172654151916504,-0.025682896375656128,-0.46609277071696165,-0.13508422810812776,0.8053053603767111,-0.340577696445404,-0.4363281897737279,-1.9476617689604332,0.6315058770626522
1780773230705527296,3.253833293914795,0.02724180743098259,0.29000937938690186,-0.8783259987831116,-0.8435367941856384,0.4218413233757019,0.33240869641304016,-0.007232189178466797,0.03302311897277832,-0.012676030397415161,-0.4666069071552345,-0.1356448932259106,0.8048632236018876,-0.34069578667187417,-0.43547523490068807,-1.9461762627245742,0.6329152879659434
1780773230715562240,3.2638683319091797,0.020099475979804993,0.04440255090594292,-0.8323811292648315,-0.8442738652229309,0.4210487902164459,0.3315413296222687,-0.004496276378631592,0.03032141923904419,-0.0024855434894561768,-0.4669980248840001,-0.1362784960288001,0.8044866911916134,-0.34079641975916575,-0.4346012916745132,-1.9449886648476682,0.6343653334020776
1780773230725597440,3.2739033699035645,0.0019993027672171593,-0.1479130983352661,-0.7242687940597534,-0.8449629545211792,0.42005640268325806,0.3310447037220001,-0.02001214027404785,0.02597332000732422,0.0033212006092071533,-0.4673035836034945,-0.13696058291760227,0.804216477945638,-0.3407420490342498,-0.43350746664626544,-1.9442017138945331,0.6356084648245546
1780773230735632384,3.283938407897949,-0.019900137558579445,-0.2608732283115387,-0.5704017281532288,-0.8457497358322144,0.41877996921539307,0.3306518495082855,-0.04457002878189087,0.020718902349472046,0.005422919988632202,-0.467688910455773,-0.13762666572714694,0.8039806138515985,-0.34050130385685196,-0.43210138091927813,-1.9434828572164498,0.6365581692974356
1780773230745667584,3.293973445892334,-0.026941802352666855,-0.3410756289958954,-0.40625277161598206,-0.8467041254043579,0.4171934425830841,0.3302147388458252,-0.05950009822845459,0.016324013471603394,0.007080793380737305,-0.4682279329600854,-0.1382630380899154,0.8037354676574581,-0.34008122402297636,-0.4303549903264578,-1.9426525365998752,0.6372359893928771
1780773230755702272,3.3040082454681396,-0.005372593179345131,-0.3791433870792389,-0.2501952648162842,-0.8478049039840698,0.4152846336364746,0.3297959864139557,-0.056201934814453125,0.028990209102630615,0.015159457921981812,-0.4688424712005614,-0.13900573999556906,0.803477068108181,-0.33954188338538394,-0.42825568299351763,-1.9417840112740143,0.6379397132107235
1780773230765737216,3.3140432834625244,0.03439931944012642,-0.36250317096710205,-0.11639031022787094,-0.849026083946228,0.41315120458602905,0.3293340802192688,-0.04558145999908447,0.055278390645980835,0.020138025283813477,-0.46948804842055064,-0.1399228700401653,0.8031740935756233,-0.33898965960031097,-0.4259116895806926,-1.940825121530788,0.6389388180620179
1780773230775772416,3.324078321456909,0.0648118257522583,-0.28971657156944275,-0.025495830923318863,-0.8503926992416382,0.41080930829048157,0.32873713970184326,-0.03628033399581909,0.07393190264701843,0.02548038959503174,-0.470189624735849,-0.1410224529252029,0.8027958847901472,-0.3384570759897915,-0.4233415542892768,-1.9396726248554135,0.6403100296390207
1780773230785807360,3.334113359451294,0.1071893721818924,-0.18526099622249603,0.02062266319990158,-0.8519083857536316,0.4083254635334015,0.3279058635234833,-0.03197211027145386,0.07261624932289124,0.03229305148124695,-0.47097098191693904,-0.14227500453009106,0.8023158663144496,-0.3379842508582674,-0.42061886846038576,-1.9382245238779985,0.6420759522935584
1780773230795842304,3.3441483974456787,0.12804831564426422,-0.05626360699534416,0.021120939403772354,-0.8535779714584351,0.40575382113456726,0.326754093170166,-0.02818155288696289,0.050773829221725464,0.028775662183761597,-0.47184663303710367,-0.14367240478223645,0.8017077311199924,-0.3376146271613761,-0.41780345774865635,-1.9363922872834844,0.6442970104881236
1780773230805877504,3.3541834354400635,0.11144191026687622,0.0773615688085556,-0.008341610431671143,-0.8553652167320251,0.40310901403427124,0.32535189390182495,-0.015225112438201904,0.02267235517501831,0.04037091135978699,-0.472851527603703,-0.14505150127097907,0.8010218509647347,-0.3372471358900974,-0.41491156678636026,-1.9342631577836005,0.6465413461945648
1780773230815912192,3.364218235015869,0.06476015597581863,0.16575667262077332,-0.07004331797361374,-0.8572027087211609,0.4003382921218872,0.32393330335617065,0.004053354263305664,0.0038059651851654053,0.04441389441490173,-0.4739385022359663,-0.1463560911180618,0.8003415217012091,-0.33677239473723375,-0.41188597883114403,-1.932103371593636,0.648514096249198
1780773230825947392,3.374253273010254,0.020474182441830635,0.2199850231409073,-0.13802264630794525,-0.858974039554596,0.3974907100200653,0.32274550199508667,0.016902565956115723,-0.012206286191940308,0.041588544845581055,-0.4750044104426485,-0.14756025683750482,0.7997491653218808,-0.33615180334438716,-0.40878060861763243,-1.9302100999588847,0.6500640228786301
1780773230835982336,3.3842883110046387,-0.007571032736450434,0.24360673129558563,-0.23556171357631683,-0.860677182674408,0.3945227861404419,0.32184839248657227,0.01311260461807251,-0.028662830591201782,0.026433438062667847,-0.4760211593529753,-0.1487168513701604,0.7992543368822261,-0.3353797932519988,-0.4055484388062592,-1.9286442484605633,0.651263100906199
1780773230846017280,3.3943233489990234,-0.029453961178660393,0.2799760699272156,-0.28371113538742065,-0.862413227558136,0.3915192186832428,0.3208675980567932,-0.009458661079406738,-0.03807994723320007,0.017114609479904175,-0.4771036311644199,-0.14981454279572107,0.7987423899768179,-0.33457179651618174,-0.40228204377204346,-1.926985079187232,0.6523268249399514
1780773230856052480,3.404358386993408,-0.015611914917826653,0.28830525279045105,-0.3331173062324524,-0.8641660809516907,0.38860294222831726,0.319694846868515,-0.011535823345184326,-0.010932683944702148,0.01302298903465271,-0.4782647837198209,-0.15080641169280634,0.7981884809099412,-0.3337894206086546,-0.3991148898214864,-1.925128824328571,0.6532778594483183
1780773230866087424,3.414393424987793,0.04892153665423393,0.25484395027160645,-0.3526982069015503,-0.8659295439720154,0.38587260246276855,0.3182264268398285,-0.008963525295257568,0.008505970239639282,0.0006516873836517334,-0.47942959369527394,-0.15187476799718103,0.7975257180777143,-0.3332175506727009,-0.3961535076117573,-1.9229727771994294,0.6546934252775197
1780773230876122368,3.4244284629821777,0.07587698847055435,0.21999181807041168,-0.34608450531959534,-0.8676703572273254,0.38335391879081726,0.3165249526500702,-0.0071007609367370605,-0.010001838207244873,-0.019375205039978027,-0.4805610269410278,-0.1530290935800045,0.7967713454959918,-0.3328643435260752,-0.39342490521281365,-1.9205934730298277,0.6565863603865477
1780773230886157312,3.4344632625579834,0.07707781344652176,0.19436635076999664,-0.2970482409000397,-0.8693678379058838,0.3810395896434784,0.31465619802474976,-0.004960775375366211,-0.040463417768478394,-0.03313148021697998,-0.48170642095429855,-0.15410242227275978,0.7959777278619836,-0.3326122209407376,-0.3909204507423456,-1.9180654142084899,0.6585010392734814
1780773230896192256,3.444498300552368,0.050746869295835495,0.15783444046974182,-0.2587927281856537,-0.870974063873291,0.37885281443595886,0.31284913420677185,0.01625305414199829,-0.04744720458984375,-0.027525097131729126,-0.4828251212763981,-0.1550561406279066,0.795224598089335,-0.33234812447361906,-0.3885563858431573,-1.915638684783377,0.6601747136428047
1780773230906227456,3.454533338546753,0.03832029178738594,0.1260746419429779,-0.23773032426834106,-0.8723538517951965,0.3768260180950165,0.31144922971725464,0.037881314754486084,-0.04250603914260864,-0.025865823030471802,-0.4837685736938245,-0.15590747251490678,0.7946178204964454,-0.33202898442083084,-0.3863673300952043,-1.913712794825409,0.6615092312049139
1780773230916262400,3.4645683765411377,0.01706773415207863,0.10878220945596695,-0.22200728952884674,-0.8735752105712891,0.37490516901016235,0.31034204363822937,0.03359425067901611,-0.05459272861480713,-0.035073548555374146,-0.48457319898235846,-0.15672474052894816,0.7941085410722779,-0.33168916329022285,-0.3842944895371298,-1.9121450404098816,0.6626930281916418
1780773230926297344,3.4746034145355225,-0.033863358199596405,0.1109127402305603,-0.19226591289043427,-0.8746863603591919,0.37307384610176086,0.309418261051178,0.02249830961227417,-0.06716570258140564,-0.03489735722541809,-0.4853581554221409,-0.15733768118063698,0.7936964016776373,-0.3312375549510202,-0.3823198774347003,-1.9108059113392768,0.6633381977065412
1780773230936332544,3.4846384525299072,-0.03696247935295105,0.09743195027112961,-0.17085330188274384,-0.875697672367096,0.37136393785476685,0.3086131513118744,0.021602392196655273,-0.062480390071868896,-0.04028743505477905,-0.48611746715585136,-0.15779013238233802,0.793352917819372,-0.33073114055517444,-0.38047759400348174,-1.9096252089290995,0.6636092430353324
1780773230946367232,3.494673252105713,-0.04352317377924919,0.049923017621040344,-0.1567625105381012,-0.8765308260917664,0.369822233915329,0.308099627494812,0.028294742107391357,-0.04946395754814148,-0.03820204734802246,-0.486715518290241,-0.15821212307416263,0.7931070137890659,-0.33023968763153927,-0.37881768255608256,-1.9088058455514516,0.6637868841325643
1780773230956402176,3.5047082901000977,-0.026040054857730865,0.01949174329638481,-0.1438315361738205,-0.877193808555603,0.36839112639427185,0.30792728066444397,0.024807333946228027,-0.031156599521636963,-0.028721928596496582,-0.4871257726350871,-0.15867541649389194,0.7929601171828625,-0.3297649386021285,-0.37727783405753096,-1.9083944663295929,0.663987001693218
1780773230966437376,3.5147433280944824,-0.04112713038921356,0.018966302275657654,-0.12874366343021393,-0.8777517080307007,0.3670905828475952,0.30789056420326233,0.011769652366638184,-0.029810309410095215,-0.02406179904937744,-0.4874496230438682,-0.15910441346991133,0.79286257431772,-0.32931391843029534,-0.3758793072804534,-1.908158553973765,0.6641320701644862
1780773230976472320,3.524778366088867,-0.07397215813398361,0.02333415113389492,-0.10934465378522873,-0.8782597780227661,0.3658640384674072,0.3079010248184204,-0.005101919174194336,-0.04405626654624939,-0.0032288432121276855,-0.48777673463343546,-0.15941406427288612,0.7928036792694734,-0.32882099146814053,-0.37456104223165615,-1.9079884951430433,0.6640079873838944
1780773230986507520,3.534813404083252,-0.11478909850120544,0.021255552768707275,-0.10092959553003311,-0.878720760345459,0.364632248878479,0.30804699659347534,-0.003313422203063965,-0.04906526207923889,0.008694857358932495,-0.48812196091331,-0.1595609214461787,0.7928201604473911,-0.3281971489413891,-0.3732378345161351,-1.9079726267994621,0.6634057662308188
1780773230996542464,3.5448484420776367,-0.11061406135559082,0.014502044767141342,-0.09175101667642593,-0.8791271448135376,0.3634386360645294,0.30829790234565735,-0.0028154850006103516,-0.04701715707778931,0.0034695565700531006,-0.4884446296599791,-0.15963047392028787,0.7928852773268242,-0.3275252718010774,-0.3719562846258388,-1.9080824776234542,0.6625875668999521
1780773231006577152,3.5548832416534424,-0.08874471485614777,0.016516726464033127,-0.09327540546655655,-0.8795111775398254,0.3623031973838806,0.30853909254074097,-0.002004265785217285,-0.028273075819015503,-0.00408056378364563,-0.4887381353556884,-0.159724599852102,0.7929423695532362,-0.3269028319233234,-0.3707378016285534,-1.90819031480085,0.6618792210581572
1780773231016612352,3.564918279647827,-0.03950872644782066,0.025060677900910378,-0.09319311380386353,-0.8799111843109131,0.3612920939922333,0.3085838258266449,-0.0012379288673400879,0.0071160197257995605,-0.0074974894523620605,-0.48902249313286716,-0.15990485636656107,0.7929201378497128,-0.32644285257144867,-0.36965320125578044,-1.9080935779932302,0.6615715183420692
1780773231026647296,3.574953317642212,0.018207034096121788,0.035271771252155304,-0.09963077306747437,-0.8803496360778809,0.360409677028656,0.30836620926856995,-0.0011354684829711914,0.027758687734603882,-0.006181091070175171,-0.4893012172749672,-0.16022095178966422,0.7927877081671795,-0.32619217675923196,-0.3687070559854711,-1.9077178774663919,0.6618238569935427
1780773231036682240,3.5849883556365967,0.054454255849123,0.0442170612514019,-0.10720933228731155,-0.8808498382568359,0.3596131503582001,0.30786654353141785,-0.003549516201019287,0.03371262550354004,-0.001180201768875122,-0.4895987296246549,-0.16066849026681193,0.7925395343774294,-0.32612841364311324,-0.3678532695333707,-1.9070352971751634,0.6626020441728846
