time,seconds_elapsed,rotationRateX,rotationRateY,rotationRateZ,gravityX,gravityY,gravityZ,accelerationX,accelerationY,accelerationZ,quaternionW,quaternionX,quaternionY,quaternionZ,pitch,roll,yaw
1781516519094628096,0.024029016494750977,0.021087167784571648,-0.1297820657491684,-0.03907262161374092,-0.8863256573677063,-0.45833688974380493,0.06598544865846634,-0.036220669746398926,0.07868295907974243,0.0017330572009086609,0.40143766353857807,-0.3278121376653999,-0.6523280820237765,-0.5530416177610753,0.47612304953402385,-1.645107551225059,-1.374474021793422
1781516519104662272,0.034063100814819336,-0.021051498129963875,-0.13623197376728058,-0.01679927483201027,-0.8860873579978943,-0.4586257338523865,0.06716890633106232,0.009637773036956787,-0.036079466342926025,-0.0027004480361938477,0.4009055020116205,-0.32808260754171814,-0.6526455823640336,-0.552892716587463,0.47644807867197236,-1.6464555613094163,-1.3744698861755558
1781516519114695936,0.044096946716308594,-0.0271591916680336,-0.10510589182376862,-0.010035643354058266,-0.8859631419181824,-0.45872753858566284,0.06810548901557922,-0.03714781999588013,-0.032193511724472046,-0.020040273666381836,0.4004598340626203,-0.3284186373345303,-0.6528353100191258,-0.5527921512573066,0.4765626312745571,-1.6475171372983548,-1.3747091934827258
1781516519124730112,0.05413103103637695,0.07290375977754593,-0.13027700781822205,-0.027229011058807373,-0.8858286142349243,-0.458812952041626,0.06926818937063217,-0.04773449897766113,0.013988792896270752,-0.024926193058490753,0.4000532547132617,-0.32869235953629167,-0.6531427310642156,-0.5525605748050519,0.4766587699396896,-1.6488334546212329,-1.3745246519500023
1781516519134765056,0.06416606903076172,0.05989767983555794,-0.15030623972415924,-0.012656459584832191,-0.8856263756752014,-0.4589703679084778,0.07079751789569855,-0.033456265926361084,-0.010664641857147217,-0.03587007522583008,0.3996376851353254,-0.3288776079569516,-0.6536346671673812,-0.5521694060666242,0.4768359360197172,-1.6505673042004936,-1.3737942033366237
1781516519144798976,0.07419991493225098,0.05660947412252426,-0.12191375344991684,7.371589890681207e-05,-0.8854917883872986,-0.45899876952171326,0.0722821056842804,-0.04305142164230347,0.0044851601123809814,-0.01596187800168991,0.39926847848249536,-0.3291074578349574,-0.654086641939202,-0.5517642284047264,0.4768678960102107,-1.6522450761363816,-1.3731112709037803
1781516519154833152,0.08423399925231934,0.010611889883875847,-0.1288963109254837,-0.00015584858192596585,-0.8854089975357056,-0.45895352959632874,0.07357005774974823,-0.048169493675231934,0.025909125804901123,0.0191422700881958,0.3989235766468733,-0.32938662423969095,-0.6544382953964069,-0.5514299266672429,0.4768170065037991,-1.6536974985593424,-1.37269183916505
1781516519164867072,0.0942680835723877,-0.06775721907615662,-0.12291724234819412,-0.017126843333244324,-0.8852685689926147,-0.4590657651424408,0.07455448806285858,-0.029221296310424805,0.00839737057685852,0.0354766920208931,0.3984359591136345,-0.3297571241751304,-0.6546277431097438,-0.5513361996227709,0.4769433077998272,-1.6548148703669503,-1.3730021600714846
1781516519174900992,0.10430192947387695,-0.06601870805025101,-0.11125032603740692,-0.02926260232925415,-0.8850765228271484,-0.459322988986969,0.07524801790714264,-0.024164319038391113,-0.0007142722606658936,0.05623698979616165,0.39786848573273303,-0.3301522141446252,-0.6546934570888026,-0.5514315998580752,0.4772328896127897,-1.655611021969575,-1.3738124060705088
1781516519184935168,0.11433601379394531,-0.03335477039217949,-0.11658304184675217,-0.0393834114074707,-0.8848230838775635,-0.45968255400657654,0.07602916657924652,-0.025272250175476074,-0.0031470954418182373,0.03508532792329788,0.3973143691594465,-0.3304443807327802,-0.6548443274748971,-0.5514769808787421,0.4776377034480639,-1.6565116271753788,-1.3743287433964684
1781516519194969088,0.12437009811401367,0.014410623349249363,-0.13633571565151215,-0.025301149114966393,-0.8845736980438232,-0.45998305082321167,0.07710372656583786,-0.016518831253051758,-0.01314622163772583,-0.014084935188293457,0.39678958551573357,-0.3307075192390018,-0.6551216668397141,-0.5513675442126761,0.47797610930303097,-1.657741415206583,-1.3744162017880024
1781516519205004032,0.13440489768981934,0.05354098230600357,-0.15392695367336273,-0.018680797889828682,-0.8843560218811035,-0.4601585268974304,0.07854010164737701,-0.004697322845458984,-0.01060563325881958,-0.04198002815246582,0.39631141067444825,-0.33096095209463117,-0.6555416833292321,-0.5510600981977263,0.47817374241603916,-1.6593744314827177,-1.3740024871085903
1781516519215037952,0.1444389820098877,0.08494364470243454,-0.18519392609596252,-0.006332251708954573,-0.8841636776924133,-0.4602125883102417,0.0803677886724472,0.01125413179397583,-0.0038682222366333008,-0.0554196834564209,0.3958371584203556,-0.3312478092708945,-0.656093577359726,-0.5505715939406982,0.4782346386271971,-1.6614441758044824,-1.3731963078139648
1781516519225072128,0.15447306632995605,0.0775240808725357,-0.20389729738235474,0.0129261314868927,-0.8840275406837463,-0.4600967466831207,0.08249985426664352,0.018701672554016113,-0.012132227420806885,-0.05918443948030472,0.39533991870601154,-0.331646293647345,-0.6567043950552209,-0.5499603703607174,0.47810416098619957,-1.663849529991944,-1.372271267695164
1781516519235106048,0.1645069122314453,0.052301544696092606,-0.19328367710113525,0.019989632070064545,-0.8839324116706848,-0.459902822971344,0.08457639813423157,0.011282086372375488,-0.008542031049728394,-0.030819647014141083,0.3948344182267986,-0.332118031046966,-0.6572562756565016,-0.5493793774179522,0.4778857635944972,-1.666187904257738,-1.371545982748573
1781516519245139968,0.17454099655151367,0.05187064781785011,-0.1782839596271515,0.025727679952979088,-0.8838794231414795,-0.4596598148345947,0.08642955124378204,0.007338285446166992,0.009525537490844727,-0.002353675663471222,0.39436988707778514,-0.33260530663015186,-0.6577145917698416,-0.5488694061598618,0.4776120938624199,-1.6682707601144096,-1.3710319461898566
1781516519255174144,0.18457508087158203,0.06646876037120819,-0.19975462555885315,0.01762075163424015,-0.8838196396827698,-0.4594081938266754,0.08835648745298386,0.01580822467803955,0.008037984371185303,-0.00797320157289505,0.3939210267275372,-0.3330687126230808,-0.6582123324333009,-0.5483137366388738,0.47732879825296126,-1.670436433168609,-1.3703696153837661
1781516519265209088,0.1946101188659668,0.06611137092113495,-0.22087563574314117,0.024805959314107895,-0.8837122321128845,-0.45919203758239746,0.09052819758653641,0.008727490901947021,-0.02185654640197754,-0.026380300521850586,0.39337848974928386,-0.3335828393449534,-0.6587765844346798,-0.5477127453698311,0.47708546053759965,-1.6728810365811555,-1.3696692482102253
1781516519275243008,0.20464396476745605,0.12284176051616669,-0.22241760790348053,0.040816616266965866,-0.8836665749549866,-0.45880624651908875,0.09289836138486862,-0.007156729698181152,-0.017634153366088867,-0.021655090153217316,0.3928959174365164,-0.33412132660538213,-0.6594028522512122,-0.5469767538755888,0.4766512334729417,-1.675539883833307,-1.36869002276207
1781516519285277184,0.21467804908752441,0.15733927488327026,-0.2513373792171478,0.061626825481653214,-0.8836691975593567,-0.4582314193248749,0.09566866606473923,-0.00486522912979126,-0.02046722173690796,-0.04276646673679352,0.3924853384525796,-0.3346541386720592,-0.6601825056411859,-0.5460043982389544,0.4760043951914804,-1.678639287610223,-1.36713552596857
1781516519295310848,0.22471189498901367,0.12357812374830246,-0.25864070653915405,0.0861944854259491,-0.883759617805481,-0.45743370056152344,0.09860697388648987,-0.003538966178894043,-0.014123916625976562,-0.01978003978729248,0.39207884307742646,-0.33531974826598193,-0.6609569990270306,-0.5449501807485074,0.4751071297386783,-1.681913428295972,-1.3656135651449277
1781516519305345024,0.23474597930908203,0.04978885501623154,-0.2585184574127197,0.09008243680000305,-0.8839145302772522,-0.45654502511024475,0.10129932314157486,-0.000912010669708252,0.011949747800827026,0.02141176164150238,0.3916142069785445,-0.33615504031462723,-0.6615507910351722,-0.5440483280348994,0.47410800926580604,-1.684901585930343,-1.3647530616255141
1781516519315379200,0.2447800636291504,-0.010784478858113289,-0.25749555230140686,0.09838750213384628,-0.8840732574462891,-0.45570191740989685,0.10368286073207855,-0.004537522792816162,0.02335941791534424,0.024429909884929657,0.3910383008297096,-0.33713430450816734,-0.6619530871963022,-0.5433668756164615,0.4731606011512564,-1.6875416104233925,-1.3646670118000486
1781516519325412864,0.25481390953063965,-0.04405934363603592,-0.2406473308801651,0.10372687131166458,-0.8842721581459045,-0.4548378884792328,0.10576005280017853,-0.019261717796325684,0.015796780586242676,0.019743435084819794,0.3904328029636429,-0.338209363731086,-0.6621891374537433,-0.5428463724028845,0.47219016860651486,-1.6898321420428544,-1.3651393275758261
1781516519335448064,0.2648489475250244,-0.022315433248877525,-0.2377929538488388,0.10275188833475113,-0.8844935894012451,-0.4539520740509033,0.10769657790660858,-0.019467532634735107,-0.0026367008686065674,0.01528918743133545,0.38986687368450407,-0.3392725114147835,-0.6623763666785236,-0.542361052942143,0.47119575731022195,-1.6919606137746062,-1.3656889718886853
1781516519345481984,0.2748830318450928,-0.014325151219964027,-0.26077258586883545,0.10009458661079407,-0.8846789598464966,-0.4530774652957916,0.10983502119779587,-0.020823240280151367,-0.0235917866230011,-0.009737387299537659,0.3892837957684685,-0.34031659303394357,-0.6626478165015998,-0.5417937932708884,0.470214456986761,-1.6943166850580076,-1.3660094579200155
1781516519355516160,0.28491711616516113,0.018310556188225746,-0.28512972593307495,0.10902123898267746,-0.8848528861999512,-0.4521435499191284,0.11225605010986328,-0.026020407676696777,-0.033574193716049194,-0.020627036690711975,0.3886683981019886,-0.34140028696954855,-0.6630036712135116,-0.5411180772033748,0.46916709668883844,-1.6969863012398156,-1.3661359503768746
1781516519365550080,0.2949509620666504,0.023473359644412994,-0.3231639266014099,0.09349607676267624,-0.8849688768386841,-0.451212078332901,0.11505435407161713,-0.024729490280151367,-0.03774052858352661,-0.029193170368671417,0.38798331669527925,-0.3425073618059216,-0.6634876661419519,-0.5403162806061936,0.4681230858872065,-1.700080659676644,-1.3659939559828966
1781516519375584000,0.30498504638671875,-0.01723438873887062,-0.3522019684314728,0.09152054041624069,-0.8849921822547913,-0.4503869116306305,0.11806806176900864,-0.028383493423461914,-0.02045348286628723,-0.003016851842403412,0.3871130043571243,-0.34372610693287553,-0.6639927671517439,-0.5395454776831791,0.46719862850035465,-1.7034245769478245,-1.3661000046516203
1781516519385618176,0.3150191307067871,-0.04171469807624817,-0.36715319752693176,0.08851543068885803,-0.8849634528160095,-0.4496322274208069,0.12112339586019516,-0.05381840467453003,-0.009733647108078003,0.03454674780368805,0.38609190941169413,-0.34506900914099403,-0.6644464428011707,-0.5388612973731111,0.46635356868561284,-1.7068194009396653,-1.366616439488921
1781516519395653120,0.3250539302825928,-0.08050230890512466,-0.3897208273410797,0.08921930193901062,-0.8848952651023865,-0.4489165246486664,0.12423491477966309,-0.08358001708984375,-0.03574839234352112,0.030504457652568817,0.38498007340946233,-0.34648325338499203,-0.6648810524848913,-0.5382126650800766,0.4655524332993948,-1.7102797063609403,-1.3673383725510087
1781516519405687040,0.33508801460266113,-0.14178431034088135,-0.3998573422431946,0.1141883060336113,-0.8848536610603333,-0.4481528103351593,0.12725111842155457,-0.0943332314491272,-0.03332298994064331,0.04653118550777435,0.3837407943825468,-0.34810484874992426,-0.665168078488327,-0.5376963240385276,0.4646979463939697,-1.7136274036870591,-1.368730530453432
1781516519415721216,0.3451220989227295,-0.1916237622499466,-0.43154391646385193,0.11734015494585037,-0.884850025177002,-0.4473285675048828,0.13014502823352814,-0.07108265161514282,-0.005720198154449463,0.07404805719852448,0.38238285567177543,-0.34993794680875595,-0.6652938805098715,-0.5373182688062611,0.4637761578924371,-1.7168307314281062,-1.3708177990572707
1781516519425755136,0.35515594482421875,-0.2545470595359802,-0.48304441571235657,0.1196504458785057,-0.8847752809524536,-0.4465688169002533,0.13322502374649048,-0.05908757448196411,-0.019678741693496704,0.0570216178894043,0.3808020839807811,-0.35196770821141204,-0.6653805262957536,-0.5370076737398313,0.46292686190169124,-1.7202485559927794,-1.373391406229487
1781516519435789056,0.3651900291442871,-0.35327497124671936,-0.5125373005867004,0.12873981893062592,-0.8846474885940552,-0.4458949565887451,0.13629671931266785,-0.08158493041992188,-0.04231005907058716,0.05636073648929596,0.3789244972637434,-0.35430208321928436,-0.6652957178942139,-0.5369059318771706,0.4621738690656652,-1.7236633035605173,-1.3769731211490694
1781516519445822208,0.37522315979003906,-0.377471923828125,-0.53551185131073,0.14908050000667572,-0.8845505714416504,-0.445171982049942,0.13925674557685852,-0.08772432804107666,-0.03168049454689026,0.04509998857975006,0.3769059883319492,-0.3568659775173928,-0.6650376277118868,-0.5369484402807877,0.4613663192117945,-1.726946884785029,-1.381304299690758
1781516519455856128,0.3852570056915283,-0.40645909309387207,-0.5719445943832397,0.1570950299501419,-0.8844587206840515,-0.44435030221939087,0.1424281895160675,-0.06645375490188599,-0.025467783212661743,0.018719911575317383,0.37477181834227913,-0.3596128953237058,-0.6647500724915378,-0.5369656195239537,0.4604489127928777,-1.7304599061634278,-1.3859054730286102
1781516519465891072,0.3952920436859131,-0.43880292773246765,-0.619448184967041,0.17799577116966248,-0.8843497633934021,-0.443460613489151,0.1458367556333542,-0.0511360764503479,-0.024770587682724,0.015906453132629395,0.37247430636286394,-0.36257470080372955,-0.6644230293019149,-0.5369772730114422,0.4594560264278355,-1.7342338234770482,-1.390879258881849
1781516519475925248,0.40532612800598145,-0.4917178153991699,-0.6566493511199951,0.19709010422229767,-0.884235143661499,-0.44249171018600464,0.14943049848079681,-0.04031026363372803,-0.014860033988952637,0.018294110894203186,0.37000653987957804,-0.3657766037361388,-0.6640201236889118,-0.5370102222012136,0.4583753135177328,-1.7382086509638395,-1.3963403329965474
1781516519485959168,0.4153599739074707,-0.5479267835617065,-0.6873092651367188,0.21343418955802917,-0.8841283917427063,-0.4414481520652771,0.15310359001159668,-0.03461867570877075,-0.017643094062805176,0.025485292077064514,0.3673681836480744,-0.3692323746424845,-0.6634901998781939,-0.5371116333966353,0.4572119620160317,-1.7422648013165838,-1.4024334550465007
1781516519495993088,0.42539405822753906,-0.5987529754638672,-0.7280448079109192,0.22180956602096558,-0.8839935660362244,-0.4404118061065674,0.15682251751422882,-0.023645222187042236,-0.03398403525352478,0.02359752357006073,0.3645305787987227,-0.3729208359722002,-0.66282826320913,-0.5373140741217254,0.4560573148692129,-1.7463719769421924,-1.40920302128195
1781516519506027264,0.4354281425476074,-0.6504198908805847,-0.7789689898490906,0.23261667788028717,-0.8837845325469971,-0.43939825892448425,0.16079294681549072,-0.02289283275604248,-0.035348474979400635,0.010898962616920471,0.3614590844098183,-0.37683952342661275,-0.6621090908169376,-0.5375416283576798,0.4549286919450884,-1.7507646636173693,-1.4164684351896428
1781516519516061184,0.4454619884490967,-0.7003349661827087,-0.7775142192840576,0.2608243525028229,-0.8835962414741516,-0.43832090497016907,0.16472023725509644,-0.03820258378982544,-0.027072221040725708,0.022871389985084534,0.35825333994142616,-0.38097655929945196,-0.6612238494003309,-0.5378610774392983,0.45372969550560316,-1.7551009997298153,-1.4243882975499045
1781516519526096128,0.45549702644348145,-0.7600917816162109,-0.7791603207588196,0.28576380014419556,-0.8834989666938782,-0.4371151328086853,0.16840417683124542,-0.014801204204559326,-0.002734750509262085,0.019935011863708496,0.35501418145272645,-0.3852858448443376,-0.660118859117442,-0.5382962402716642,0.45238862572617067,-1.7591474393899422,-1.4329539733235646
1781516519536130304,0.4655311107635498,-0.795878529548645,-0.8127260804176331,0.27118536829948425,-0.8833690285682678,-0.4359613060951233,0.1720379739999771,0.03064674139022827,0.026583224534988403,0.007115498185157776,0.3516256673367437,-0.38974336635337575,-0.6588771454492124,-0.5388325132251391,0.4511061682722234,-1.763140769552071,-1.4420815480639158
1781516519546163968,0.47556495666503906,-0.8522858619689941,-0.8333777785301208,0.2614344656467438,-0.8830916881561279,-0.4350358545780182,0.1757635474205017,0.037129223346710205,0.015175044536590576,-0.005231395363807678,0.34800833262539776,-0.39429153208395484,-0.6575834278784518,-0.5394519461741785,0.4500780832086445,-1.7672609965476926,-1.4516228201451957
1781516519556198144,0.4855990409851074,-0.9296251535415649,-0.8477463722229004,0.2730882167816162,-0.8827544450759888,-0.43426042795181274,0.17933860421180725,0.01246953010559082,0.0010024011135101318,-0.009111538529396057,0.34419001168910945,-0.3989891432835683,-0.656107434222322,-0.5402442773600316,0.4492170741539262,-1.7712265446177766,-1.461912402990962
1781516519566232320,0.4956331253051758,-1.0546022653579712,-0.8656643629074097,0.28994014859199524,-0.882422685623169,-0.43357905745506287,0.1825907826423645,-0.0004813075065612793,0.020584702491760254,-0.00561930239200592,0.3401396182299915,-0.4039362599066067,-0.6543171146962289,-0.5413036567138741,0.4484607910899948,-1.7748366539957596,-1.4733720720536363
1781516519576265984,0.505666971206665,-1.146209955215454,-0.9000171422958374,0.30702248215675354,-0.8821026682853699,-0.43294787406921387,0.1856086701154709,0.011543214321136475,0.05463677644729614,0.007414892315864563,0.33581990957572805,-0.4091904792749293,-0.6522020281967904,-0.5426052481478555,0.4477604705449208,-1.7781870857339002,-1.4860668432642261
1781516519586300160,0.5157010555267334,-1.261144757270813,-0.9220196604728699,0.27066871523857117,-0.8816450238227844,-0.43264806270599365,0.18846115469932556,0.007087588310241699,0.06547588109970093,0.017776578664779663,0.3311378109732264,-0.41463884830683,-0.6498501369208143,-0.5441664382535011,0.44742791086398254,-1.7813877484294973,-1.4998432175661711
1781516519596335104,0.5257360935211182,-1.302484154701233,-0.9510830640792847,0.24088498950004578,-0.8809671401977539,-0.4328506290912628,0.19114741683006287,0.0008401870727539062,0.06889799237251282,0.004226088523864746,0.32608616941560425,-0.4201554018047925,-0.6473354216825495,-0.5459799800628908,0.4476526022722871,-1.7844589985905952,-1.5144686746043832
1781516519606369024,0.5357699394226074,-1.2669310569763184,-0.9702463746070862,0.2112051248550415,-0.8800935745239258,-0.43333542346954346,0.19405120611190796,0.002179086208343506,0.09515488147735596,-0.047338008880615234,0.32087306654391684,-0.42560193933027407,-0.6448942517734723,-0.5477361752187698,0.44819045462534707,-1.7878132981176877,-1.528956810056168
1781516519616403200,0.5458040237426758,-1.216233491897583,-1.0043236017227173,0.1652296483516693,-0.87897789478302,-0.4341106116771698,0.19734801352024078,0.009516716003417969,0.12644758820533752,-0.0733245313167572,0.3518250905909745,-0.38663949090864913,-0.6702118430425702,-0.5268256336092502,0.4490507733525713,-1.7916537523251366,-1.4080904453042948
1781516519626437120,0.5558381080627441,-1.1639162302017212,-1.039297342300415,0.12413627654314041,-0.8775556087493896,-0.43522390723228455,0.2011881321668625,0.010444283485412598,0.11025744676589966,-0.12045380473136902,0.346456135700308,-0.39189887360552006,-0.6685875688246613,-0.5285586299113532,0.4502869728162745,-1.7961614915233886,-1.4213134862167605
1781516519636471040,0.5658719539642334,-1.2323768138885498,-1.099701166152954,0.13051535189151764,-0.8759415149688721,-0.4365122616291046,0.2053857445716858,0.010386824607849121,0.09228929877281189,-0.1208977997303009,0.3408654861882246,-0.39722044922793204,-0.6670148298797643,-0.5302054184609539,0.45171845718155923,-1.8011099961546284,-1.4345560908040562
1781516519646505216,0.5759060382843018,-1.4353591203689575,-1.140628457069397,0.0550815723836422,-0.8740257024765015,-0.4384252727031708,0.2094331532716751,0.00746387243270874,0.08597776293754578,-0.04468405246734619,0.33472425589896354,-0.4027617117411941,-0.6652064185646613,-0.5322058547845071,0.4538458269590723,-1.8059810054548637,-1.4491303505766169
1781516519656540160,0.5859410762786865,-1.598202109336853,-1.1603118181228638,0.00674200477078557,-0.8717010021209717,-0.4414616525173187,0.21271803975105286,-0.02768254280090332,0.08693894743919373,-0.008906364440917969,0.3277994014543419,-0.4085187853709016,-0.6629264058440516,-0.5349659262760083,0.4572270012883604,-1.8101448956311434,-1.4660133610261021
1781516519666574336,0.5959751605987549,-1.806440830230713,-1.1458839178085327,-0.04200875759124756,-0.8691546320915222,-0.445217490196228,0.21529503166675568,-0.037202298641204834,0.09324294328689575,0.01817968487739563,0.3204522791671275,-0.41430978987804656,-0.6602991093803607,-0.5382034489008538,0.4614171293507533,-1.8136150028171476,-1.4842835605090814
1781516519676608000,0.6060090065002441,-1.9726897478103638,-1.1572571992874146,-0.1251411885023117,-0.8663075566291809,-0.45005422830581665,0.21670876443386078,-0.014078915119171143,0.13608932495117188,0.055889517068862915,0.3124394818974543,-0.4201939817956066,-0.6571083634145254,-0.5422428420673086,0.46682606940183613,-1.815918261661106,-1.5048814761961815
1781516519686642176,0.6160430908203125,-1.950272560119629,-1.232193946838379,-0.2049310952425003,-0.862942636013031,-0.45576968789100647,0.21818287670612335,0.008694708347320557,0.16687506437301636,0.02693423628807068,0.3038998736927156,-0.4259357728257318,-0.6539649516106584,-0.5464003335881019,0.4732367372463465,-1.8184422912964,-1.525785182920187
1781516519696676096,0.6260769367218018,-1.8742393255233765,-1.260616421699524,-0.27645987272262573,-0.8590889573097229,-0.46203312277793884,0.22020842134952545,-0.0070151686668396,0.22832950949668884,0.012289762496948242,0.2950391238700965,-0.43146472755385434,-0.6511085906257745,-0.5503160906467671,0.4802863165795765,-1.8217216722350338,-1.5460089186146027
1781516519706710016,0.6361110210418701,-1.7986865043640137,-1.235588550567627,-0.3474094271659851,-0.8548698425292969,-0.468764066696167,0.22239097952842712,-0.036182403564453125,0.2436511516571045,0.006307721138000488,0.28613166631393805,-0.436572752778042,-0.6485366019934495,-0.5540154899489353,0.4878910738788504,-1.825301149633917,-1.5652013627452819
1781516519716744192,0.6461451053619385,-1.7089989185333252,-1.216630458831787,-0.45036962628364563,-0.8502418398857117,-0.4760811924934387,0.22457845509052277,-0.037056684494018555,0.20865565538406372,-0.03222620487213135,0.27720659166049055,-0.4411581463087395,-0.6462729461855808,-0.5575547334284344,0.49619308252587624,-1.8290334523963836,-1.5832773933146702
1781516519726779136,0.6561801433563232,-1.6939728260040283,-1.25601065158844,-0.5254819393157959,-0.8451043963432312,-0.4840586185455322,0.22690464556217194,-0.018268346786499023,0.13617351651191711,-0.08870579302310944,0.26808389338951444,-0.44535695825371874,-0.6442899224360196,-0.5609622679980801,0.5052870253397601,-1.8331030614083024,-1.6005629112522188
1781516519736813056,0.6662139892578125,-1.7340734004974365,-1.3153682947158813,-0.5889477133750916,-0.8394013047218323,-0.49274227023124695,0.229370579123497,-0.010925352573394775,0.07263723015785217,-0.12225386500358582,0.2584902385003017,-0.4494403260931566,-0.6424085021607532,-0.5643559689445715,0.5152383521943907,-1.8375394739546107,-1.6179175178710044
1781516519746847232,0.6762480735778809,-1.7136328220367432,-1.3736432790756226,-0.6065512299537659,-0.8333113193511963,-0.501715898513794,0.23210668563842773,-0.004029989242553711,0.08106160163879395,-0.13257360458374023,0.24855874740765105,-0.4535503451034284,-0.6405821008257147,-0.5675960039317792,0.5255812273287339,-1.8424463816691923,-1.63528516042042
1781516519756881152,0.6862821578979492,-1.590482473373413,-1.3879830837249756,-0.6616544127464294,-0.8268682956695557,-0.5108847618103027,0.23512907326221466,-0.011861562728881836,0.11853551864624023,-0.13925814628601074,0.23852066228383595,-0.4574951993494147,-0.6389543648178094,-0.5705641108063563,0.5362136656169755,-1.8478443581342294,-1.651953942879676
1781516519766915072,0.6963160037994385,-1.3681728839874268,-1.3945646286010742,-0.7196282744407654,-0.819989800453186,-0.5201265215873718,0.2389257401227951,-0.009417116641998291,0.10420238971710205,-0.15994617342948914,0.22865086333035506,-0.4610252369420438,-0.6379017155541571,-0.5729363361845424,0.5469990627592939,-1.8543229802056798,-1.666483364810113
1781516519776949248,0.7063500881195068,-1.164149522781372,-1.436181664466858,-0.766882598400116,-0.8126453757286072,-0.5292797088623047,0.24386470019817352,-0.0009378194808959961,0.10351383686065674,-0.15910226106643677,0.21905553596397145,-0.4641310163241814,-0.6375850933165257,-0.5745277545280375,0.5577514095452659,-1.8623333715650612,-1.6782571848527745
1781516519786984192,0.7163851261138916,-0.9690993428230286,-1.4395095109939575,-0.7748667597770691,-0.8049558997154236,-0.53817218542099,0.24983321130275726,0.0022826194763183594,0.10601282119750977,-0.17439378798007965,0.2097515519366012,-0.4669507400918492,-0.6378664553141021,-0.5754021678759658,0.5682669677786718,-1.871738452378351,-1.6876463346829353
1781516519797018112,0.7264189720153809,-0.8315558433532715,-1.4764461517333984,-0.7941914200782776,-0.7970020174980164,-0.5467575192451477,0.2566010355949402,0.007908880710601807,0.04668116569519043,-0.17128917574882507,0.20068470461745075,-0.4696057999341316,-0.6385694295262809,-0.5756953855080147,0.5784867650647716,-1.8822742391454284,-1.6952192005046203
1781516519807052032,0.7364530563354492,-0.8445704579353333,-1.5068608522415161,-0.8202640414237976,-0.7886372208595276,-0.5553328990936279,0.2639252841472626,-0.007535755634307861,-0.031459033489227295,-0.12717607617378235,0.1916127333508836,-0.4721467047222551,-0.6395624532880534,-0.575605659321262,0.5887632044704184,-1.893740340292165,-1.7016226730417865
1781516519817086208,0.7464871406555176,-0.9339125752449036,-1.4875308275222778,-0.8582838773727417,-0.7799109816551208,-0.5643020272254944,0.2707439064979553,-0.0243799090385437,-0.03707742691040039,-0.07791849970817566,0.18227217693341077,-0.47462178841773683,-0.6403952820787705,-0.5756778280316068,0.5995875757331671,-1.9049274316137295,-1.7085204651161683
1781516519827120128,0.7565209865570068,-0.9950174689292908,-1.4585918188095093,-0.9036515951156616,-0.7708353996276855,-0.5738356709480286,0.27663296461105347,-0.015511155128479004,0.03603959083557129,-0.057821840047836304,0.17267007649091742,-0.4769070348443496,-0.640996222759624,-0.576080477011169,0.6111817405517856,-1.9153549349456362,-1.7161455685777522
1781516519837154048,0.7665550708770752,-0.9846367239952087,-1.4215304851531982,-0.9485945701599121,-0.7614212036132812,-0.5837450623512268,0.2819211184978485,-0.00327301025390625,0.0883074402809143,-0.0335080623626709,0.16297373748441976,-0.47892773923186904,-0.6415518529418649,-0.5766099221264948,0.6233335610634835,-1.9254018151104315,-1.7237456087989824
1781516519847189248,0.77659010887146,-0.8840821385383606,-1.4324859380722046,-0.9875667691230774,-0.7516223788261414,-0.5937912464141846,0.28718581795692444,-0.006327390670776367,0.05056309700012207,-0.03274551033973694,0.15331683016757314,-0.4806718722588769,-0.642298574380695,-0.5769757426967552,0.6357625116023947,-1.9357665162907567,-1.7304217379295255
1781516519857222912,0.7866239547729492,-0.738417387008667,-1.4356849193572998,-1.0163637399673462,-0.7414124011993408,-0.6036762595176697,0.2930575907230377,-0.03159785270690918,0.0025562644004821777,-0.06522858142852783,0.1438073798029887,-0.4822075140327312,-0.6434319800354308,-0.5768801189540814,0.6481043664476283,-1.9472179230151478,-1.7353928468171742
1781516519867257088,0.7966580390930176,-0.5556401014328003,-1.396937608718872,-0.9974345564842224,-0.7310456037521362,-0.6130276322364807,0.29961585998535156,-0.055880725383758545,-0.04944801330566406,-0.08162876963615417,0.13475072349861084,-0.48350640449827825,-0.6450034755544652,-0.5762242652979667,0.6598870671470313,-1.9597613988870808,-1.7381786331887819
1781516519877291264,0.8066921234130859,-0.4684194028377533,-1.394199252128601,-0.9871422648429871,-0.7206771969795227,-0.6217813491821289,0.30661487579345703,-0.04824376106262207,-0.08285433053970337,-0.09151169657707214,0.1261573607651087,-0.4846400934674529,-0.6468627545087495,-0.5751321634282489,0.6710150953084582,-1.973051320060737,-1.7392470375487419
1781516519887324928,0.8167259693145752,-0.4275236427783966,-1.4379171133041382,-0.9685643315315247,-0.7101300954818726,-0.6302023530006409,0.31394267082214355,-0.030241549015045166,-0.07020652294158936,-0.09354475140571594,0.11763931802559027,-0.48582085199079367,-0.6488061671996666,-0.5737504388821484,0.6818138368609435,-1.987054360899208,-1.7395740215434878
1781516519897359104,0.8267600536346436,-0.4317074716091156,-1.4292207956314087,-0.973408043384552,-0.6993884444236755,-0.6384020447731018,0.3214007616043091,-0.019361495971679688,-0.009180903434753418,-0.09587588906288147,0.1091404460248407,-0.4870318181668157,-0.6507690801973396,-0.5721782045094145,0.6924203847454822,-2.001559838760959,-1.7394197840275065
1781516519907393280,0.8367941379547119,-0.4737907350063324,-1.420303463935852,-0.9994505643844604,-0.6884018182754517,-0.6467394232749939,0.3283761143684387,0.002275228500366211,0.06634092330932617,-0.08559349179267883,0.10056352714286541,-0.4881196484350563,-0.6526310326999012,-0.5707003286576293,0.7033016632325203,-2.0158851968174347,-1.7393093624958986
1781516519917427968,0.8468289375305176,-0.4610925316810608,-1.4709649085998535,-1.0097907781600952,-0.6770185828208923,-0.6552221179008484,0.33515650033950806,0.027802884578704834,0.06478327512741089,-0.028927922248840332,0.09177893043006517,-0.4891815609758608,-0.6544307881154222,-0.5692085865242594,0.7144766208448866,-2.030474263247434,-1.7391680924041806
1781516519927462144,0.8568630218505859,-0.4533139765262604,-1.4627224206924438,-1.0617607831954956,-0.6651895642280579,-0.6637017130851746,0.3420865535736084,-0.029390692710876465,-0.06875079870223999,0.023331016302108765,0.08288835250371412,-0.4901852284152667,-0.6563244027381366,-0.5675265366651354,0.7257568285454442,-2.045794098347176,-1.7383387783923288
1781516519937496064,0.8668971061706543,-0.39579394459724426,-1.4017961025238037,-1.0666937828063965,-0.6530532240867615,-0.6722700595855713,0.3486756682395935,-0.1118088960647583,-0.145463764667511,-0.037350624799728394,0.07406428592069854,-0.49089735968732956,-0.6582990332261525,-0.5658416113168645,0.7372708973291905,-2.0612073154354262,-1.7367781042704098
1781516519947529984,0.8769309520721436,-0.30665794014930725,-1.348026156425476,-1.0392358303070068,-0.6410697102546692,-0.6803419589996338,0.355196475982666,-0.06965416669845581,-0.04687666893005371,-0.06473016738891602,0.06566279627413382,-0.4914471033216917,-0.6603620032407709,-0.5639948358340382,0.7482290906179637,-2.076757708416941,-1.734193604403654
1781516519957564160,0.8869650363922119,-0.23512624204158783,-1.3192485570907593,-1.0656594038009644,-0.629082202911377,-0.6879960894584656,0.361824631690979,0.010445117950439453,0.045173823833465576,-0.073158860206604,0.05762878950726487,-0.4917965924551439,-0.6626072993373008,-0.5619311800740774,0.7587241721082189,-2.0927529081033334,-1.7302960371288902
1781516519967598080,0.8969991207122803,-0.2087167352437973,-1.3461248874664307,-1.1008315086364746,-0.6166617274284363,-0.6955794095993042,0.368642657995224,0.045433759689331055,0.048332154750823975,-0.09406080842018127,0.04959011454187009,-0.4919989768868186,-0.6650250642986258,-0.5596600781228597,0.7692260283051935,-2.109599344027381,-1.7253040461913494
1781516519977633280,0.907034158706665,-0.1996646523475647,-1.3418092727661133,-1.113213062286377,-0.6038719415664673,-0.7031325101852417,0.3754243850708008,0.048635125160217285,0.0579756498336792,-0.06420612335205078,0.04148014134392717,-0.4921150606867985,-0.6674840496975482,-0.5572856206917658,0.7797933885667808,-2.1270157222685584,-1.7197007664584496
1781516519987667200,0.9170680046081543,-0.12664850056171417,-1.3321270942687988,-1.13278067111969,-0.5908393263816833,-0.7104769945144653,0.3822714686393738,0.037448763847351074,0.03451257944107056,-0.04586094617843628,0.03345739169316582,-0.4921189962988235,-0.6700407683589966,-0.554747601825183,0.790175779054718,-2.1450578421931525,-1.7131684000610674
1781516519997701120,0.9271020889282227,-0.12096637487411499,-1.3136663436889648,-1.1612688302993774,-0.5774856805801392,-0.7176576256752014,0.38920167088508606,0.00236666202545166,-0.014062345027923584,-0.05764341354370117,0.02551982282297111,-0.49194724699584963,-0.6727471640693811,-0.5520397985714983,0.8004328665624223,-2.163830490998881,-1.7054947452009361
1781516520007735296,0.937136173248291,-0.12128542363643646,-1.2789297103881836,-1.1484358310699463,-0.5640212297439575,-0.7247940897941589,0.39566871523857117,-0.006749093532562256,-0.00292813777923584,-0.03144139051437378,0.017622022764156062,-0.4916317902577579,-0.6753758564192891,-0.5494134737199143,0.8107354897936521,-2.182537599180191,-1.697577355365119
1781516520017769216,0.9471700191497803,-0.11709227412939072,-1.2485730648040771,-1.158859133720398,-0.550563633441925,-0.7316778898239136,0.40190479159355164,0.019206762313842773,0.0175970196723938,-0.03642624616622925,0.009895223365068116,-0.49120545157713275,-0.6779893787469556,-0.5467630168439728,0.8207801776579435,-2.201366161231696,-1.6891168024264287
1781516520027803136,0.9572041034698486,-0.12674783170223236,-1.2530103921890259,-1.1669836044311523,-0.5368959903717041,-0.7385463714599609,0.4077893793582916,0.042785823345184326,0.04125016927719116,-0.07433897256851196,0.002145479442616173,-0.49064993810808416,-0.6805566268364603,-0.5441514272648422,0.8309117183500836,-2.2203697009721286,-1.6802941051911973
1781516520037838336,0.9672391414642334,-0.10801862180233002,-1.27729332447052,-1.1657836437225342,-0.5230190753936768,-0.7452131509780884,0.4136524796485901,0.06455355882644653,0.034336745738983154,-0.0593433678150177,-0.005641333995470435,-0.4901189763124622,-0.6830883029606533,-0.5414258333913168,0.8408544431312702,-2.239959901808931,-1.6710156793897573
1781516520047872000,0.9772729873657227,-0.13802392780780792,-1.283950924873352,-1.182901382446289,-0.5088307857513428,-0.7518240809440613,0.4193470776081085,0.04687094688415527,0.03678196668624878,-0.05055737495422363,-0.013534685190480842,-0.48954740223179166,-0.6855777753335486,-0.5386495436027674,0.8508241143298844,-2.2600835816354476,-1.66130998717728
1781516520057906176,0.987307071685791,-0.09127532690763474,-1.299699306488037,-1.1554585695266724,-0.49448537826538086,-0.7582376003265381,0.4249234199523926,0.03969720005989075,0.07916051149368286,-0.053860217332839966,-0.021438367181716527,-0.4889771002824466,-0.6880138793864832,-0.5357972370538656,0.8606057111488371,-2.2806789109828354,-1.651183968930562
1781516520067940352,0.9973411560058594,0.006582260597497225,-1.3140101432800293,-1.1501295566558838,-0.48009446263313293,-0.7640413045883179,0.43098708987236023,0.0415416955947876,0.08325529098510742,0.01008334755897522,-0.02914867775270707,-0.48850645911386725,-0.6905468743791364,-0.5325942966898464,0.86955403118565,-2.3023465267661236,-1.6399661034327377
1781516520077974016,1.0073750019073486,0.04354880005121231,-1.272011160850525,-1.1686396598815918,-0.465513676404953,-0.7694144248962402,0.4373767077922821,-0.006516963243484497,0.027989864349365234,0.028916597366333008,-0.0366615727445746,-0.48792926894713917,-0.6932628542610663,-0.5291196108956049,0.8779239357292251,-2.3250413615275307,-1.6273196898046531
1781516520088008192,1.017409086227417,0.02598152495920658,-1.236907720565796,-1.1545532941818237,-0.4509645700454712,-0.7746137380599976,0.4434012770652771,-0.026986539363861084,0.010895967483520508,0.0086708664894104,-0.04402617834810832,-0.4872012031806244,-0.6959422603376116,-0.5257005847992514,0.8861040848301224,-2.3477381137857796,-1.6142171911051306
1781516520098043136,1.0274441242218018,0.019864510744810104,-1.2138785123825073,-1.1497482061386108,-0.43651679158210754,-0.7796386480331421,0.4490174949169159,0.004448920488357544,0.02699887752532959,-0.0048798322677612305,-0.05128001850275308,-0.4864028663493272,-0.6985134207429019,-0.5223615809164227,0.8940885778257931,-2.370310133860648,-1.6009795166774106
1781516520108077056,1.037477970123291,-0.016494562849402428,-1.2221121788024902,-1.1747156381607056,-0.4218771755695343,-0.7846285700798035,0.4542878270149231,0.03479227423667908,0.03215676546096802,-0.024874985218048096,-0.05858330896032357,-0.48550517047784253,-0.701019713280246,-0.5190606862565299,0.9020967471559167,-2.3931691030554902,-1.5873762744329296
1781516520118111232,1.0475120544433594,0.011318426579236984,-1.2261543273925781,-1.178871512413025,-0.4069581627845764,-0.7895541191101074,0.45933595299720764,0.046713411808013916,0.03361845016479492,-0.036621689796447754,-0.06597299976508686,-0.4845348954770034,-0.703486965505669,-0.5157321589770932,0.9100821303101968,-2.4165828737113006,-1.5732527348244971
1781516520128145152,1.0575461387634277,0.03796361759305,-1.2149879932403564,-1.1863701343536377,-0.39192995429039,-0.7941535115242004,0.4644472897052765,0.04134398698806763,0.02428656816482544,-0.0504305362701416,-0.07325517186567579,-0.48351121651696854,-0.7060032260820236,-0.512259796622901,0.9176134449864424,-2.4406721851850355,-1.558267791235705
1781516520138179072,1.067579984664917,0.09226920455694199,-1.2270572185516357,-1.154213786125183,-0.3768576979637146,-0.7983590364456177,0.4696819484233856,0.0380820631980896,0.011158108711242676,-0.03352475166320801,-0.08042269341230851,-0.48250744352611113,-0.708539021860963,-0.5086169669415389,0.9245652379964349,-2.465409554523237,-1.5425773534620242
1781516520148213248,1.0776140689849854,0.08942122012376785,-1.1961442232131958,-1.1440823078155518,-0.36189916729927063,-0.8021511435508728,0.4749552607536316,0.02655676007270813,-0.010974466800689697,0.012028932571411133,-0.08742628897178295,-0.4815510793539371,-0.7110458398149125,-0.5048554422644252,0.9308891223221114,-2.490477971780442,-1.5264707268571893
1781516520158248192,1.0876491069793701,0.07606679946184158,-1.1582034826278687,-1.1466975212097168,-0.34701260924339294,-0.8058445453643799,0.47978806495666504,0.00590243935585022,-0.010256409645080566,0.05362871289253235,-0.0943317649263593,-0.480461087863417,-0.7134782191712149,-0.5012059715008034,0.9371004239146834,-2.515424406593749,-1.5101311941140416
1781516520168282112,1.0976829528808594,0.07418740540742874,-1.0983545780181885,-1.1415544748306274,-0.3322722315788269,-0.8093771934509277,0.4842556416988373,-0.010974198579788208,0.01582866907119751,0.053509801626205444,-0.10106736169016835,-0.47922505929788106,-0.7158709175193056,-0.4976519790263738,0.9430908433273072,-2.5402223012686447,-1.4934631044286408
1781516520178316032,1.1077170372009277,0.05822521448135376,-1.0258251428604126,-1.1206611394882202,-0.31787869334220886,-0.8127810955047607,0.4882010519504547,-0.006141722202301025,0.06595480442047119,0.03137606382369995,-0.10755948346612584,-0.47782245322736233,-0.7181825906007561,-0.4942980102859586,0.9489102342884772,-2.564428757274913,-1.4767455452149167
1781516520188350208,1.117751121520996,0.13305924832820892,-0.9809961318969727,-1.0975899696350098,-0.3038938343524933,-0.815766453742981,0.49211159348487854,0.032882481813430786,0.06642258167266846,-0.011078238487243652,-0.11368721169188167,-0.47635461919067906,-0.7205151449472028,-0.49093736031343327,0.9540531461355815,-2.5883828165332745,-1.4596832947372371
1781516520198384128,1.1277849674224854,0.12616431713104248,-0.9828479290008545,-1.1187822818756104,-0.2899957299232483,-0.8183769583702087,0.4961470067501068,0.07383972406387329,0.04579395055770874,-0.06037116050720215,-0.11961492805482292,-0.4748444975080332,-0.7229081542630975,-0.48746163211099625,0.9585810684418061,-2.6126514609513074,-1.442008296229805
1781516520208418048,1.1378190517425537,0.1282074898481369,-1.036698341369629,-1.1485034227371216,-0.2756105363368988,-0.8210040926933289,0.4999913275241852,0.09801346063613892,0.03409296274185181,-0.03516286611557007,-0.12576461188629753,-0.47325028291901644,-0.7252791453943392,-0.4839293898896866,0.9631674731110731,-2.637805111207184,-1.4236735082301106
1781516520218452224,1.147853136062622,0.199964240193367,-1.0264434814453125,-1.162354588508606,-0.26087942719459534,-0.8232669830322266,0.5041563510894775,0.08502185344696045,-0.02573215961456299,0.00011616945266723633,-0.13193623829782905,-0.47166475650795603,-0.7277434544061753,-0.48011950742499154,0.9671425013012169,-2.664076866610188,-1.4043734075702965
1781516520228486912,1.1578879356384277,0.1568833440542221,-0.982685387134552,-1.210048794746399,-0.24596364796161652,-0.8253529667854309,0.5082269310951233,0.035880595445632935,-0.07744860649108887,-0.00941699743270874,-0.13801595665235775,-0.4698472409870932,-0.7303129664908385,-0.47627537226398275,0.9708271043965325,-2.690855753393715,-1.384081944369081
1781516520238521088,1.167922019958496,0.12124679237604141,-0.9407878518104553,-1.208074688911438,-0.23099404573440552,-0.827501654624939,0.511745035648346,0.015021145343780518,-0.06297075748443604,0.04480409622192383,-0.14409437643532405,-0.467807583023774,-0.7328223308572499,-0.4726144000806123,0.974643281462868,-2.717587513687436,-1.3634528986522614
1781516520248555264,1.1779561042785645,0.07096338272094727,-0.8637551069259644,-1.2194572687149048,-0.21626529097557068,-0.8297340869903564,0.5145586729049683,-0.006238371133804321,-0.010384321212768555,0.04557621479034424,-0.15005868411146836,-0.4655413960837631,-0.7352214315658134,-0.46925796471015796,0.9786310988004304,-2.743715822182528,-1.3428407653875156
1781516520258588928,1.1879899501800537,0.027880359441041946,-0.8103522062301636,-1.204361915588379,-0.20183859765529633,-0.8320211172103882,0.5167225003242493,0.008128270506858826,0.058202147483825684,0.013016819953918457,-0.15587118342635678,-0.4630576657374217,-0.7375220923306314,-0.4662005612473914,0.9827411295629709,-2.769204470959279,-1.3222408875259866
1781516520268623104,1.198024034500122,-0.006481609772890806,-0.7991600036621094,-1.2234327793121338,-0.18755598366260529,-0.8343464732170105,0.5183517336845398,0.05170701444149017,0.12493497133255005,0.006123363971710205,-0.16163880066121042,-0.46043484094912823,-0.7397132109959984,-0.463354049686919,0.986946201706863,-2.7944166653111826,-1.3016010056171008
1781516520278657280,1.2080581188201904,0.030410895124077797,-0.8133823871612549,-1.2366373538970947,-0.17305591702461243,-0.8365277647972107,0.5198780298233032,0.06938768923282623,0.11469537019729614,0.04681819677352905,-0.1674611915791844,-0.4577381539662066,-0.741899456015849,-0.4604539209410582,0.9909151834923098,-2.820252025883957,-1.2803474457535522
1781516520288692224,1.2180931568145752,0.05812082067131996,-0.805548906326294,-1.2343370914459229,-0.1584157645702362,-0.838344156742096,0.521616518497467,0.05334372818470001,0.042323529720306396,0.08646148443222046,-0.17323445628471634,-0.45504006754993487,-0.7441416459882072,-0.45736380998052373,0.9942386285167095,-2.8467433580206385,-1.2584577106925574
1781516520298726144,1.2281270027160645,0.03740781918168068,-0.765010416507721,-1.256289005279541,-0.14383317530155182,-0.8399333357810974,0.523282527923584,0.018024399876594543,-0.021517038345336914,0.08761847019195557,-0.1788846131900633,-0.4522379916789235,-0.7464061018607424,-0.4542677854139991,0.997160360069775,-2.873349978017379,-1.2361407798449124
1781516520308760064,1.2381610870361328,0.023292265832424164,-0.7188320159912109,-1.2513872385025024,-0.129316046833992,-0.8415319919586182,0.5245010852813721,-0.008974358439445496,-0.047719717025756836,0.07762598991394043,-0.18447084113702245,-0.4492236060208495,-0.748631222812626,-0.4513535136388305,1.0001128981853973,-2.899863147289801,-1.2134549631626235
1781516520318794240,1.2481951713562012,0.03233875706791878,-0.668132483959198,-1.2469007968902588,-0.11513872444629669,-0.8428722620010376,0.5256513357162476,-0.007709763944149017,-0.04080992937088013,0.045607149600982666,-0.18980689258684003,-0.4461320011331957,-0.7508607856181265,-0.44849487464967913,1.0025988114721063,-2.9259581191469155,-1.1907166743080861
1781516520328828160,1.2582290172576904,0.03367433324456215,-0.6542182564735413,-1.2625607252120972,-0.10103819519281387,-0.8440585136413574,0.5266469717025757,0.009912677109241486,0.020343124866485596,0.0008037090301513672,-0.1950324153883374,-0.4429046714101195,-0.7530995440530315,-0.44568940662137396,1.0048070514064535,-2.9520439809813293,-1.1676222038887474
1781516520338862080,1.2682631015777588,0.03155631944537163,-0.6773655414581299,-1.2550442218780518,-0.0868513360619545,-0.8450964093208313,0.5275118350982666,0.03094315528869629,0.06125253438949585,0.013732612133026123,-0.20029002963401826,-0.43964635256521584,-0.7552926518546326,-0.4428633518296356,1.0067455197471715,-2.9784132009996727,-1.144289032844872
1781516520348897280,1.2782981395721436,0.0481099970638752,-0.6821964979171753,-1.2325975894927979,-0.07268230617046356,-0.8458778262138367,0.5284011960029602,0.017353951930999756,0.0031349658966064453,0.059626638889312744,-0.20554870241498613,-0.43648360882687925,-0.7574184106549512,-0.43994211957895246,1.008208768325872,-3.0048990765624004,-1.1210762948418553
1781516520358930944,1.2883319854736328,0.026290185749530792,-0.6377500891685486,-1.2263438701629639,-0.0587274432182312,-0.8464850783348083,0.5291633605957031,-0.021777912974357605,-0.0512046217918396,0.0521354079246521,-0.21069066376815432,-0.4333018954823085,-0.7594940019408059,-0.43706713450671986,1.0093483206019123,-3.0310632718861923,-1.0980107458230886
1781516520368965120,1.2983660697937012,0.029087303206324577,-0.6042653918266296,-1.2060378789901733,-0.04505889117717743,-0.8470034003257751,0.5296743512153625,-0.03247101977467537,-0.031094133853912354,0.045063138008117676,-0.21568714043797277,-0.4300385175293791,-0.7615143172293015,-0.4343292114524423,1.0103226061204422,-3.056727935054123,-1.0750925751930813
1781516520378999296,1.3084001541137695,0.12043346464633942,-0.5481498837471008,-1.1851155757904053,-0.031859882175922394,-0.847059428691864,0.5305426120758057,-0.008499633520841599,-0.003190934658050537,0.02756291627883911,-0.22031248633745057,-0.4268017142194788,-0.7636174397523363,-0.4314987291791052,1.0104279997987509,-3.0816131788181296,-1.0525139982199163
1781516520389032960,1.3184340000152588,0.14221785962581635,-0.5225023031234741,-1.1882377862930298,-0.018946651369333267,-0.8466417789459229,0.5318263173103333,0.018305771052837372,0.010399043560028076,-0.013713717460632324,-0.22461853687567987,-0.4235402540066757,-0.7658503812314875,-0.4285248349546218,1.0096427827350272,-3.10598207743571,-1.0300164906077867
1781516520399067136,1.3284680843353271,0.16712559759616852,-0.5268269181251526,-1.165944218635559,-0.006140504498034716,-0.8459640741348267,0.533204972743988,0.044302716851234436,-0.003935396671295166,0.008741497993469238,-0.22883094696212075,-0.42030290319280644,-0.7680806933778317,-0.42548096448893147,1.0083704952589998,-3.1300769449657455,-1.007754293517711
1781516520409102080,1.338503122329712,0.11742941290140152,-0.5234188437461853,-1.17559814453125,0.006573953200131655,-0.8451579213142395,0.5344764590263367,0.036883074790239334,-0.04249173402786255,0.02210313081741333,-0.2330285499903444,-0.4170975587778074,-0.7702388278429501,-0.422444718109762,1.0068605569039895,3.1292934744249528,-0.9858404355491361
1781516520419136000,1.3485369682312012,0.04548651725053787,-0.5121718049049377,-1.1739529371261597,0.019345173612236977,-0.8445922136306763,0.5350611209869385,0.00609121099114418,-0.025418460369110107,0.01947396993637085,-0.23736539221318143,-0.4137277239141612,-0.7722434480508433,-0.41967524031694076,1.0058030426895916,3.1054533236198094,-0.9637898597466673
1781516520429170176,1.3585710525512695,0.04722929000854492,-0.4638945460319519,-1.146752119064331,0.03178546950221062,-0.8440805077552795,0.5352740287780762,0.008863948285579681,0.035028815269470215,0.009022355079650879,-0.24161590669020358,-0.41031697351204,-0.774129836236287,-0.4171149578471208,1.00484802169889,3.0822806263078157,-0.9421782845103545
1781516520439204096,1.368605136871338,0.11687441170215607,-0.4474090337753296,-1.128210186958313,0.04383369907736778,-0.8432179689407349,0.5357815623283386,0.04405693709850311,0.049913644790649414,-0.000640571117401123,-0.24558098020168795,-0.4069417406752175,-0.7760729336321421,-0.41448661068054565,1.0032415596356061,3.0599618272504148,-0.9211060509585688
1781516520449240320,1.3786413669586182,0.11404667049646378,-0.46440133452415466,-1.1604280471801758,0.05593784525990486,-0.8419609665870667,0.5366309881210327,0.06260769814252853,0.00474172830581665,0.003774285316467285,-0.24946369085670042,-0.4035920821857449,-0.7780931416566276,-0.4116459959618184,1.0009075570078936,3.0377288220506493,-0.9001431115396396
1781516520459274496,1.3886754512786865,0.05147729814052582,-0.4788248836994171,-1.1823482513427734,0.06837984919548035,-0.840822160243988,0.5369754433631897,0.04075101763010025,-0.016920268535614014,0.025188863277435303,-0.25356652251782646,-0.4000701623482422,-0.7800202568196825,-0.4089210168888553,0.9988002522528134,3.0149317677838763,-0.8786627072317769
1781516520469309696,1.3987104892730713,0.06121967360377312,-0.4335823059082031,-1.186955213546753,0.08083617687225342,-0.8396335244178772,0.5371041893959045,0.015278935432434082,-1.1742115020751953e-05,0.06255090236663818,-0.2576799114980777,-0.3964521872678702,-0.7819064811349803,-0.40626211877367796,0.9966081001744701,2.992210107061234,-0.8571298840169593
1781516520479343360,1.4087443351745605,0.034670088440179825,-0.36420416831970215,-1.2174795866012573,0.09309353679418564,-0.8383243083953857,0.5371648669242859,-0.01942409574985504,0.03145468235015869,0.03278142213821411,-0.26158199833524587,-0.3925944196276494,-0.7838699218490367,-0.4037232450932443,0.9942021778438312,2.969991770554415,-0.8353782998682489
1781516520489377536,1.418778419494629,0.018855705857276917,-0.3314289152622223,-1.1866058111190796,0.10509529709815979,-0.8369827270507812,0.537043035030365,-0.01909676194190979,0.0472639799118042,0.03749626874923706,-0.26533447145632444,-0.38859124515984755,-0.7858233644379973,-0.40134300233771053,0.9917460105696799,2.948342318895831,-0.8137087487986657
1781516520499411456,1.4288125038146973,0.04294160008430481,-0.2915506064891815,-1.1554713249206543,0.1165764108300209,-0.8355213403701782,0.5369490385055542,0.006470471620559692,0.028544902801513672,0.029670894145965576,-0.2688488780558611,-0.3846409716083363,-0.7877346249207805,-0.3990562009074088,0.9890809657452828,2.927801652159804,-0.792871945669608
1781516520509445376,1.4388463497161865,0.04588678851723671,-0.3059583008289337,-1.160120964050293,0.12784449756145477,-0.833859384059906,0.5369678139686584,0.03914770483970642,0.008328378200531006,-0.04746580123901367,-0.27222872439986545,-0.38070488086901466,-0.7896503645288814,-0.3967463186631892,0.986063082393692,2.9078582413662546,-0.7724896254465081
1781516520519479552,1.4488804340362549,0.022456565871834755,-0.36510735750198364,-1.1632672548294067,0.13936206698417664,-0.8321371674537659,0.5367737412452698,0.07200267910957336,0.019301414489746094,-0.051788389682769775,-0.2758022152249295,-0.37679587019866095,-0.7914617805882844,-0.3943936004577921,0.9829504021064448,2.8875720799225397,-0.7521547929253096
1781516520529514496,1.4589154720306396,0.08080083131790161,-0.376321405172348,-1.127547025680542,0.15093718469142914,-0.8301751613616943,0.5366816520690918,0.07412996888160706,0.012975454330444336,-0.00013685226440429688,-0.27945272619121436,-0.3730617006015541,-0.7931997210159006,-0.39187414618336724,0.9794217715585865,2.867433039524569,-0.7324644002877031
1781516520539548416,1.468949317932129,-0.014681482687592506,-0.37916299700737,-1.162741780281067,0.16243040561676025,-0.8281446099281311,0.5364635586738586,0.040770888328552246,0.010013997554779053,0.015492737293243408,-0.28308884691935515,-0.3693101964462965,-0.7948847459917758,-0.3893957017220135,0.9757893749368246,2.8475874086520503,-0.7130353877152756
1781516520549582592,1.4789834022521973,-0.10126138478517532,-0.4134584069252014,-1.177310824394226,0.1743493229150772,-0.8265289664268494,0.5352121591567993,0.0050330013036727905,0.049078404903411865,0.09344983100891113,-0.2871061211199068,-0.3652945644028427,-0.7963453838584955,-0.38725178438695096,0.9729130425387414,2.826675869747055,-0.6926137869983552
1781516520559616512,1.4890174865722656,-0.06430123001337051,-0.3245891034603119,-1.1466217041015625,0.18595430254936218,-0.8248917460441589,0.5338303446769714,-0.023234575986862183,0.025712668895721436,0.15064847469329834,-0.291004636172443,-0.36126829906113367,-0.7977470658368337,-0.385228778878145,0.9700106892330187,2.806397706798026,-0.6726140964241419
1781516520569650432,1.4990513324737549,-0.05054707080125809,-0.25203394889831543,-1.1740902662277222,0.19704990088939667,-0.8229573369026184,0.5328344702720642,-0.03779391944408417,-0.012400329113006592,0.055346131324768066,-0.29446813214824374,-0.3570848065854785,-0.7993170027228335,-0.38323791256668943,0.9665972195695237,2.787375926385091,-0.6529593842612861
1781516520579684608,1.5090854167938232,-0.023105327039957047,-0.2615261375904083,-1.1636240482330322,0.2080797553062439,-0.8207845687866211,0.5319921374320984,0.0027967095375061035,0.022368431091308594,-0.004923105239868164,-0.2978125428760946,-0.35281541339374417,-0.8009477749623953,-0.3811976787110944,0.9627831330761693,2.7687533974979184,-0.6334289452098794
1781516520589719552,1.519120454788208,0.01749562844634056,-0.2627847492694855,-1.14683198928833,0.21896927058696747,-0.8182915449142456,0.5314613580703735,0.05584150552749634,0.042489051818847656,-0.04063194990158081,-0.30106354448465683,-0.3486833846709486,-0.8025899247394263,-0.3789854649205539,0.9584324534248273,2.750772898335765,-0.6147112951477932
1781516520599753728,1.5291545391082764,-0.015581896528601646,-0.2932198643684387,-1.1781561374664307,0.22994780540466309,-0.8156555891036987,0.5308763980865479,0.08394080400466919,0.033108532428741455,-0.07885032892227173,-0.3043587706837311,-0.3445214517404782,-0.8042034286879425,-0.37673261556625526,0.9538614470292913,2.7328412490123304,-0.59610966535425
1781516520609787392,1.5391883850097656,-0.06104312092065811,-0.3404909670352936,-1.1894636154174805,0.24129854142665863,-0.8130545020103455,0.5298275351524353,0.10397730767726898,0.02533489465713501,-0.0606960654258728,-0.30792623972939,-0.34027717114868666,-0.8056830706541404,-0.374523184701181,0.9493796797577904,2.714233594369676,-0.5771429705846268
1781516520619821568,1.549222469329834,-0.07968418300151825,-0.34882691502571106,-1.1800893545150757,0.25278136134147644,-0.810498058795929,0.5283887386322021,0.09888797998428345,0.010372817516326904,0.013664543628692627,-0.31167032288449825,-0.3360337107643423,-0.8070165456793341,-0.3723805894604492,0.9450019299432387,2.6953735893728035,-0.558211350714436
1781516520629855488,1.5592563152313232,-0.15185585618019104,-0.35702812671661377,-1.2119455337524414,0.264343798160553,-0.8079873323440552,0.5265728831291199,0.05752509832382202,-0.009517550468444824,0.0727771520614624,-0.31550733765719935,-0.33167248368034363,-0.808257272873612,-0.3703629593410534,0.9407281078209386,2.6763399633327825,-0.5390505402419734
1781516520639889408,1.5692903995513916,-0.21191439032554626,-0.3590782582759857,-1.2538479566574097,0.27624860405921936,-0.8056562542915344,0.524027407169342,0.01083025336265564,0.019126713275909424,0.10880041122436523,-0.31958108855236694,-0.32701811480555193,-0.8093657163926559,-0.36858408027947814,0.936782442463772,2.656450411223402,-0.5188837707775344
1781516520649924608,1.5793254375457764,-0.14165593683719635,-0.28947174549102783,-1.2666759490966797,0.2881285846233368,-0.8030419945716858,0.5216371417045593,-0.002941817045211792,0.04922741651535034,0.10736066102981567,-0.3235295875649909,-0.32221354684974596,-0.8105535126721554,-0.3667560039642171,0.9323824371963343,2.6369436159985744,-0.49871812125523346
1781516520659958528,1.5893595218658447,-0.08152016997337341,-0.21424995362758636,-1.311277985572815,0.2997557520866394,-0.7998059391975403,0.5200545787811279,0.016085922718048096,0.02407968044281006,0.042720019817352295,-0.327065957245914,-0.31726674056953974,-0.8120154651125654,-0.3646923222195692,0.926971807248226,2.6187122564043914,-0.4790745953487191
1781516520669992448,1.599393367767334,-0.08019870519638062,-0.23780561983585358,-1.3398542404174805,0.3115689754486084,-0.7961451411247253,0.5187274217605591,0.04158046841621399,-0.007565975189208984,-0.006642341613769531,-0.3305186373447824,-0.31209399296774337,-0.8136098866395831,-0.3624829293369297,0.9208977140595124,2.600701936793313,-0.4592535816327551
1781516520680026624,1.6094274520874023,-0.045488663017749786,-0.24223750829696655,-1.294370412826538,0.32332316040992737,-0.7922755479812622,0.5174566507339478,0.06173238158226013,-0.005041837692260742,-0.04786747694015503,-0.33399510896018364,-0.30705324755247343,-0.8151359650171836,-0.36016504097229834,0.914529384502649,2.5831146153191287,-0.4401827352991671
1781516520690060544,1.6194615364074707,-0.08694582432508469,-0.2438359260559082,-1.2900720834732056,0.3348183333873749,-0.7883371710777283,0.5161598324775696,0.07243871688842773,0.024543344974517822,-0.10553061962127686,-0.3373981826044469,-0.302076502869997,-0.8165964148790866,-0.357886110951015,0.9081015571270568,2.566151718151942,-0.4217398141668391
1781516520700094464,1.62949538230896,-0.13123765587806702,-0.301340252161026,-1.2346500158309937,0.34619584679603577,-0.7845525741577148,0.5144181251525879,0.10038316249847412,0.05260360240936279,-0.07644504308700562,-0.3409312112843018,-0.2972099806152583,-0.8178479647538396,-0.355748412739692,0.9019741730763972,2.54922836476867,-0.4036974414908913
1781516520710129408,1.6395304203033447,-0.21078547835350037,-0.3068588376045227,-1.1969658136367798,0.3572957515716553,-0.7811347842216492,0.5120239853858948,0.0953410267829895,0.08304506540298462,0.0006865859031677246,-0.34458518937794835,-0.2924702010094957,-0.8188242703609262,-0.3539056080691462,0.896481293504803,2.532337645197736,-0.38599749675959233
1781516520720163584,1.649564504623413,-0.3032594919204712,-0.32053858041763306,-1.1589992046356201,0.36812838912010193,-0.7781736850738525,0.508849024772644,0.05678313970565796,0.12364780902862549,0.07765299081802368,-0.34834124143598905,-0.2877249336659174,-0.8195357739539427,-0.35246830120654754,0.8917526384792461,2.515299201044235,-0.3681749875167497
1781516520730197504,1.6595983505249023,-0.1524268239736557,-0.26934462785720825,-1.0572896003723145,0.37835693359375,-0.7752882838249207,0.5057414770126343,0.015884459018707275,0.1008344292640686,0.1876789927482605,-0.3519169318341874,-0.2832304824459434,-0.820153176517107,-0.35111800947770166,0.8871714316682807,2.499293779916394,-0.35148217499832873
1781516520740231424,1.6696324348449707,-0.060524605214595795,-0.1502002626657486,-1.0121303796768188,0.3873566687107086,-0.7718055844306946,0.5042532682418823,-0.005108684301376343,0.020447373390197754,0.13786721229553223,-0.3546864739426505,-0.2791983857832544,-0.8210815461458392,-0.3493866068785474,0.8816758608203005,2.4865582687718515,-0.3376542086806067
1781516520750265600,1.679666519165039,-0.05717248469591141,-0.13900858163833618,-1.0089609622955322,0.39592069387435913,-0.7681111097335815,0.5032418370246887,0.013152241706848145,-0.0004894733428955078,0.05495518445968628,-0.3571286522670663,-0.275154562739273,-0.8221380000005778,-0.3476180284101645,0.8758860210461329,2.4749892831983247,-0.324476988558237
1781516520760300288,1.6897013187408447,-0.04382578656077385,-0.15301989018917084,-0.9548298716545105,0.4041980803012848,-0.7644472718238831,0.5022391676902771,0.05698353052139282,-0.0027492642402648926,0.0218086838722229,-0.3595036305647835,-0.27124451665111865,-0.8231318221571831,-0.3458865620678284,0.8701834990304778,2.4639365524147454,-0.31191917374874534
1781516520770334464,1.699735403060913,0.04763701930642128,-0.15914303064346313,-0.8972512483596802,0.4120806157588959,-0.7606245279312134,0.50163733959198,0.06698435544967651,-0.04061460494995117,-0.042820751667022705,-0.3617553677063515,-0.26771098452792774,-0.824105268017779,-0.3439686671758917,0.8642746195823087,2.453895932848363,-0.3008541484789118
1781516520780368640,1.7097694873809814,-0.06653030216693878,-0.18931983411312103,-0.8674757480621338,0.41964003443717957,-0.7569410800933838,0.5009418725967407,0.06282767653465271,-0.07861506938934326,-0.07406193017959595,-0.3639717659172038,-0.26436439905758347,-0.8249741854161161,-0.3421311290019505,0.8586193502379577,2.444281653737301,-0.29043198045859003
1781516520790402304,1.7198033332824707,-0.2108270227909088,-0.2639344036579132,-0.7800929546356201,0.42708343267440796,-0.7541729807853699,0.49882131814956665,0.05558255314826965,-0.06526970863342285,0.029285281896591187,-0.3665354019357542,-0.26102601189978875,-0.8253944952203721,-0.34094145867792175,0.8543937648091111,2.4335186919905203,-0.27918972037333456
1781516520800436480,1.729837417602539,-0.13559511303901672,-0.21487966179847717,-0.6836361885070801,0.4338156282901764,-0.7518735527992249,0.49647751450538635,0.03436967730522156,-0.0717194676399231,0.10387948155403137,-0.3690267950022494,-0.2581348846360258,-0.8255938112024488,-0.33997116310972303,0.8508991948963879,2.423450030308249,-0.26914115667421384
1781516520810470656,1.7398715019226074,-0.1609361618757248,-0.1816793531179428,-0.6467931866645813,0.4397779405117035,-0.749683141708374,0.4945410490036011,-0.014545917510986328,-0.04853469133377075,0.1076776385307312,-0.37113664573005994,-0.2554257061165413,-0.8258500077536008,-0.3390975677393764,0.8475831579241064,2.414740381508211,-0.26007573820971724
1781516520820505600,1.7499065399169922,-0.07306383550167084,-0.15046018362045288,-0.5622663497924805,0.4452015459537506,-0.7476116418838501,0.49282050132751465,-0.018642187118530273,-0.008980035781860352,0.1350328028202057,-0.3730458885241855,-0.2529584091948539,-0.8260885553530951,-0.33826969522327666,0.8444585672855374,2.406916242013191,-0.25193050914112264
1781516520830539520,1.7599403858184814,0.017820268869400024,-0.07761287689208984,-0.5003107786178589,0.44971054792404175,-0.7453181743621826,0.49220067262649536,-0.01649823784828186,-0.07398730516433716,0.12312537431716919,-0.37442804410450625,-0.2509374705308232,-0.8265172220996531,-0.3371993412892286,0.8410119510352048,2.401274454446218,-0.24589685561744284
1781516520840573440,1.7699744701385498,-0.047520920634269714,-0.033477772027254105,-0.45834019780158997,0.45356711745262146,-0.7431831955909729,0.4918896555900574,-0.022201210260391235,-0.14204013347625732,0.054969996213912964,-0.3754751575124015,-0.24901783464843982,-0.8270035931343591,-0.3362640571019129,0.8378153751311698,2.396705670345734,-0.24048582210842467
1781516520850607360,1.780008316040039,-0.14463308453559875,-0.04986020550131798,-0.40710684657096863,0.45698386430740356,-0.7416828274726868,0.4909913241863251,0.0034959018230438232,-0.08952444791793823,0.007711648941040039,-0.37648208795934046,-0.24709281873031966,-0.8273093734927469,-0.3358059304524731,0.8355757635889399,2.392052909298444,-0.2347163419738401
1781516520860641536,1.7900424003601074,-0.14085885882377625,-0.08429846912622452,-0.3840672969818115,0.46024730801582336,-0.740610659122467,0.4895593225955963,0.023471564054489136,0.011866152286529541,-0.026623010635375977,-0.3776145567600453,-0.2452903813013365,-0.8274130120307616,-0.33560035448952463,0.8339786792321723,2.3870457264616816,-0.22888709480341754
1781516520870675456,1.8000764846801758,-0.06872314214706421,-0.043924685567617416,-0.34811168909072876,0.4633049964904785,-0.7393856048583984,0.4885255992412567,0.02596801519393921,0.006658613681793213,-0.03747585415840149,-0.37863297036317445,-0.24369834263469942,-0.8275710970927849,-0.33522264813627994,0.8321573620134144,2.3826852418921045,-0.22391707709913444
1781516520880710656,1.8101115226745605,-0.1838446706533432,-0.07398445159196854,-0.35680878162384033,0.46614494919776917,-0.7383340001106262,0.48741379380226135,0.044536292552948,-0.038124918937683105,0.022779226303100586,-0.3795783858849176,-0.24211537585583778,-0.8276998498629766,-0.3349828374402884,0.8305968150014222,2.3784954890133228,-0.2189540069134848
1781516520890744320,1.8201453685760498,-0.22524671256542206,-0.12055568397045135,-0.324741393327713,0.4692297875881195,-0.7378168702125549,0.4852317273616791,0.04290100932121277,0.016655921936035156,0.10221642255783081,-0.38087314448473575,-0.24041153431834142,-0.827537409985578,-0.33514152303737477,0.8298303828589564,2.372958358302894,-0.2128723105842562
1781516520900778496,1.8301794528961182,-0.10405636578798294,-0.040103182196617126,-0.3027458190917969,0.47191673517227173,-0.7371231913566589,0.4836774468421936,0.018576979637145996,0.07026839256286621,0.08780989050865173,-0.381924539499859,-0.2389671635204122,-0.8274862081903327,-0.3351042957171125,0.8288032921575754,2.3685011098690394,-0.20795242583999932
1781516520910812672,1.8402135372161865,-0.05099208652973175,0.017600860446691513,-0.2991185784339905,0.4741864502429962,-0.7360520362854004,0.48308879137039185,-0.005527913570404053,0.053953588008880615,0.041813552379608154,-0.3825517194608166,-0.23757852368719626,-0.8277081835455502,-0.33482809810717873,0.8272195447863389,2.3654938849314546,-0.20396435914285158
1781516520920846336,1.8502473831176758,-0.0975571870803833,0.01770951598882675,-0.27716055512428284,0.4762086570262909,-0.7350284457206726,0.4826577305793762,0.018435508012771606,0.019314944744110107,0.035088181495666504,-0.383031256723168,-0.23620478388637337,-0.8279711165790294,-0.33460154193246205,0.8257086468101408,2.362920116977441,-0.20016669210041985
1781516520930880512,1.8602814674377441,-0.11220244318246841,-0.00968269445002079,-0.26894310116767883,0.47821468114852905,-0.7342182993888855,0.4819066524505615,0.04197266697883606,0.009578466415405273,0.004711329936981201,-0.38360419859683254,-0.2348678025889742,-0.8281246522717156,-0.3345062565078233,0.8245145718805916,2.360039777384102,-0.19622066824597187
1781516520940915712,1.870316505432129,-0.14919188618659973,-0.02384604886174202,-0.27653631567955017,0.4803086519241333,-0.7335426807403564,0.48085203766822815,0.03076919913291931,-0.01950901746749878,-0.06930723786354065,-0.38428968067303787,-0.23350943517872103,-0.8281904131910918,-0.33450770458989076,0.8235199512836571,2.3567598327729447,-0.19199035910055468
1781516520950949376,1.8803503513336182,-0.1381205916404724,-0.045243747532367706,-0.23604613542556763,0.48236751556396484,-0.7330107688903809,0.4796009361743927,0.02347669005393982,-0.029425203800201416,-0.05763441324234009,-0.3850326824994042,-0.23220344749020652,-0.8281799503020493,-0.3345884739738881,0.822737640629173,2.3533185626156765,-0.1877435771221701
1781516520960983552,1.8903844356536865,-0.10684123635292053,-0.07533640414476395,-0.22037716209888458,0.48429059982299805,-0.7324918508529663,0.47845444083213806,0.04999595880508423,-0.010092437267303467,-0.054565250873565674,-0.38578819287512983,-0.23114983834220912,-0.8281285959483785,-0.33457492176294723,0.8219751284711541,2.3501325726644797,-0.18420371485352682
1781516520971017472,1.9004185199737549,-0.11134278029203415,-0.09349144250154495,-0.23331986367702484,0.4863884449005127,-0.7319287657737732,0.4771861135959625,0.048630475997924805,-0.012562751770019531,-0.058133989572525024,-0.3866687920982514,-0.23012818769054433,-0.8280302370353453,-0.33450589134353526,0.8211483287602178,2.3466445888303022,-0.18064570691728946
1781516520981051392,1.9104523658752441,-0.16163471341133118,-0.07937948405742645,-0.237528458237648,0.488517165184021,-0.7314099669456482,0.47580486536026,0.027290940284729004,-0.01714038848876953,-0.020772606134414673,-0.3875663468655416,-0.22903919801834183,-0.8279151353403729,-0.33449936177061773,0.8203872121850956,2.3430126169374645,-0.1768434104152142
1781516520991085568,1.9204864501953125,-0.11472313106060028,-0.06946294009685516,-0.22262459993362427,0.49058398604393005,-0.7310081124305725,0.4742937386035919,0.007249236106872559,0.01581341028213501,0.04223144054412842,-0.38845444790582273,-0.2279116487075419,-0.8277699838817761,-0.334598701437863,0.8197981532969063,2.3393128674283448,-0.17285466709299582
1781516521001120512,1.9305214881896973,-0.060345638543367386,-0.020703518763184547,-0.24633179605007172,0.4924773573875427,-0.73023921251297,0.47351565957069397,-0.007690250873565674,0.018462300300598145,0.03132140636444092,-0.38910577708159505,-0.22687154665854622,-0.8278207143384072,-0.33442335537595075,0.8186720370124889,2.3365677909139646,-0.1696760333277772
1781516521011154432,1.9405553340911865,-0.05954988673329353,-0.04455612227320671,-0.29268863797187805,0.4945962429046631,-0.729174792766571,0.47294721007347107,-0.010572105646133423,0.01396477222442627,0.03414815664291382,-0.38975199298818486,-0.22569810248326166,-0.8279697899704185,-0.3340956548402364,0.8171153029521822,2.3338229720522348,-0.16634990671407382
1781516521021188608,1.9505894184112549,-0.036153752356767654,-0.03840142488479614,-0.31540220975875854,0.4970269501209259,-0.7279167771339417,0.4723358452320099,-0.025042176246643066,0.008785367012023926,0.040603578090667725,-0.39050040528890634,-0.22439377080760867,-0.8281396997391193,-0.33367865079769027,0.8152788026673999,2.3307285200829546,-0.16268410321728444
1781516521031222528,1.9606235027313232,0.008987095206975937,0.016710298135876656,-0.34439951181411743,0.4994472563266754,-0.7263254523277283,0.47223296761512756,-0.03585463762283325,-0.011040329933166504,-0.04027193784713745,-0.39109551430238104,-0.22304822045452502,-0.8284720758532638,-0.3330583912108576,0.8129608098958916,2.3281943617089387,-0.159345179670386
1781516521041256448,1.9706573486328125,0.02061711996793747,0.011518198996782303,-0.38321295380592346,0.5020270347595215,-0.7244475483894348,0.47238221764564514,-0.013349056243896484,-0.02562880516052246,-0.09985405206680298,-0.3916255514541966,-0.2215184620146475,-0.8289274287314471,-0.3323227985488226,0.8102326194335656,2.325780484802144,-0.15578474100509482
1781516521051290624,1.9806914329528809,0.07103342562913895,-0.018568065017461777,-0.4289458096027374,0.5049383044242859,-0.722163736820221,0.47277572751045227,0.01622563600540161,-0.026035726070404053,-0.13981366157531738,-0.3922296087180543,-0.21994726809135515,-0.829464322992247,-0.3313126514446385,0.8069252375575838,2.3233106551889655,-0.1523483650300964
1781516521061325568,1.9907264709472656,0.09057143330574036,-0.061956413090229034,-0.49237513542175293,0.5084809064865112,-0.7194346189498901,0.47313955426216125,0.0077849626541137695,0.024869859218597412,-0.17391470074653625,-0.39308139659004115,-0.21824448892295567,-0.8300235648825639,-0.3300261227769731,0.8029879564454859,2.320206984708231,-0.1486140782255659
1781516521071359488,2.000760316848755,0.06844829022884369,-0.08315490931272507,-0.5164764523506165,0.5124761462211609,-0.7164486050605774,0.47336044907569885,-0.014459669589996338,0.08233892917633057,-0.15516877174377441,-0.39413311077396834,-0.21642036408833515,-0.8305675484733798,-0.32860165658130375,0.7986983387708861,2.3165376123725028,-0.14452803732926336
1781516521081393408,2.0107944011688232,0.0489845797419548,-0.09384630620479584,-0.5156306624412537,0.5166265368461609,-0.7135172486305237,0.4732759892940521,-0.02082270383834839,0.10394388437271118,-0.06670558452606201,-0.3953089785682645,-0.21452129865640285,-0.8310346578379239,-0.3272504043860801,0.7945055281556306,2.312429677789498,-0.14007215463972233
1781516521091427584,2.0208284854888916,0.023530883714556694,-0.0575447604060173,-0.5168945789337158,0.5206552743911743,-0.7106612920761108,0.47315844893455505,-0.045664429664611816,0.051786720752716064,0.026460230350494385,-0.3964193017104798,-0.2125665439427419,-0.8315014653900932,-0.3259948057257619,0.790437702441115,2.3084383339003116,-0.13550007895800179
1781516521101461504,2.030862331390381,0.02766890451312065,-0.04841557517647743,-0.4872725009918213,0.5244991183280945,-0.7079111933708191,0.47303539514541626,-0.05722922086715698,0.012324035167694092,0.07252728939056396,-0.39744408203279347,-0.21059707567135805,-0.8319654864859817,-0.3248392496831786,0.7865364479219544,2.304649264864996,-0.13092437545662863
1781516521111496448,2.0408973693847656,0.06129131093621254,-0.02614435739815235,-0.482251912355423,0.5281089544296265,-0.705151379108429,0.47314104437828064,-0.034059882164001465,0.038418591022491455,0.06930887699127197,-0.3983455602273972,-0.2087288812270043,-0.8324678812745845,-0.3236514824498577,0.7826366095957495,2.3013502611359824,-0.12680319943083637
1781516521121530624,2.050931453704834,0.1812315583229065,0.0031743827275931835,-0.47639402747154236,0.5315669775009155,-0.7020545601844788,0.4738731384277344,-0.026012837886810303,0.033811211585998535,0.04524606466293335,-0.3990640284636955,-0.20697511366427557,-0.8331253628498416,-0.32219754303663417,0.7782784932053103,2.2988756634694067,-0.12349111368981233
1781516521131564544,2.0609655380249023,0.27736184000968933,0.07491248846054077,-0.487780898809433,0.5347463488578796,-0.6983100771903992,0.47582563757896423,-0.024339735507965088,-0.033898353576660156,-0.01319420337677002,-0.3994083991291662,-0.20538602373089948,-0.8341039498022164,-0.3202504199903217,0.773033880021886,2.2979561227173697,-0.12157014874864888
1781516521141598464,2.0709993839263916,0.20881445705890656,0.03448370099067688,-0.4750044047832489,0.5378458499908447,-0.6945497393608093,0.4778311252593994,0.00010275840759277344,-0.07481366395950317,-0.026705026626586914,-0.3996900029808094,-0.20375302271535245,-0.8351049443516823,-0.3183274502549438,0.767793878583901,2.2971747302027996,-0.11960716445858162
1781516521151632640,2.08103346824646,0.13122539222240448,0.03380566090345383,-0.41476449370384216,0.5407950282096863,-0.6913024187088013,0.4792094826698303,0.02573329210281372,-0.09855353832244873,-0.0009990930557250977,-0.40009125024358516,-0.20218170887382308,-0.8358990969091022,-0.31673687995028366,0.7632899811311687,2.295889989918425,-0.11729581907086589
1781516521161666304,2.091067314147949,0.028421780094504356,0.011138699017465115,-0.37291717529296875,0.5433837175369263,-0.688792884349823,0.4798940420150757,0.041394054889678955,-0.09056496620178223,0.02616363763809204,-0.400523963028885,-0.20065191383314898,-0.8364722542557852,-0.3156476825466391,0.7598226113301566,2.294228508177729,-0.11450574965315641
1781516521171701504,2.101102352142334,-0.003188344882801175,0.016401104629039764,-0.3111954927444458,0.5457079410552979,-0.686884880065918,0.47999152541160583,0.02379584312438965,-0.06512922048568726,0.0733988881111145,-0.4010187458803431,-0.19920380219580952,-0.8368474261005677,-0.314941503094743,0.7571940613121692,2.2922121202642596,-0.11142364925579278
1781516521181735424,2.1111364364624023,0.09820059686899185,0.09890849888324738,-0.25284215807914734,0.5473770499229431,-0.685124933719635,0.48060598969459534,-0.005491733551025391,-0.06565320491790771,0.13291940093040466,-0.4011891092747331,-0.19803671951120613,-0.8373078563842777,-0.31423603222012986,0.7547752156258601,2.291332135967758,-0.10935630645108997
1781516521191769600,2.1211705207824707,0.11727362126111984,0.16413144767284393,-0.23811142146587372,0.5483699440956116,-0.6832246780395508,0.4821767210960388,-0.012939095497131348,-0.10194677114486694,0.13697919249534607,-0.40086726790119304,-0.1970275950341732,-0.8380146116909308,-0.3133959842593677,0.7521696395757225,2.292051435564748,-0.10835037870035134
1781516521201803520,2.13120436668396,0.18208111822605133,0.18065357208251953,-0.19406433403491974,0.549027681350708,-0.6813684105873108,0.4840516149997711,0.0037067532539367676,-0.10639721155166626,0.09057921171188354,-0.4003497045898764,-0.19610674536824096,-0.8387895747813178,-0.31256100579834817,0.7496305368689267,2.2933817067896336,-0.10775423879658558
1781516521211837440,2.1412384510040283,0.2803219258785248,0.23480761051177979,-0.1579532027244568,0.549187183380127,-0.6792659163475037,0.48681721091270447,0.02246803045272827,-0.11913490295410156,0.04873567819595337,-0.39951049789950804,-0.19553618882101487,-0.8397465149535913,-0.3114204038495868,0.7467619123897881,2.2960646572840746,-0.10863577976424932
1781516521221872640,2.151273488998413,0.2123205065727234,0.25027087330818176,-0.13111919164657593,0.5489557981491089,-0.6771979928016663,0.48994916677474976,0.025735914707183838,-0.14615094661712646,0.030741631984710693,-0.3984328299873229,-0.1950498340417262,-0.8407913778197552,-0.3102847437254989,0.7439478180898976,2.2994584861708915,-0.10994833837653104
1781516521231906304,2.1613073348999023,0.13322356343269348,0.24654455482959747,-0.0693058893084526,0.5484218597412109,-0.675776481628418,0.49250364303588867,0.03910261392593384,-0.1591387391090393,0.010746538639068604,-0.39736821543105183,-0.19457371767057857,-0.8416607933685507,-0.3095912599433698,0.7420176006542255,2.3025263763936263,-0.11077580711520851
1781516521241940480,2.1713414192199707,0.05845371261239052,0.2548224627971649,-0.005968464072793722,0.5474191904067993,-0.6751270890235901,0.49450570344924927,0.04697173833847046,-0.1540508270263672,0.019822418689727783,-0.3962786038294819,-0.19423106252731434,-0.8423343398242455,-0.3093711438200381,0.7411369872422989,2.3054537201422285,-0.11141443849769284
1781516521251974656,2.181375503540039,-0.05419347062706947,0.24903622269630432,0.05298806354403496,0.5460107922554016,-0.6751936078071594,0.49596965312957764,0.04622858762741089,-0.13466662168502808,0.03569233417510986,-0.39515675479830764,-0.19393645424971395,-0.8428365705477594,-0.30962290576321183,0.74122715070673,2.3082063476333743,-0.11168784062318067
1781516521262008320,2.1914093494415283,-0.09331663697957993,0.24593763053417206,0.18070447444915771,0.5440373420715332,-0.6762358546257019,0.49671798944473267,0.04914814233779907,-0.09700345993041992,0.06955099105834961,-0.394038173560117,-0.19386732674438667,-0.8430744064736064,-0.31044330396979225,0.7426410134057142,2.3107593982658883,-0.11186310509237773
1781516521272042496,2.2014434337615967,-0.08296333253383636,0.31584346294403076,0.3134308457374573,0.5409358143806458,-0.678006649017334,0.49768975377082825,0.0612674355506897,-0.13438642024993896,0.15569153428077698,-0.3925396826252964,-0.1943268032975455,-0.843256765091652,-0.3115567596801203,0.7450474015562767,2.314580740727884,-0.11334689825376076
1781516521282077440,2.2114784717559814,-0.09778115898370743,0.30905282497406006,0.42033785581588745,0.536845862865448,-0.6804417967796326,0.49879375100135803,0.08780306577682495,-0.15589231252670288,0.1553504765033722,-0.39070982543197375,-0.19520879048211978,-0.8433803414196674,-0.3129678021370415,0.7483653143746716,2.3194684069898326,-0.11585820075075987
1781516521292111360,2.2215123176574707,-0.1040145605802536,0.277161180973053,0.5535070896148682,0.5320712924003601,-0.6835730671882629,0.4996282160282135,0.11117827892303467,-0.08189940452575684,0.09280961751937866,-0.388816102983631,-0.19658393771153226,-0.8433082826101267,-0.31465543490232933,0.75264689008143,2.3247586155421565,-0.11930964563564939
1781516521302145536,2.231546401977539,-0.06338030844926834,0.3089027404785156,0.696976363658905,0.5263162851333618,-0.6873126029968262,0.5005924701690674,0.09862273931503296,-0.0698438286781311,0.06825524568557739,-0.3866891165858538,-0.19862448222287832,-0.8431159729274053,-0.3165049522845203,0.7577827532260539,2.3311499656358943,-0.12443105015332474
1781516521312179456,2.2415804862976074,-0.2633208632469177,0.3410002291202545,0.731204092502594,0.5196548104286194,-0.6917714476585388,0.5014091730117798,0.08225864171981812,-0.14834696054458618,0.06711804866790771,-0.3842635351841197,-0.20087355666223783,-0.8428252453750913,-0.31880552343504653,0.7639393196494135,2.3383271315843084,-0.1299734355643305
1781516521322213376,2.2516143321990967,-0.4039938151836395,0.26889246702194214,0.8228166103363037,0.5127642154693604,-0.6976103782653809,0.5004127621650696,0.0647963285446167,-0.05730313062667847,0.1512444019317627,-0.3821183019567954,-0.20293493213893957,-0.8420355104327322,-0.32214798901568215,0.772056845091531,2.344004308442672,-0.13377276700045324
1781516521332248576,2.2616493701934814,-0.185856431722641,0.3238670527935028,0.9631782174110413,0.5050180554389954,-0.7037010788917542,0.49976131319999695,0.04460346698760986,0.049221158027648926,0.1911260485649109,-0.3797521568004766,-0.2056653258302345,-0.8411791900909076,-0.3254344663013567,0.7805933328072413,2.3509628021889863,-0.1395580559442834
1781516521342282496,2.27168345451355,-0.025809766724705696,0.4458736479282379,1.0977352857589722,0.4957713782787323,-0.7093443870544434,0.5010403394699097,0.014619886875152588,-0.003698885440826416,0.2182742953300476,-0.3765283037786268,-0.2092008597226548,-0.8406873124643119,-0.32818641755732963,0.7885676687457256,2.3614802336787504,-0.14895092867542736
1781516521352316672,2.281717538833618,-0.034171827137470245,0.4614124000072479,1.2211730480194092,0.48514842987060547,-0.7151792049407959,0.5031397342681885,0.062275856733322144,-0.08584612607955933,0.23947495222091675,-0.37268610778883055,-0.21328366281204683,-0.8402856304523323,-0.33096097585923856,0.7968804904939253,2.3743969875034163,-0.16057282073817988
1781516521362350336,2.2917513847351074,0.00702008418738842,0.44598814845085144,1.2829279899597168,0.4738083481788635,-0.7213165760040283,0.5051814317703247,0.11754605174064636,-0.11765748262405396,0.13220876455307007,-0.36871163922222294,-0.21780330026970146,-0.8397335484787044,-0.3338579058221191,0.8057013678884967,2.3882298890682043,-0.17354954660524327
1781516521372384512,2.301785469055176,0.013874262571334839,0.4760797619819641,1.3502713441848755,0.4619332551956177,-0.7274449467658997,0.5073872804641724,0.1026267409324646,-0.11033892631530762,0.015485703945159912,-0.36455410202731287,-0.2225535137611325,-0.8391445534271932,-0.3367592515006042,0.8145909396402776,2.4030528321161184,-0.1876061876891429
1781516521382418432,2.311819314956665,0.06738515943288803,0.5103412866592407,1.4302144050598145,0.4492214024066925,-0.7335845828056335,0.5099543333053589,0.10560333728790283,-0.15351545810699463,-0.017766952514648438,-0.36007778922962663,-0.2276655284849764,-0.8385377667748972,-0.33965670789256125,0.8235815654321467,2.4194279352648436,-0.20329110415207585
1781516521392453376,2.32185435295105,0.012062780559062958,0.531611442565918,1.4251195192337036,0.4359515309333801,-0.7397034168243408,0.5126259922981262,0.12342047691345215,-0.23502808809280396,-0.02559584379196167,-0.35537528406597796,-0.23288493680293368,-0.8379007049542642,-0.3426302825700854,0.8326295118901619,2.4368500978430205,-0.21983296862655102
1781516521402487552,2.331888437271118,-0.16686595976352692,0.505982518196106,1.4051313400268555,0.4227510392665863,-0.7462334632873535,0.5142152309417725,0.1148923933506012,-0.17690801620483398,0.008199930191040039,-0.3508593093926151,-0.23777147535071866,-0.8370019873783261,-0.3461071697590618,0.8423858257431953,2.4535035162065464,-0.2352481078274419
1781516521412521728,2.3419225215911865,-0.09285351634025574,0.5219934582710266,1.4231716394424438,0.4094790816307068,-0.7528696060180664,0.515281081199646,0.09770786762237549,-0.033934712409973145,0.01288670301437378,-0.3464255108956108,-0.24258157327244523,-0.8359394208634061,-0.34978416396148426,0.8524112953800019,2.470109353081028,-0.2506035888802178
1781516521422555392,2.351956367492676,0.04316850006580353,0.609464704990387,1.4304639101028442,0.395743727684021,-0.7587584257125854,0.5173710584640503,0.04964509606361389,-0.02310192584991455,0.027779817581176758,-0.3415819174383718,-0.24753022776275568,-0.8351133502766283,-0.35303874091543447,0.861404910675451,2.4886154867218404,-0.2676223124061627
1781516521432589568,2.361990451812744,0.09319731593132019,0.71720290184021,1.4609466791152954,0.38125577569007874,-0.7639829516410828,0.5205518007278442,0.007553428411483765,-0.10772114992141724,0.07774531841278076,-0.33613603234558875,-0.25252936009321814,-0.8345686492798994,-0.35600098729302615,0.8694636285105014,2.5094464791966904,-0.28623344395660877
1781516521442623488,2.3720242977142334,0.01107820961624384,0.7645168900489807,1.4698070287704468,0.3660466969013214,-0.7692021727561951,0.5237728357315063,0.01711675524711609,-0.13349252939224243,0.05809056758880615,-0.3303057831808241,-0.2574286280019949,-0.8340365178237735,-0.3591820176689031,0.8775916586209944,2.531628573141587,-0.3053953562767061
1781516521452657408,2.3820583820343018,-0.00022850758978165686,0.7698969841003418,1.4710603952407837,0.35062500834465027,-0.774508535861969,0.526496410369873,0.04833129048347473,-0.13375550508499146,0.04384654760360718,-0.32444347625452896,-0.26217979944157327,-0.83337263247725,-0.36261300553276976,0.8859378243947873,2.554080116649383,-0.3245146622954469
1781516521462691328,2.392092227935791,0.031792543828487396,0.8517806529998779,1.4630115032196045,0.3348580300807953,-0.7794522047042847,0.5294566750526428,0.03663244843482971,-0.20278650522232056,0.04509776830673218,-0.318343986346573,-0.266900687924732,-0.8327618917039298,-0.3659628151855066,0.8937909545739451,2.57764972469992,-0.3444200593261941
1781516521472725504,2.4021263122558594,-0.037117816507816315,0.8993133306503296,1.4300318956375122,0.318859726190567,-0.7842079997062683,0.5323032736778259,-0.0065885186195373535,-0.23877191543579102,0.00032019615173339844,-0.31201260137599934,-0.27128375487735834,-0.8321999556758627,-0.3694545370749168,0.901418699690101,2.601894875895412,-0.36411912531558016
1781516521482759424,2.4121603965759277,-0.02800154872238636,0.9701340794563293,1.4932210445404053,0.30233919620513916,-0.7888694405555725,0.5350472927093506,-0.004213005304336548,-0.21181702613830566,-0.005979418754577637,-0.30543971146279697,-0.2756362387509513,-0.8315938416311826,-0.3730720982761241,0.9089671726096032,2.6272530462840313,-0.3845239461424839
1781516521492793344,2.422194242477417,-0.15913400053977966,0.9665129780769348,1.4897900819778442,0.28519192337989807,-0.7938264608383179,0.5371266007423401,0.002359926700592041,-0.11794710159301758,-0.020296156406402588,-0.2986736403998075,-0.2798589245633658,-0.8308082191729927,-0.3771348530373179,0.9170754007313582,2.653486109055125,-0.40521009940665587
1781516521502828288,2.4322292804718018,-0.10846363753080368,0.8894095420837402,1.553459882736206,0.2681010067462921,-0.7987937331199646,0.5385631918907166,0.018489539623260498,-0.06016916036605835,-0.0017895102500915527,-0.29215014188317956,-0.28421856361650233,-0.8297598519162486,-0.3812698159217967,0.9252875028845475,2.679700293497855,-0.42652587811139536
1781516521512862464,2.44226336479187,-0.053836073726415634,0.9508728981018066,1.642775058746338,0.25029584765434265,-0.8033732175827026,0.5403178334236145,0.0017030537128448486,-0.1359577775001526,0.09371525049209595,-0.28537817081182426,-0.2889916712697777,-0.8286390857048067,-0.3852276655632752,0.9329385295671289,2.707784574436231,-0.4501063176667192
1781516521522896384,2.4522972106933594,-0.07429368048906326,1.0394670963287354,1.7147637605667114,0.2312781661748886,-0.8077269196510315,0.5422980785369873,-0.014206692576408386,-0.23402094841003418,0.15728676319122314,-0.2780469727768616,-0.29397650637089634,-0.8274822327436657,-0.38928228535542525,0.9402862678017139,2.7384708343531465,-0.47579400701026575
1781516521532930304,2.4623312950134277,-0.17857109010219574,1.0698835849761963,1.7314889430999756,0.21150854229927063,-0.8122981190681458,0.5435399413108826,0.009606540203094482,-0.2264743447303772,0.12281131744384766,-0.2704738661687473,-0.29885337742357104,-0.826109328169566,-0.39379415433126735,0.9480815957415794,2.770490586600898,-0.502204674097984
1781516521542964480,2.472365379333496,-0.22819802165031433,1.122544765472412,1.7387388944625854,0.19132454693317413,-0.8168779015541077,0.5441555380821228,0.06194080412387848,-0.15673953294754028,0.0897555947303772,-0.2627828212903056,-0.30361899908828444,-0.8245564049144761,-0.3985817167975571,0.9559774416963063,2.8034940212042683,-0.529244981126761
1781516521552999424,2.482400417327881,-0.26814037561416626,1.157610297203064,1.7177367210388184,0.17083531618118286,-0.8214060068130493,0.5441578030586243,0.11160488426685333,-0.059072017669677734,0.026170074939727783,-0.254947876520462,-0.3081334466130318,-0.8228807170732068,-0.4036369066686705,0.9638718226730948,2.837392383260859,-0.5565736943166604
1781516521563033344,2.49243426322937,-0.24135883152484894,1.0793001651763916,1.6934223175048828,0.15062721073627472,-0.8255794048309326,0.5438110828399658,0.15451805293560028,-0.01908630132675171,-0.02807915210723877,-0.2472512130457095,-0.3125410659401436,-0.8211112138687167,-0.408609135955261,0.9712282189911446,2.871382448290359,-0.5841612730907776
1781516521573067520,2.5024683475494385,-0.1794176995754242,1.0611767768859863,1.7104034423828125,0.130708709359169,-0.8290824890136719,0.5436339378356934,0.1329173892736435,-0.006534695625305176,-0.03133517503738403,-0.2396844060950336,-0.31709012268562053,-0.8193111803216317,-0.4132003676430344,0.9774646887047598,2.905636236009229,-0.6126432696438744
1781516521583101184,2.5125021934509277,-0.18388621509075165,1.035524606704712,1.7199418544769287,0.11067042499780655,-0.8321328163146973,0.5434213876724243,0.10798802226781845,0.07633459568023682,-0.06556195020675659,-0.23207118167225696,-0.32172444512946446,-0.8174375128005211,-0.41765081327084325,0.9829425301556948,2.9406852611493557,-0.6421134624653076
1781516521593135360,2.522536277770996,-0.24722523987293243,0.9838448166847229,1.7843362092971802,0.09049909561872482,-0.8350703716278076,0.5426486134529114,0.13942036032676697,0.08992254734039307,-0.005997002124786377,-0.22459759166721707,-0.326550496124659,-0.815284665233811,-0.42217490837215876,0.9882606807501706,2.976340600658256,-0.672769825841964
1781516521603170304,2.532571315765381,-0.3356877267360687,0.9422222375869751,1.7649481296539307,0.07036039233207703,-0.8380324244499207,0.5410647392272949,0.14613130688667297,0.009892165660858154,-0.003436565399169922,-0.21734337436742257,-0.331430421943786,-0.812826081670594,-0.4268834701550857,0.9936670924759284,3.012277710515101,-0.7041568901454105
1781516521613204480,2.542605400085449,-0.4699153006076813,0.8762896060943604,1.7813040018081665,0.05052023380994797,-0.8413358926773071,0.5381466150283813,0.15948647260665894,0.01745283603668213,0.007690787315368652,-0.210515168803312,-0.33623224711039107,-0.8099513470842923,-0.43198392772683425,0.9997500405919819,3.0479887911243866,-0.735809132186925
1781516521623238400,2.5526392459869385,-0.4563491642475128,0.8547143936157227,1.8261492252349854,0.0305937547236681,-0.8445921540260315,0.53453528881073,0.19432079792022705,0.047030627727508545,0.058055102825164795,-0.20387158376993972,-0.341190021996222,-0.8067570900519938,-0.4372284015034489,1.005802911708169,3.0844207196067455,-0.7687523825679804
1781516521633272320,2.562673330307007,-0.6283635497093201,0.8269094228744507,1.7930325269699097,0.01067821029573679,-0.847756564617157,0.5302779078483582,0.17999562621116638,0.03160983324050903,0.06267863512039185,-0.19735904026611845,-0.3461325123805538,-0.8033251159389633,-0.4426176769187679,1.0117410450482605,3.121458366590762,-0.8025184505417782
1781516521643306496,2.572707414627075,-0.810668408870697,0.7533925771713257,1.8015908002853394,-0.008737459778785706,-0.8516137003898621,0.5240969657897949,0.1458682119846344,0.08511900901794434,0.0997280478477478,-0.19146914651036198,-0.3508653437446296,-0.7993384735266313,-0.44865469928170465,1.0190562210156038,-3.1249227410926492,-0.836558932567068
1781516521653340416,2.5827412605285645,-0.8985279202461243,0.7564688324928284,1.8374543190002441,-0.028294572606682777,-0.8557659387588501,0.5165887475013733,0.11815357208251953,0.12729614973068237,0.12128955125808716,-0.1858463373864716,-0.35563803778708936,-0.7948685126649213,-0.45515572255778225,1.0270295352616108,-3.0868753759474497,-0.8722731583123604
1781516521663375360,2.592776298522949,-0.9100903272628784,0.74122154712677,1.8517781496047974,-0.04801460728049278,-0.8596736788749695,0.5085818767547607,0.09046457707881927,0.09536105394363403,0.15354269742965698,-0.18024186104971765,-0.3604271723132519,-0.7901792130105639,-0.4617595149536489,1.0346305204115032,-3.04746284331503,-0.9094722832307328
1781516521673409536,2.6028103828430176,-1.0007778406143188,0.7448418140411377,1.8393670320510864,-0.06773601472377777,-0.8633922934532166,0.49996504187583923,0.03634870797395706,0.04327833652496338,0.14630556106567383,-0.17472268659317713,-0.36515138016049026,-0.7852687330384527,-0.4684968507741306,1.041955154674513,-3.0069310622602075,-0.9478734193875317
1781516521683443200,2.612844228744507,-0.9533411264419556,0.7611078023910522,1.857409954071045,-0.08745993673801422,-0.8669162392616272,0.4907209575176239,0.0007900148630142212,0.006763041019439697,0.09597945213317871,-0.16925669236060442,-0.3697552189133092,-0.7801548306601258,-0.4753858415027217,1.0489819260416882,-2.965217179057147,-0.9874009376777256
1781516521693477376,2.622878313064575,-0.8675969243049622,0.8004860877990723,1.861218810081482,-0.10757442563772202,-0.8695207238197327,0.4820387065410614,0.007171608507633209,-0.03669863939285278,-0.025251567363739014,-0.16339469875208917,-0.37439357839666326,-0.7751443789902057,-0.4819572353013978,1.0542311158719146,-2.922024976638733,-1.0280476368937996
1781516521703511552,2.6329123973846436,-0.888606607913971,0.6969404816627502,1.8162959814071655,-0.12724965810775757,-0.8715122938156128,0.47357577085494995,0.04825490713119507,-0.030221104621887207,-0.10023891925811768,-0.1576290501324273,-0.37897626197044376,-0.7701719771138207,-0.4882266361633841,1.058277861444282,-2.87909318125362,-1.0686437740745083
1781516521713545216,2.642946243286133,-0.9189589023590088,0.5926644206047058,1.8239331245422363,-0.14618952572345734,-0.87334144115448,0.46465352177619934,0.09209716320037842,-0.019633233547210693,-0.03838416934013367,-0.15243104252104758,-0.38367962753278545,-0.764929216004702,-0.49440655722153476,1.0620203862468218,-2.836777094769688,-1.1097573161017338
1781516521723580416,2.6529812812805176,-0.9390415549278259,0.5135592222213745,1.8372085094451904,-0.1648128479719162,-0.8747835159301758,0.45562049746513367,0.07365688681602478,-0.06967431306838989,0.021704792976379395,-0.14753714578039592,-0.38858773045370476,-0.7594799739193803,-0.5004222062492261,1.0649888741524696,-2.7945040028519155,-1.1517254677324948
1781516521733614336,2.663015365600586,-0.9450600147247314,0.447586327791214,1.8526071310043335,-0.1831764280796051,-0.8758448362350464,0.44647789001464844,0.033701300621032715,-0.060739755630493164,0.09133344888687134,-0.1429196462422842,-0.3936911464487267,-0.753821084645128,-0.5062954988472266,1.067183678288048,-2.752264414579177,-1.1944960508708113
1781516521743648256,2.673049211502075,-0.9189048409461975,0.4464314579963684,1.9060970544815063,-0.20162707567214966,-0.8763670921325684,0.43740975856781006,-0.016939803957939148,-0.02742624282836914,0.18710196018218994,-0.13833090857944597,-0.39898452911059473,-0.7480081753069437,-0.5120153164118932,1.068266870858247,-2.7096643661233824,-1.2380956688758142
1781516521753682432,2.6830832958221436,-0.8441038727760315,0.5319787859916687,1.951183557510376,-0.22068339586257935,-0.8761236667633057,0.42860978841781616,-0.07791584730148315,-0.030568838119506836,0.2107030153274536,-0.13332119544448828,-0.4043363687108509,-0.7421704649754338,-0.5176105046280434,1.0677617583687116,-2.6661105834057377,-1.2822480694142036
1781516521763716352,2.693117380142212,-0.8079543709754944,0.6334131956100464,1.975622534751892,-0.24046388268470764,-0.8750589489936829,0.4200584292411804,-0.10995420813560486,-0.013307750225067139,0.11825644969940186,-0.1276825550272498,-0.40956588526256954,-0.7364000297681345,-0.5231328747866708,1.0655576305907397,-2.6216743116504087,-1.3262769266215475
1781516521773751552,2.7031524181365967,-0.6933178305625916,0.6504456996917725,1.9760042428970337,-0.26048681139945984,-0.8732141256332397,0.4118784964084625,-0.04397180676460266,0.051879286766052246,0.0014973878860473633,-0.12164068915936138,-0.4146656702960856,-0.7307473074037844,-0.5284546747537257,1.0617590796347085,-2.5776639178469583,-1.369210744942286
1781516521783785216,2.713186264038086,-0.678053081035614,0.6123105883598328,1.905841588973999,-0.2801295816898346,-0.8707126379013062,0.40421169996261597,0.04651749134063721,0.0698854923248291,-0.09152859449386597,-0.11554909198259454,-0.4196763045226777,-0.725243165501619,-0.533425351255654,1.056649478441014,-2.535561967759813,-1.41016412307069
1781516521793819392,2.7232203483581543,-0.6029282808303833,0.5103868842124939,1.869689702987671,-0.2987672984600067,-0.8678185939788818,0.39702537655830383,0.10878005623817444,0.019979119300842285,-0.13317042589187622,-0.10983158707332905,-0.4246367813720779,-0.7198585258884894,-0.5379817800468245,1.0507951712994956,-2.496484312501767,-1.4486966341615535
1781516521803853312,2.7332541942596436,-0.7339139580726624,0.40080416202545166,1.8509184122085571,-0.31677499413490295,-0.8646698594093323,0.3898717761039734,0.12822210788726807,-0.08186346292495728,-0.08536726236343384,-0.10453962108792901,-0.4297339065482496,-0.7143281176982137,-0.542342782389239,1.0444927507226023,-2.4592696683133903,-1.4863186031118711
1781516521813887232,2.743288278579712,-0.7085902094841003,0.24653948843479156,1.9208743572235107,-0.3342527449131012,-0.8614460229873657,0.3823431730270386,0.09256869554519653,-0.2062116265296936,0.07453557848930359,-0.09990104742425492,-0.4351692400882296,-0.7083779463511474,-0.5466702320708992,1.0381101323315522,-2.4232035572719433,-1.5243903750607117
1781516521823922432,2.7533233165740967,-0.7451738119125366,0.35040757060050964,1.9521009922027588,-0.35212022066116333,-0.8574013710021973,0.3753318786621094,-0.04958263039588928,-0.23409020900726318,-0.0021477341651916504,-0.09508606593202351,-0.44094882908243216,-0.7023034023766198,-0.5507200766150322,1.0301988539471183,-2.3880918409082414,-1.5619687160448876
1781516521833956608,2.763357400894165,-0.7769588828086853,0.4587407112121582,1.9322415590286255,-0.3702899217605591,-0.8532634377479553,0.3671882450580597,-0.07482430338859558,0.051871657371520996,-0.03537061810493469,-0.08997417687101396,-0.44622708747430645,-0.6960427483924253,-0.5552572670700875,1.0222116096242804,-2.351988726602921,-1.5992930931216816
1781516521843990272,2.7733912467956543,-0.548568844795227,0.40983709692955017,1.9736270904541016,-0.3885584771633148,-0.848324716091156,0.35967686772346497,0.09438431262969971,0.3153505325317383,0.055362194776535034,-0.0845377512720141,-0.4514988310079035,-0.6899182826194997,-0.55947737182229,1.0128132085752295,-2.317614001501232,-1.6345482060172367
1781516521854024448,2.7834253311157227,-0.437167763710022,0.41788169741630554,1.8749412298202515,-0.40642306208610535,-0.8422636985778809,0.3541353642940521,0.1597800850868225,0.2568756341934204,-0.0205935537815094,-0.0787396087919882,-0.456830009274042,-0.6843785697648177,-0.5627897333110589,1.0014688465376493,-2.2875533973242557,-1.6652701966177526
1781516521864058368,2.793459415435791,-0.5714533925056458,0.32397571206092834,1.8153117895126343,-0.4232119917869568,-0.8364812731742859,0.34812435507774353,0.17103001475334167,0.08947205543518066,0.016560643911361694,-0.0734430514271711,-0.4618089399368573,-0.6788185921768645,-0.5661659661464123,0.9908303292784663,-2.259152797130819,-1.6945119701002958
1781516521874093312,2.8034942150115967,-0.5365268588066101,0.2438153475522995,1.816611647605896,-0.43939661979675293,-0.8304970860481262,0.3423523008823395,0.13588407635688782,-0.1157156229019165,0.07106932997703552,-0.06861891693008729,-0.46703010351032354,-0.6730966046913516,-0.5693111971619579,0.9799994558682867,-2.232688887648939,-1.7230195085425577
1781516521884127488,2.813528299331665,-0.5953579545021057,0.35401615500450134,1.769227385520935,-0.4552222490310669,-0.8243879675865173,0.33638814091682434,0.02765578031539917,-0.10243076086044312,-0.06832185387611389,-0.06383133258220769,-0.4720028797845551,-0.667388459399309,-0.5724783216324194,0.9691201155542144,-2.2071902208114467,-1.7502595760461126
1781516521894161408,2.8235623836517334,-0.6145638823509216,0.3768557012081146,1.8053085803985596,-0.47121116518974304,-0.8181257247924805,0.3295906186103821,0.1256454885005951,0.08516991138458252,-0.01579374074935913,-0.05889394413216446,-0.47669988417159853,-0.6614775342237074,-0.5759653370087929,0.9581440515950606,-2.1811558584177466,-1.7773927170005681
1781516521904195328,2.8335962295532227,-0.618798017501831,0.27364757657051086,1.7175366878509521,-0.48676297068595886,-0.8116000890731812,0.3230583369731903,0.2403794229030609,0.19584709405899048,0.008682876825332642,-0.054145189352082866,-0.4814378974915562,-0.6555506964639077,-0.5792572766679862,0.9468858490429559,-2.1567333450821935,-1.8033557406025378
1781516521914229504,2.843630313873291,-0.7526136040687561,0.25555431842803955,1.6274118423461914,-0.5011582970619202,-0.8055294752120972,0.316168874502182,0.24030929803848267,0.23050200939178467,0.014214515686035156,-0.050084616463426136,-0.48595727181115117,-0.6495613650899813,-0.5825865895995116,0.936568425410345,-2.1336100978617925,-1.8286815096069986
1781516521924263424,2.8536643981933594,-0.819186806678772,0.24413719773292542,1.555027961730957,-0.5147511959075928,-0.7999378442764282,0.3084324598312378,0.18761807680130005,0.158702552318573,0.06313428282737732,-0.04656733450329572,-0.4901784036517929,-0.6433827470437667,-0.5861870346652277,0.9271916462644917,-2.1106181324057016,-1.8541686871775747
1781516521934298368,2.863699197769165,-0.801258385181427,0.3119295537471771,1.5301042795181274,-0.5278940796852112,-0.7943456768989563,0.30057117342948914,0.0981454849243164,0.05255478620529175,0.07326915860176086,-0.04314710736025584,-0.49414683313603414,-0.637263279188025,-0.5897905223714033,0.9179297183238092,-2.0883950750762854,-1.8786451541571607
1781516521944332288,2.8737332820892334,-0.7878653407096863,0.4129411280155182,1.4999992847442627,-0.5410363674163818,-0.7885998487472534,0.29221639037132263,0.06995165348052979,0.11750286817550659,0.042653024196624756,-0.03947999382375088,-0.4977232075571252,-0.6311733587641088,-0.5935767146926584,0.9085286257580009,-2.0660108104447445,-1.9022871894912714
1781516521954366464,2.8837673664093018,-0.6258689761161804,0.38632017374038696,1.439971685409546,-0.55380779504776,-0.782556414604187,0.2844335436820984,0.130681574344635,0.189294695854187,0.050084829330444336,-0.0355753620390073,-0.5010203465623859,-0.625456144883768,-0.5970909927952194,0.8987614619642595,-2.045261588961639,-1.9235281295081554
1781516521964400384,2.893801212310791,-0.47049108147621155,0.39730265736579895,1.3761484622955322,-0.5658746957778931,-0.7761954665184021,0.2780406177043915,0.1275201439857483,0.11687833070755005,0.02171829342842102,-0.03151008049295363,-0.5041509951082518,-0.6203644730869394,-0.5999890604916359,0.8886089804960896,-2.027497287035482,-1.941331223147951
1781516521974434304,2.9038352966308594,-0.5369889140129089,0.37749138474464417,1.3832674026489258,-0.5776435732841492,-0.7696664929389954,0.27192196249961853,0.08472365140914917,0.04292088747024536,-0.006968379020690918,-0.027404232239417313,-0.5071673152252526,-0.6154204179084746,-0.6027338654344706,0.8783186509016774,-2.010766002684413,-1.957891588263802
1781516521984469504,2.913870334625244,-0.42183512449264526,0.34237775206565857,1.389461874961853,-0.5892714858055115,-0.7628335356712341,0.26616543531417847,0.08814233541488647,0.004929482936859131,-0.016211271286010742,-0.02333844336895503,-0.5103082738366473,-0.6104655517838138,-0.6052871947771603,0.8676841453630408,-1.995051113937808,-1.9737842447234066
1781516521994503424,2.9239044189453125,-0.4511301815509796,0.4753619134426117,1.3369574546813965,-0.6007150411605835,-0.7558512091636658,0.26044270396232605,0.064414381980896,0.08451026678085327,-0.11690330505371094,-0.01907723127977563,-0.5131868988138583,-0.6056901482006293,-0.6077949417329557,0.8569531771078813,-1.9798903387881799,-1.9884098273339526
1781516522004537344,2.9339382648468018,-0.35240572690963745,0.45403942465782166,1.2529274225234985,-0.6118090748786926,-0.748985767364502,0.2543811798095703,0.1786426305770874,0.27271324396133423,-0.1084003746509552,-0.01467689229502916,-0.5156039373634519,-0.6011182634626435,-0.6104047097374937,0.8465300301642437,-1.9648361764488007,-2.0019089728123927
1781516522014571520,2.94397234916687,-0.2513435482978821,0.2702102065086365,1.111132264137268,-0.6215553879737854,-0.7424241900444031,0.24995094537734985,0.2737312316894531,0.2290269136428833,-0.02596721053123474,-0.010757209384222423,-0.5180507495395585,-0.5971590166827118,-0.6122980614653971,0.8366816923916122,-1.9531442965852608,-2.0128121252172453
1781516522024605184,2.9540061950683594,-0.3685375452041626,0.30334311723709106,0.9931496977806091,-0.6299550533294678,-0.7366440892219543,0.24599149823188782,0.14211642742156982,0.0961717963218689,-0.011311337351799011,-0.007504692591548435,-0.5202807370955058,-0.5935517724440796,-0.613960748681916,0.8280945276953137,-1.9430781289053223,-2.0226380517578857
1781516522034640384,2.964041233062744,-0.29387637972831726,0.18058843910694122,0.9970844984054565,-0.637884795665741,-0.7311741709709167,0.2418411672115326,0.06629061698913574,0.021136999130249023,0.09647665917873383,-0.004648230308395146,-0.5224888296099707,-0.5898525287346406,-0.6156766490130537,0.8200415178194101,-1.9331827567015425,-2.032837924622107
1781516522044674304,2.9740753173828125,-0.156361386179924,0.2644616365432739,1.0261489152908325,-0.6457227468490601,-0.7251628637313843,0.23912526667118073,-0.07816940546035767,-0.09183841943740845,0.059382423758506775,-0.0014706378133634618,-0.524849300347844,-0.5865968312229204,-0.6167942825616953,0.8112708956806702,-1.9254593334002512,-2.0407258198446994
1781516522054708480,2.984109401702881,-0.1668880581855774,0.5045735836029053,1.0876355171203613,-0.6543614864349365,-0.7186518907546997,0.2352667897939682,-0.1177942156791687,0.10393637418746948,-0.03131784498691559,0.0025252193482075153,-0.5267347179259145,-0.5832528881614253,-0.6183528315842501,0.8018617036914466,-1.9159414552656895,-2.0483853361518207
1781516522064742400,2.99414324760437,0.019579285755753517,0.41140180826187134,0.9561895728111267,-0.6629041433334351,-0.7120075821876526,0.23152370750904083,0.17044204473495483,0.39612019062042236,-0.022218957543373108,0.006914418005132511,-0.5282731066389708,-0.5802494116129092,-0.6198308668998377,0.7923531951546696,-1.9068088116917743,-2.0544562158307924
1781516522074776320,3.0041773319244385,0.02020992338657379,0.2894740402698517,0.7178859114646912,-0.669615626335144,-0.7063378095626831,0.22956930100917816,0.28008919954299927,0.33857041597366333,-0.08873066306114197,0.010611698636734035,-0.529632970775199,-0.5781639587235474,-0.6205665562534493,0.784311282292602,-1.9010760358271852,-2.0577304056520545
1781516522084811520,3.0142123699188232,-0.14666028320789337,0.16234725713729858,0.6005939245223999,-0.6748039126396179,-0.702057421207428,0.22749772667884827,0.24388045072555542,0.24725395441055298,-0.08232557773590088,0.013190340423391646,-0.530781248549338,-0.57621187976609,-0.6213511022529434,0.7782825196595493,-1.895961435043607,-2.061543761218192
1781516522094845184,3.0242462158203125,-0.10305768251419067,-0.1240224540233612,0.449327677488327,-0.6785296201705933,-0.6988004446029663,0.2264406681060791,0.26950258016586304,0.17200607061386108,0.0830991119146347,0.014496964255289232,-0.5322712352620252,-0.574375891554883,-0.6217470958169987,0.7737191714914698,-1.8928971830498733,-2.0657426783565542
1781516522104879360,3.034280300140381,0.013218059204518795,-0.059780482202768326,0.40096548199653625,-0.6811315417289734,-0.6960742473602295,0.2270248681306839,0.032922983169555664,-0.007950961589813232,0.07789143919944763,0.015327252740923218,-0.5338452511755715,-0.5731681091514134,-0.6214922092038435,0.769915073706524,-1.892521814153069,-2.0680584744223807
1781516522114913536,3.044314384460449,0.11831758171319962,0.1734788715839386,0.4337676167488098,-0.684214174747467,-0.6930589079856873,0.2269807755947113,-0.12518823146820068,0.10776233673095703,0.026909977197647095,0.01697567987488634,-0.5348528138393538,-0.5722087483750932,-0.6214671433180534,0.7657237147015005,-1.8911116184608432,-2.0691676163882446
1781516522124947200,3.0543482303619385,0.2502223551273346,0.23181195557117462,0.27070680260658264,-0.6872438192367554,-0.6900678277015686,0.22694168984889984,0.058718979358673096,0.34631776809692383,0.03540268540382385,0.019271776996227934,-0.5352317855663952,-0.571837198243481,-0.6214160106673984,0.7615827912049846,-1.8897423088520309,-2.0680903885194897
1781516522134981376,3.064382314682007,0.1759885996580124,0.17839667201042175,0.04367685317993164,-0.6887351274490356,-0.6885571479797363,0.22700944542884827,0.22547823190689087,0.39300966262817383,-0.03036940097808838,0.020917441210165928,-0.5349775769909785,-0.5721046366046209,-0.621335548640597,0.7594975612897004,-1.8891862124406462,-2.0658483553964206
1781516522145016320,3.0744173526763916,0.0373028889298439,0.020354967564344406,-0.16135752201080322,-0.6885788440704346,-0.6886826157569885,0.227102592587471,0.32371068000793457,0.3685227036476135,-0.08209824562072754,0.02133608287249442,-0.534493986899084,-0.5725971311433924,-0.6212837794591772,0.7596705403257298,-1.8893756843992304,-2.0641150650491986
1781516522155050240,3.084451198577881,-0.051741763949394226,-0.2310170829296112,-0.3609721064567566,-0.686484694480896,-0.6905834674835205,0.2276693880558014,0.3346322178840637,0.2830212116241455,-0.053307175636291504,0.02014363835591552,-0.5340479925281015,-0.5732603549305567,-0.621095460738922,0.7622954718585478,-1.8910268465954847,-2.0632302338179715
1781516522165084416,3.094485282897949,-0.10103927552700043,-0.3258659541606903,-0.45402348041534424,-0.6829294562339783,-0.6935850977897644,0.22923237085342407,0.1797555685043335,0.10572493076324463,-0.04356345534324646,0.0178035788592359,-0.5337990074755123,-0.5741731476582269,-0.6205376840770975,0.7664539015445038,-1.8946397605697747,-2.062353993795753
1781516522175118336,3.1045193672180176,-0.09526979923248291,-0.2738317847251892,-0.5020306706428528,-0.6789170503616333,-0.6971020698547363,0.23047935962677002,0.025093138217926025,0.13156551122665405,-0.030970662832260132,0.015174431960170803,-0.5333470390333993,-0.5751353042588626,-0.6201050093840769,0.7713476378340268,-1.8980694435646457,-2.061670528161802
1781516522185152256,3.114553213119507,0.18759837746620178,-0.31657806038856506,-0.5493153929710388,-0.6745399236679077,-0.700588047504425,0.23274987936019897,0.01951056718826294,0.21665549278259277,0.06285861134529114,0.012772826609434528,-0.5327540430644866,-0.5766698084547196,-0.6192431149147318,0.7762212876603939,-1.9030543809931943,-2.058820088027538
1781516522195187456,3.1245882511138916,0.32089146971702576,-0.169091135263443,-0.6208564043045044,-0.669788658618927,-0.7039235830307007,0.23637792468070984,-0.08744394779205322,0.17453521490097046,0.012508124113082886,0.010914238667132242,-0.5318348942267601,-0.5790860077365196,-0.6178121457366806,0.7809065264688816,-1.9100649287357305,-2.052527138053289
1781516522205221376,3.13462233543396,0.3610343635082245,-0.006157067604362965,-0.6700873374938965,-0.6650688648223877,-0.7073953151702881,0.23932315409183502,-0.08604508638381958,0.2874886393547058,-0.04999205470085144,0.009618420929265268,-0.5301916756154949,-0.5818576837316899,-0.6166409146775785,0.7858062671116609,-1.9162166124354476,-2.0449107905104826
1781516522215255552,3.1446564197540283,0.3151624798774719,0.006827174220234156,-0.8801108598709106,-0.659637451171875,-0.7116489410400391,0.2417321354150772,0.1186981201171875,0.46192359924316406,-0.12236261367797852,0.008192620021611788,-0.5279109808897569,-0.5849581729568752,-0.6156840720526777,0.7918425152980378,-1.9220608022640946,-2.0365622570764668
1781516522225289472,3.1546902656555176,0.20192591845989227,-0.14469537138938904,-1.179094910621643,-0.6521170139312744,-0.7177955508232117,0.24395321309566498,0.30960291624069214,0.5121222734451294,-0.21500727534294128,0.005529041808055118,-0.5250469644953377,-0.5884745458129086,-0.6148112877256403,0.8006310048572424,-1.9287726669680778,-2.0279672835044744
1781516522235323392,3.164724349975586,0.10505770146846771,-0.5069276094436646,-1.4128248691558838,-0.6418823003768921,-0.7259112000465393,0.24706272780895233,0.43437808752059937,0.4537554979324341,-0.19037629663944244,0.0009538997046425696,-0.522151149364526,-0.5923593001168823,-0.6135696408428067,0.8123583050346302,-1.938221105554558,-2.0192707104397374
1781516522245358592,3.1747593879699707,0.14174380898475647,-0.8037359714508057,-1.541563868522644,-0.6293569803237915,-0.7350127100944519,0.2523215115070343,0.416603684425354,0.2248045802116394,-0.059419870376586914,-0.0052568389476080595,-0.5198137335151322,-0.5966191742405536,-0.6114013431731604,0.8256853860302539,-1.9520951691807717,-2.009535287486223
1781516522255392256,3.18479323387146,0.027887815609574318,-0.9474042057991028,-1.611630916595459,-0.615300714969635,-0.7447458505630493,0.2583763003349304,0.20136040449142456,-0.028386354446411133,0.02203434705734253,-0.012571017457177251,-0.5177364637663412,-0.600946843901514,-0.6088133535136693,0.8401539617457036,-1.9683552516593694,-1.9994970269008738
1781516522265426432,3.1948273181915283,0.15896274149417877,-0.9658764004707336,-1.530869483947754,-0.6009491682052612,-0.7540549635887146,0.26506876945495605,-0.07234495878219604,-0.15376681089401245,0.12836387753486633,-0.02003298978801889,-0.5159611634031928,-0.6052424870610799,-0.6058583669507641,0.8542140665661817,-1.9862106377333546,-1.988694382673057
1781516522275460608,3.2048614025115967,0.309256911277771,-0.5373748540878296,-1.4840034246444702,-0.5873945355415344,-0.7624667286872864,0.2713150978088379,-0.3761063814163208,-0.017821848392486572,0.14454790949821472,-0.02641734484820646,-0.5137455652164855,-0.6096909381611224,-0.6030294191511605,0.8671170060091548,-2.0034986725434054,-1.9761614313342075
1781516522285494272,3.214895248413086,0.49582067131996155,-0.06180555000901222,-1.497171401977539,-0.5752321481704712,-0.7699384689331055,0.2762291133403778,-0.34882479906082153,0.33039391040802,0.04042121767997742,-0.030681785621407595,-0.5101264533252413,-0.6147239704034375,-0.6007861430142828,0.8787447177625574,-2.0184825641811437,-1.9603573843737967
1781516522295529472,3.2249302864074707,0.31907546520233154,0.07805861532688141,-1.7529659271240234,-0.5628177523612976,-0.7779553532600403,0.2793233096599579,0.027981996536254883,0.7029737234115601,-0.11338403820991516,-0.03433265823959049,-0.5050886054538282,-0.6201186665238511,-0.5992992152425038,0.8914050401064159,-2.0314750849408574,-1.943081536190434
1781516522305563392,3.234964370727539,0.09383939951658249,-0.22940266132354736,-2.0750677585601807,-0.5475937128067017,-0.7881093621253967,0.28111281991004944,0.3941667675971985,0.8033530116081238,-0.2901002764701843,-0.03977979398918074,-0.4992851258161501,-0.6255164106360276,-0.5982148632905389,0.9077313697396914,-2.0450748841013486,-1.9263842425758142
1781516522315597312,3.2449982166290283,-0.00602407893165946,-0.7116082310676575,-2.2756879329681396,-0.5288867354393005,-0.7997273802757263,0.2841038405895233,0.547151505947113,0.5125722289085388,-0.3454136848449707,-0.047658178401178114,-0.4938347907462962,-0.6310143628279643,-0.5963864394324507,0.9268409410170432,-2.063738492886364,-1.9088283216566855
1781516522325631488,3.2550323009490967,-0.10041316598653793,-1.1272374391555786,-2.304408311843872,-0.5075225234031677,-0.811994194984436,0.2882472276687622,0.47573840618133545,0.08784246444702148,-0.12268933653831482,-0.05774694288834617,-0.48926085352998705,-0.6361976404634816,-0.5937522609294759,0.9475607433939927,-2.0873159290755763,-1.8912190120210302
1781516522335665408,3.265066385269165,0.16947157680988312,-1.2149792909622192,-2.2030351161956787,-0.48556211590766907,-0.8230543732643127,0.2946377694606781,0.16500535607337952,-0.4131060838699341,0.05225557088851929,-0.06812338964937448,-0.4856033282038149,-0.6414891261943388,-0.5899495610278337,0.9667679756262936,-2.1161988625089214,-1.8705339266374257
1781516522345700608,3.27510142326355,0.26943546533584595,-0.9995814561843872,-2.066610813140869,-0.46438780426979065,-0.8326205611228943,0.3018057942390442,-0.3242321312427521,-0.5998439192771912,0.15220412611961365,-0.0775767394842831,-0.48209744162856966,-0.6469041355824233,-0.5857293367962773,0.9838225709423881,-2.147101510327955,-1.8469203530299485
1781516522355734272,3.285135269165039,0.27926650643348694,-0.3964878022670746,-1.9644224643707275,-0.4453672468662262,-0.8409072160720825,0.3074454367160797,-0.5573182106018066,-0.10208576917648315,0.26024240255355835,-0.0851232830195417,-0.47779941517142305,-0.652250289410532,-0.5822638276262098,0.9989574027221484,-2.174995322528576,-1.822240380107584
1781516522365768448,3.2951693534851074,0.46753737330436707,0.10995635390281677,-2.1312365531921387,-0.4278124272823334,-0.848682701587677,0.31098899245262146,-0.3480207026004791,0.663868248462677,0.024185538291931152,-0.09054180972507782,-0.47160122057502435,-0.6580932905941559,-0.579920395488943,1.0134896618171179,-2.199367343885853,-1.7946895176414097
1781516522375802368,3.3052031993865967,0.6225396990776062,-0.10013589262962341,-2.440176010131836,-0.4084293246269226,-0.8565731644630432,0.31538471579551697,0.11741378903388977,0.984609842300415,-0.364685982465744,-0.09571491782862714,-0.46409645878688155,-0.665061529463628,-0.5771881394636392,1.0285917824957433,-2.2283479538512965,-1.7600215811300566
1781516522385836288,3.315237283706665,0.6882204413414001,-0.6860231161117554,-2.510991334915161,-0.38559025526046753,-0.864307165145874,0.3229450583457947,0.42771968245506287,0.551883339881897,-0.30133864283561707,-0.10270199275016433,-0.4572622920210894,-0.6725947665540095,-0.5726952512874236,1.0437712136544777,-2.2680087376189766,-1.718736051329301
1781516522395871488,3.32527232170105,0.3596242070198059,-0.8374080657958984,-2.4856979846954346,-0.3612517714500427,-0.871934175491333,0.33049681782722473,0.26676931977272034,-0.3184497356414795,-0.035651206970214844,-0.11127940152895233,-0.45128687364796904,-0.6794030919832627,-0.5677750991735983,1.0591388817607081,-2.311764022482969,-1.677317795013453
1781516522405905408,3.335306406021118,-0.03805764392018318,-0.8990613222122192,-2.3277688026428223,-0.33708634972572327,-0.8798656463623047,0.33497700095176697,-0.04052293300628662,-0.8452779054641724,0.14790263772010803,-0.12079153953898707,-0.44561558027909315,-0.6847738690309414,-0.5638448808814307,1.0755794487327417,-2.3530558772643704,-1.6402693022182213
1781516522415939328,3.3453402519226074,-0.13406886160373688,-0.7025296092033386,-2.2489171028137207,-0.3141235411167145,-0.8876798152923584,0.336676687002182,-0.2265259027481079,-0.5698245167732239,0.196709543466568,-0.13027953964664435,-0.4399977605334532,-0.6890140144907574,-0.5609714874021219,1.092281669676813,-2.390835108341953,-1.6067986025355006
1781516522425973504,3.355374336242676,-0.025792723521590233,-0.3960708677768707,-2.2179038524627686,-0.2922653257846832,-0.8948331475257874,0.3374238610267639,-0.24728548526763916,0.2019924521446228,0.1808866560459137,-0.13870532756691345,-0.433733380286282,-0.6932440353016045,-0.5586134666738056,1.108057337467474,-2.4277875264439124,-1.5715743284349044
