time,seconds_elapsed,rotationRateX,rotationRateY,rotationRateZ,gravityX,gravityY,gravityZ,accelerationX,accelerationY,accelerationZ,quaternionW,quaternionX,quaternionY,quaternionZ,pitch,roll,yaw
1781552328454007808,0.061547040939331055,-0.03538637235760689,-0.04838649183511734,-0.004877377301454544,0.038413889706134796,-0.5686242580413818,-0.8216999769210815,0.013893239200115204,-0.03782111406326294,0.007460474967956543,0.9543680762417036,0.29801423318179865,0.018372007750018893,-0.0056147908075777605,0.6048324169566168,0.04671527808551704,-0.026343263743513114
1781552328464043008,0.07158207893371582,-0.09574532508850098,-0.010113001801073551,-0.005913878791034222,0.03819313272833824,-0.5681006908416748,-0.8220723271369934,-0.027283094823360443,-0.058501482009887695,0.022771179676055908,0.9544653544857892,0.29770972065083967,0.01824184217727575,-0.005661081983049675,0.6041961095635972,0.04642619144162679,-0.02633261634948713
1781552328474077952,0.08161711692810059,-0.09568139910697937,0.005513095762580633,0.0018969058291986585,0.03821175917983055,-0.5672756433486938,-0.8226409554481506,-0.04256051778793335,-0.06062352657318115,0.03457033634185791,0.9546141591692138,0.2972313966183235,0.018248509046932506,-0.005670984145316405,0.6031938965197655,0.046416740506025476,-0.02632304831003097
1781552328484112896,0.09165215492248535,-0.07428982853889465,0.012454891577363014,0.027196936309337616,0.03818359598517418,-0.56661057472229,-0.8231005072593689,-0.03485717996954918,-0.04862380027770996,0.038920819759368896,0.9547350568770235,0.29684385008555697,0.018261413727625124,-0.0055820144554905755,0.6023865754812722,0.046356722796857625,-0.026095971340519265
1781552328494148096,0.10168719291687012,-0.06879119575023651,0.028694048523902893,0.02366531826555729,0.038209326565265656,-0.5660325884819031,-0.82349693775177,-0.015214331448078156,-0.029273808002471924,0.02991783618927002,0.9548398425303779,0.2965058142559262,0.018326146655253447,-0.005416854044469853,0.6016852767996717,0.04636561794470806,-0.025733692936532725
1781552328504182784,0.11172199249267578,-0.035913143306970596,0.026101194322109222,0.037181925028562546,0.03826523944735527,-0.56561279296875,-0.8237826824188232,-0.00811387225985527,-0.014434754848480225,0.028403103351593018,0.9549156147512495,0.29625951684280716,0.01841084152853105,-0.005238039454748612,0.60117615335094,0.04641728160989068,-0.02536137357787113
1781552328514217728,0.12175703048706055,-0.022991221398115158,0.03266242519021034,0.044752225279808044,0.03827270120382309,-0.5654305219650269,-0.8239074349403381,-0.009143669158220291,-0.01087862253189087,0.032388269901275635,0.9549495826394402,0.2961492204857649,0.018490946490483842,-0.004992174189178498,0.6009551426397476,0.046419299892735535,-0.024841072971555966
1781552328524252928,0.1317920684814453,0.0027405074797570705,0.03537259250879288,0.07180115580558777,0.0382341593503952,-0.5653519034385681,-0.8239631652832031,-0.005626119673252106,-0.004655420780181885,0.029850006103515625,0.9549657900076591,0.2960971992257271,0.018570267006009725,-0.004671132076508111,0.6008598182504801,0.04636948774603679,-0.02415068451104448
1781552328534286848,0.14182615280151367,0.0388425849378109,0.04423186182975769,0.06060975044965744,0.03815876692533493,-0.5655745267868042,-0.8238139152526855,-0.011303294450044632,-0.006996273994445801,0.029532909393310547,0.9549285873978154,0.29621805357323827,0.018652507385722897,-0.004279179433952787,0.6011297552112159,0.046286558973236004,-0.023311322198844072
1781552328544322048,0.15186119079589844,0.09254255890846252,0.04349789395928383,0.03846823051571846,0.03826368227601051,-0.5661087036132812,-0.8234420418739319,-0.01534498855471611,-0.00362396240234375,0.02499544620513916,0.9548324969000004,0.2965227394904483,0.01879445153779672,-0.004000665927476212,0.6017776214855474,0.04643456971818396,-0.022791247250613236
1781552328554356736,0.1618959903717041,0.13086412847042084,0.036499373614788055,0.048661746084690094,0.03833914175629616,-0.5671263337135315,-0.822737991809845,-0.014031890779733658,0.0070830583572387695,0.02221614122390747,0.9546491549279276,0.2971080937373086,0.01891496884251531,-0.0037441333239700775,0.6030126333362912,0.0465657682982555,-0.0223276930149525
1781552328564391936,0.17193102836608887,0.09612958133220673,0.041761115193367004,0.041932735592126846,0.038373470306396484,-0.5680913329124451,-0.8220704197883606,0.0012993812561035156,0.008688867092132568,0.017520248889923096,0.9544753238585931,0.29766266431200455,0.019019410231346314,-0.0034709667528830582,0.6041847036666911,0.0466451962827453,-0.02181144094626762
1781552328574426880,0.18196606636047363,0.06658953428268433,0.05753954499959946,0.019235149025917053,0.038621824234724045,-0.5687984824180603,-0.8215696215629578,-0.0020007267594337463,-0.017505228519439697,0.022573649883270264,0.9543448662952388,0.2980701281734865,0.019219650250488496,-0.003250033800011844,0.6050442412349052,0.046975219132062346,-0.021474488408992742
1781552328584461824,0.1920011043548584,0.060668524354696274,0.06508880853652954,0.008546818979084492,0.039055295288562775,-0.5693164467811584,-0.8211902379989624,-0.021294068545103073,-0.024631857872009277,0.026176869869232178,0.9542460315083753,0.2983703232441657,0.01949402045818459,-0.0031020355349462864,0.6056741678828695,0.04752356327012369,-0.02135266295327488
1781552328594497024,0.20203614234924316,0.08057431876659393,0.04503414034843445,-0.0016829152591526508,0.0394943431019783,-0.5699064135551453,-0.8207599520683289,-0.015736408531665802,-0.022104084491729736,0.022481143474578857,0.9541336472720897,0.2987134496456833,0.019756083077188766,-0.0030036392316400403,0.6063919736314276,0.048082148856587986,-0.021340742151317902
1781552328604531968,0.21207118034362793,0.08855581283569336,0.0371708907186985,0.0029704261105507612,0.03982049226760864,-0.570637047290802,-0.8202363848686218,-0.0030620768666267395,-0.021571815013885498,0.017288386821746826,0.9539966598775108,0.2991386136808486,0.019947156883964267,-0.0029442040797943037,0.6072813620161771,0.04850949379296687,-0.021374495960684557
1781552328614565888,0.2221050262451172,0.058145973831415176,0.03990648686885834,0.013754097744822502,0.0400671511888504,-0.5712588429450989,-0.8197914361953735,-0.004727799445390701,-0.019622445106506348,0.017438530921936035,0.9538803765837562,0.2994995599663624,0.020106978089682617,-0.002851166411524376,0.6080387801241826,0.04883594754595628,-0.021302835158206676
1781552328624600832,0.23214006423950195,0.021120047196745872,0.05178152397274971,0.017573604360222816,0.040345292538404465,-0.5716152191162109,-0.8195292949676514,-0.015366651117801666,-0.025842607021331787,0.024653196334838867,0.9538119999853562,0.29970529447378874,0.020299934298291248,-0.0027037374056153524,0.6084730622715631,0.04919012022585284,-0.021117047495988965
1781552328634635264,0.24217438697814941,-0.009376876056194305,0.05521833151578903,0.014749587513506413,0.04069734737277031,-0.5716423988342285,-0.8194929957389832,-0.023653287440538406,-0.031445980072021484,0.030720412731170654,0.9538029785046177,0.29971969728331294,0.020533025092171617,-0.0025497617891850426,0.608506127041565,0.049620852527727376,-0.020930454157889394
1781552328644670208,0.2522094249725342,-0.0023509240709245205,0.042549945414066315,0.013762087561190128,0.04100565239787102,-0.5716041326522827,-0.8195042610168457,-0.026052046567201614,-0.032704949378967285,0.0339055061340332,0.9538063324401516,0.29969604143615197,0.020739756125959425,-0.002406156445906922,0.6084595548197114,0.04999544505607693,-0.02074572586086504
1781552328654705152,0.26224422454833984,-0.0024377431254833937,0.03762922063469887,0.016185296699404716,0.041242100298404694,-0.5716075897216797,-0.8194900155067444,-0.010037887841463089,-0.026750564575195312,0.03006136417388916,0.9538029105462288,0.2996964115873108,0.020905599868549767,-0.0022730620615637465,0.6084637250478271,0.05028411990837701,-0.020557468135193286
1781552328664740096,0.2722792625427246,0.0031801951117813587,0.04243742674589157,0.012636901810765266,0.041467856615781784,-0.5716347694396973,-0.8194596767425537,-0.002710539847612381,-0.025945186614990234,0.01953291893005371,0.9537952592485684,0.29971036947647495,0.021067950044521305,-0.002133453052051118,0.6084968557073697,0.05056077452392411,-0.02035259793196016
1781552328674775040,0.2823143005371094,0.02093282714486122,0.03376111388206482,-0.004546346142888069,0.041763585060834885,-0.5717393159866333,-0.8193717002868652,-0.014343544840812683,-0.0242842435836792,0.010762691497802734,0.953772344664004,0.29977123378161136,0.021245273287512998,-0.002063702392443212,0.6086243104615237,0.05092618570373331,-0.020324814308038425
1781552328684810240,0.29234933853149414,0.060611266642808914,0.010104385204613209,-0.00536233838647604,0.041989777237176895,-0.5720664262771606,-0.8191317915916443,-0.010510902851819992,-0.018235087394714355,0.004831254482269287,0.953709473528446,0.29996269481777804,0.02136531422870855,-0.0020622104300900305,0.6090230210347084,0.05121649014068305,-0.02042441929119133
1781552328694844160,0.3023834228515625,0.1245092898607254,-0.014362608082592487,0.012192154303193092,0.04190567135810852,-0.5728660225868225,-0.8185770511627197,0.0029399096965789795,-0.011713385581970215,-0.003871619701385498,0.9535639741610791,0.300427284095564,0.02132880198516947,-0.002045279319089155,0.6099982469577171,0.051148659318587,-0.020395652795552804
1781552328704879104,0.31241822242736816,0.15780173242092133,-0.01699620857834816,0.03590280935168266,0.04160841181874275,-0.5740698575973511,-0.8177484273910522,0.002413194626569748,-0.008739590644836426,-0.0016027092933654785,0.9533468745027068,0.3011250406801688,0.021201004978929447,-0.0019669347288814422,0.6114676886453454,0.05083783212167205,-0.020175430207036868
1781552328714914048,0.32245326042175293,0.12620359659194946,-0.0012028636410832405,0.04978719726204872,0.0412762425839901,-0.5752885341644287,-0.8169084191322327,-0.010834958404302597,-0.01605057716369629,0.011381685733795166,0.9531269360754326,0.30182967594834365,0.021086453931203928,-0.0017892704801350423,0.6129568515090543,0.05048444952715284,-0.019733328118120837
1781552328724949248,0.3324882984161377,0.06507924199104309,0.013258100487291813,0.03149474412202835,0.041077833622694016,-0.576083242893219,-0.8163581490516663,-0.024232130497694016,-0.03280341625213623,0.026548027992248535,0.952982973032679,0.30228769915013187,0.021048993487923807,-0.0015865183086907896,0.6139288092394063,0.05027599372179506,-0.019269270239982147
1781552328734984192,0.34252333641052246,0.04209403693675995,0.007428441196680069,0.01735096424818039,0.041019927710294724,-0.5765429735183716,-0.8160364627838135,-0.021763332188129425,-0.03258782625198364,0.03437447547912598,0.9528987535578147,0.3025528807005061,0.021059958369080173,-0.0014607556366297452,0.6144913537341942,0.050224998699316216,-0.01900498399697928
1781552328745019136,0.3525583744049072,0.03326272964477539,-0.014510545879602432,0.002677478361874819,0.04090647026896477,-0.5768442749977112,-0.8158292174339294,-0.0028510503470897675,-0.022597193717956543,0.02797222137451172,0.952844413414205,0.302727426410314,0.021011955251188416,-0.001427394075356043,0.6148601481963053,0.05009901719057327,-0.018905308750153126
1781552328755054336,0.362593412399292,0.026954233646392822,-0.013449810445308685,-0.02602767013013363,0.04083207622170448,-0.5771212577819824,-0.8156369924545288,0.00029036030173301697,-0.027126729488372803,0.026208341121673584,0.952793880399019,0.3028902889769475,0.02095141964316908,-0.0014977493259636103,0.615199267937644,0.05001981986610865,-0.019037328423660498
1781552328765089024,0.37262821197509766,0.032638486474752426,-0.015374342910945415,-0.0667647123336792,0.040982361882925034,-0.577349841594696,-0.8154677152633667,-0.011410828679800034,-0.020611584186553955,0.022346436977386475,0.9527490264849842,0.3030299872877858,0.020951585100688307,-0.0017476100880122708,0.615479158975358,0.05021401779563275,-0.01963144596434109
1781552328775123200,0.382662296295166,0.06286989152431488,-0.022261545062065125,-0.08490989357233047,0.041274555027484894,-0.5777327418327332,-0.8151817321777344,-0.016051772981882095,-0.017878830432891846,0.021266937255859375,0.9526731927012534,0.3032637839468371,0.020981355560330425,-0.0021397320516966605,0.6159482468299033,0.05058913692876652,-0.02058729935409391
1781552328785158144,0.3926973342895508,0.0662640929222107,-0.024403788149356842,-0.09246235340833664,0.041600678116083145,-0.5782549977302551,-0.8147947788238525,-0.010182831436395645,-0.015159308910369873,0.02080368995666504,0.952570463362898,0.3035812233342744,0.021001263322641385,-0.0026192533188585656,0.6165882051820587,0.05101233864672318,-0.02174724693047934
1781552328795193088,0.40273237228393555,0.041359271854162216,-0.02818308025598526,-0.08889211714267731,0.041919294744729996,-0.5786805748939514,-0.8144761919975281,-0.011233866214752197,-0.01773965358734131,0.02771782875061035,0.952485349923308,0.30384250664417173,0.02101485066925668,-0.003104600666187599,0.6171099490466674,0.051422421241508795,-0.022912293176739547
1781552328805228288,0.4127674102783203,0.007165615446865559,-0.018156815320253372,-0.06288395076990128,0.042170699685811996,-0.5788648724555969,-0.8143322467803955,-0.013194259256124496,-0.0216599702835083,0.03477603197097778,0.9524462154539901,0.30396058254490754,0.021019770178646473,-0.0035042341995603988,0.6173359601037365,0.05173939975432708,-0.023859257557212122
1781552328815262976,0.422802209854126,-0.023260200396180153,-0.008670634590089321,-0.0356624536216259,0.04233551025390625,-0.5787945985794067,-0.8143736720085144,-0.014671329408884048,-0.02777278423309326,0.04006648063659668,0.9524561912540018,0.3039260347711974,0.021026590770733957,-0.0037537030087446428,0.6172497685803363,0.05193860543686894,-0.024444105605932107
1781552328825298176,0.43283724784851074,-0.03118017502129078,-0.007381398230791092,-0.014319348149001598,0.04241402447223663,-0.5785440802574158,-0.814547598361969,-0.015177085995674133,-0.02883201837539673,0.046877920627593994,0.9525013421538667,0.303782908328334,0.021027261778460433,-0.003879471795714894,0.6169426119183107,0.05202366787526089,-0.024726141263722783
1781552328835333120,0.4428722858428955,-0.0016475832089781761,-0.008308444172143936,-0.007064098492264748,0.04239489510655403,-0.5784096717834473,-0.8146440982818604,-0.01317431777715683,-0.019139766693115234,0.05298638343811035,0.9525264602325753,0.3037055447808831,0.020997756091116024,-0.003939766236516581,0.6167778158754854,0.051994098460030204,-0.024838374837806463
1781552328845368064,0.4529073238372803,0.003717088606208563,-0.005808135494589806,-0.014043178409337997,0.04238700494170189,-0.5784441828727722,-0.8146200180053711,-0.009458545595407486,-0.007340729236602783,0.051833152770996094,0.9525199037230524,0.3037268970624127,0.020975440621506785,-0.0039969376809516465,0.6168200746067145,0.051985972514012865,-0.024957092250484085
1781552328855402240,0.46294140815734863,-0.03569716215133667,0.005043713375926018,-0.02175888791680336,0.042495619505643845,-0.5783406496047974,-0.8146878480911255,-0.009063620120286942,-0.011518418788909912,0.05667698383331299,0.9525373375297884,0.30366906818369555,0.02100404600143997,-0.004085606252741162,0.6166931601567123,0.05211461256439299,-0.025180472018001096
1781552328865436928,0.4729762077331543,-0.081904336810112,0.016234714537858963,-0.017170794308185577,0.04268030449748039,-0.5778734683990479,-0.815009593963623,-0.01065211370587349,-0.02294135093688965,0.06479603052139282,0.9526213876655388,0.303398969479802,0.021077547298982143,-0.0041570027565119095,0.616120624061928,0.052320063305551744,-0.025378587899786396
1781552328875472128,0.48301124572753906,-0.15030470490455627,0.0349426232278347,-0.00695650652050972,0.0429353304207325,-0.576955258846283,-0.8156464695930481,-0.0120210200548172,-0.02988678216934204,0.0686829686164856,0.9527884671429804,0.3028645456802113,0.021209082976955226,-0.00415992814580204,0.6149959764338855,0.0525910900649713,-0.025436923252579784
1781552328885507072,0.49304628372192383,-0.18872958421707153,0.060805510729551315,0.0014090146869421005,0.04334050044417381,-0.5755688548088074,-0.8166040182113647,-0.015142258256673813,-0.03510314226150513,0.07549995183944702,0.9530400310420698,0.30205656516939877,0.02144357871852202,-0.004084204309813231,0.61329958690247,0.05302432123690344,-0.02536387317834265
1781552328895542272,0.5030813217163086,-0.22827327251434326,0.07844042778015137,0.008355338126420975,0.04387276619672775,-0.5738713145256042,-0.817769467830658,-0.015354093164205551,-0.03615981340408325,0.07837432622909546,0.9533463775739269,0.301067134583849,0.021767849752493722,-0.003932954232843355,0.6112252461321611,0.0535979260488083,-0.02516440762282456
1781552328905577216,0.5131163597106934,-0.30874547362327576,0.1011647880077362,0.013479259796440601,0.04452159255743027,-0.5717179179191589,-0.8192413449287415,-0.012401841580867767,-0.03634476661682129,0.09173280000686646,0.9537331638019745,0.29981242370068173,0.02217721105671685,-0.0037011619672265724,0.6085982303191829,0.05429149689490688,-0.024815567593028488
1781552328915612160,0.5231513977050781,-0.4662102162837982,0.1442321091890335,-0.033229392021894455,0.04553959146142006,-0.5685480833053589,-0.8213886022567749,-0.010169722139835358,-0.03817188739776611,0.1030048131942749,0.9542966179469511,0.29797231367817406,0.022764042672487016,-0.003510885614858697,0.6047398686903791,0.05538549824976553,-0.02463868142900223
1781552328925647104,0.5331861972808838,-0.5526697039604187,0.14339374005794525,0.023212049156427383,0.04675949737429619,-0.564347505569458,-0.8242120146751404,0.0010005086660385132,-0.04162478446960449,0.11264890432357788,0.9550367953452696,0.29553908470487766,0.023465624401349024,-0.0032794768470868173,0.5996426343745516,0.056671615570123415,-0.024391454842468307
1781552328935681024,0.5432202816009521,-0.5929750204086304,0.18044602870941162,0.05834713205695152,0.04783151298761368,-0.5595989227294922,-0.8273821473121643,0.0063677020370960236,-0.05092048645019531,0.1281176209449768,0.9558679435347882,0.292787555079198,0.024173639264182246,-0.002762926688156777,0.5939017424984995,0.05774639328112233,-0.0234557237555594
1781552328945716224,0.5532553195953369,-0.6269391179084778,0.2250349372625351,0.036880187690258026,0.04925277456641197,-0.5545955300331116,-0.8306611776351929,-0.013806603848934174,-0.06324809789657593,0.14866960048675537,0.9567267372886965,0.28989569938368503,0.02509791433292279,-0.002119871032802677,0.5878768091457556,0.05922412031325462,-0.022363816889299188
1781552328955751168,0.5632903575897217,-0.8571499586105347,0.17030377686023712,-0.23641926050186157,0.051362283527851105,-0.5484946370124817,-0.8345751166343689,-0.017762433737516403,-0.09042137861251831,0.1707567572593689,0.9577486888874989,0.2864069002056001,0.026144673341517464,-0.0022384790970603496,0.58056280784084,0.06146551346047648,-0.02304065164141451
1781552328965786112,0.5733253955841064,-1.0654616355895996,0.16760879755020142,-0.10669348388910294,0.054023828357458115,-0.540168285369873,-0.8398211598396301,0.043159399181604385,-0.24906206130981445,0.2098163366317749,0.9591153495631247,0.281679235876648,0.027316972601376163,-0.002881953137022568,0.570637089072205,0.06423926400920484,-0.024858272498316823
1781552328975821056,0.5833601951599121,-1.1765506267547607,0.10878115892410278,0.019799474626779556,0.05507098510861397,-0.5303545594215393,-0.8459853529930115,0.08352459967136383,-0.2167310118675232,0.21869653463363647,0.9607213190117362,0.27609733657982155,0.027885082317496944,-0.0027008540083203816,0.559018743425836,0.06500513263589273,-0.024286551320005918
1781552328985856000,0.5933952331542969,-1.043703317642212,0.19887150824069977,0.05027775093913078,0.05626283958554268,-0.5208879709243774,-0.8517688512802124,0.015789158642292023,-0.05140817165374756,0.20200389623641968,0.9622263227233306,0.27073369830149563,0.02861513125382778,-0.0022058085113836013,0.5478908234424896,0.06595829666173672,-0.02312595462587357
1781552328995891200,0.6034302711486816,-0.6873601675033569,0.190596804022789,0.3500750958919525,0.05703036114573479,-0.5133532285690308,-0.8562803268432617,0.0008767358958721161,-0.02973759174346924,0.16966533660888672,0.9633999072485149,0.2664561831735464,0.029341720544768368,-0.000928369594251419,0.5390876466447994,0.06650422325808421,-0.02030646051990205
1781552329005926144,0.6134653091430664,-0.3331451117992401,0.24973149597644806,0.5957674384117126,0.05632203817367554,-0.5096038579940796,-0.8585637807846069,0.060148291289806366,-0.07387703657150269,0.16654717922210693,0.9639911042485133,0.2642643944980494,0.029705661442787773,0.0017973465203314574,0.5347242879963616,0.06550643391992166,-0.014220509975225035
1781552329015960320,0.6234993934631348,-0.47339940071105957,0.33816975355148315,0.6880635619163513,0.055744268000125885,-0.5064582824707031,-0.8604606986045837,0.059566397219896317,-0.13976669311523438,0.18040698766708374,0.9644693997870795,0.26238788552252984,0.030368517318994048,0.005401814787129273,0.5310723286724016,0.06469380809941207,-0.006398187212343304
1781552329025995008,0.6335341930389404,-0.5794709324836731,0.3956232964992523,0.7467635869979858,0.05534214898943901,-0.5023240447044373,-0.8629065752029419,0.06555323302745819,-0.16399669647216797,0.23941725492477417,0.965072166977921,0.25994682791830187,0.03121452585603512,0.009437300309392273,0.526284452884136,0.06404685720537596,0.0022980996061937623
1781552329036029952,0.6435692310333252,-0.6274752616882324,0.34126606583595276,0.8375784754753113,0.0544603057205677,-0.4975558817386627,-0.8657206296920776,0.1006758064031601,-0.21112331748008728,0.24929606914520264,0.965747218788906,0.2571431000958299,0.0318921066723676,0.013881609731379191,0.520778858087491,0.0628246970538058,0.012001900349975062
1781552329046065152,0.65360426902771,-0.678464412689209,0.4252375364303589,0.8309924602508545,0.05354662239551544,-0.49229830503463745,-0.8687779903411865,0.09890393912792206,-0.21171170473098755,0.269428014755249,0.966460686370226,0.25406736008401953,0.032569839160520725,0.018515395894900515,0.5147282368447983,0.061556548060282594,0.022104685358920434
1781552329056100096,0.6636393070220947,-0.59574955701828,0.5702126026153564,0.903727650642395,0.053769685328006744,-0.4870986342430115,-0.8716902136802673,0.03325118124485016,-0.1692429482936859,0.26814407110214233,0.967107832448677,0.2510129542983847,0.03387330846349835,0.023402374255287715,0.5087645243356346,0.061606341552438444,0.03236387669738414
1781552329066135296,0.6736743450164795,-0.34951820969581604,0.6527774930000305,1.0514198541641235,0.05437218025326729,-0.4834519624710083,-0.8736806511878967,0.006205212324857712,-0.10680374503135681,0.23294883966445923,0.9674700510467921,0.24878712686118226,0.03556191703046596,0.029016769978205036,0.504593877718794,0.062153317644073586,0.04393953916468591
1781552329076170240,0.6837093830108643,-0.11340899765491486,0.7557552456855774,1.097769021987915,0.055299900472164154,-0.48207148909568787,-0.8743849396705627,0.012510158121585846,-0.09945622086524963,0.18981462717056274,0.9674479970951226,0.247779578229364,0.037587482620473685,0.03516829055245689,0.5030175354609346,0.06316022352085374,0.0564371749037109
1781552329086205184,0.693744421005249,-0.015615330077707767,0.8709670901298523,1.1177997589111328,0.057034365832805634,-0.48222053050994873,-0.8741912841796875,0.019320614635944366,-0.14183342456817627,0.1820068359375,0.9671437338459946,0.24757624629409403,0.04012916881435454,0.0415770572511352,0.5031876635033397,0.0651500957447088,0.06917442010698359
1781552329096240128,0.7037792205810547,-0.024308420717716217,0.9223685264587402,1.162162184715271,0.05925341323018074,-0.4828107953071594,-0.8737177848815918,0.03629712387919426,-0.18476122617721558,0.1767573356628418,0.9667118788840128,0.24757222288466846,0.04300107618450134,0.0482402472432288,0.5038615476560587,0.06771387919079314,0.08228428643170618
1781552329106274048,0.713813304901123,-0.12044213712215424,1.0037609338760376,1.1639139652252197,0.06209072098135948,-0.48287415504455566,-0.8734857439994812,0.05311313271522522,-0.20245909690856934,0.1728021502494812,0.9662856449284485,0.24722558676226072,0.04622382346000019,0.055091611924095056,0.5039339216160591,0.07096447686070326,0.09562817639886882
1781552329116309248,0.7238483428955078,-0.22256077826023102,1.0356312990188599,1.2040687799453735,0.06531883031129837,-0.4821425974369049,-0.8736543655395508,0.06804297119379044,-0.1910751461982727,0.17112451791763306,0.9659021179734825,0.24638699906140665,0.049661373005012964,0.06213237359926995,0.5030987100450636,0.07462622884907033,0.10928777696056247
1781552329126344192,0.7338833808898926,-0.3591141104698181,1.0974500179290771,1.256935477256775,0.0687130019068718,-0.4804378151893616,-0.8743329048156738,0.0919315293431282,-0.16661113500595093,0.17927980422973633,0.9655780546306227,0.24495488054288989,0.05320388361937113,0.06946585653469092,0.501153853277778,0.07842786475789407,0.12355329080976642
1781552329136379136,0.7439184188842773,-0.43603792786598206,1.1820684671401978,1.3342307806015015,0.07246135920286179,-0.4778401851654053,-0.8754531145095825,0.10992694646120071,-0.14571020007133484,0.19134056568145752,0.9652774915119958,0.24295536595485392,0.05697490499228309,0.07724017111341741,0.4981944003824329,0.08258187729493233,0.13867860696584738
1781552329146414080,0.753953218460083,-0.4306492805480957,1.1735228300094604,1.4473289251327515,0.07605569064617157,-0.4751162827014923,-0.8766299486160278,0.11463338881731033,-0.1568112075328827,0.18397247791290283,0.9648827157301788,0.24081785244770781,0.06076009260911415,0.08553567440749894,0.4950961725728761,0.08654247028827113,0.15495048584797774
1781552329156449024,0.7639882564544678,-0.5806297063827515,1.2479922771453857,1.4763495922088623,0.0797506719827652,-0.4719364643096924,-0.8780180811882019,0.10752043128013611,-0.18413040041923523,0.17312312126159668,0.9644307770122489,0.23835440222206558,0.06463842108367006,0.09424598511779993,0.49148594478664737,0.0905817713795737,0.17209156869439535
1781552329166484224,0.7740232944488525,-1.1888259649276733,1.2699555158615112,1.4225801229476929,0.08410032093524933,-0.4658203721046448,-0.8808737397193909,0.09322205930948257,-0.20408624410629272,0.12017732858657837,0.9642684754357294,0.23420377503041884,0.06864201983814915,0.10306911539212422,0.4845614932561617,0.09518523941288476,0.18942788288168733
1781552329176519168,0.7840583324432373,-2.8008575439453125,1.0510703325271606,1.4173773527145386,0.08808068931102753,-0.44968730211257935,-0.8888324499130249,0.11035986989736557,-0.21971577405929565,-0.0764995813369751,0.9653469587887327,0.22460867740993196,0.07165698816636724,0.11189911293697233,0.4664152289738514,0.09877457996092578,0.20732196486794502
1781552329186553344,0.7940924167633057,-3.9266724586486816,0.547430694103241,1.9018378257751465,0.08815720677375793,-0.4202371835708618,-0.903121829032898,0.17560622096061707,-0.29915371537208557,-0.30796825885772705,0.9678271426876361,0.20806149015647496,0.07176009665901954,0.12194840396372866,0.43370667720717027,0.09730558312457381,0.22922913292658037
1781552329196588032,0.8041272163391113,-3.457753896713257,0.3459108769893646,2.114266872406006,0.08351919800043106,-0.3876000642776489,-0.9180363416671753,0.21201303601264954,-0.5370215177536011,-0.1281062364578247,0.9701186898341818,0.190219389307387,0.06927054266462297,0.13374583243374413,0.3980267071673766,0.09072616094195063,0.2556936273200535
1781552329206622976,0.8141622543334961,-3.131361484527588,0.4833579659461975,1.755117654800415,0.08021487295627594,-0.3589326739311218,-0.9299101829528809,0.10267698019742966,-0.5543668866157532,0.15657949447631836,0.9716180536876405,0.17469475221756733,0.06728045388753959,0.1446149215765467,0.36712410576313764,0.08604787841766177,0.27952466472937987
1781552329216658176,0.8241972923278809,-2.2641561031341553,0.44337648153305054,1.9378451108932495,0.07830149680376053,-0.3348081707954407,-0.9390273690223694,0.04971975088119507,-0.08767718076705933,0.16108852624893188,0.972387035294468,0.1616472753156888,0.06600366310814378,0.1548455363984662,0.34140164857243366,0.08319328117264231,0.30148480496814406
1781552329226693120,0.8342323303222656,-1.9875720739364624,0.38440263271331787,2.009540557861328,0.0756174847483635,-0.31688928604125977,-0.9454433917999268,0.1415303498506546,0.16005945205688477,0.15482449531555176,0.972276328507847,0.15193808092108868,0.06475439347199766,0.16553073191212034,0.32244793589820503,0.07981108310343682,0.3242807896601507
1781552329236728064,0.8442673683166504,-2.4187979698181152,0.4879082441329956,2.008645534515381,0.07354582846164703,-0.2978127896785736,-0.9517870545387268,0.08970797061920166,0.1458810269832611,0.04886347055435181,0.9720059306321909,0.1416682817734387,0.06353412067592293,0.17634596167925762,0.30240066038144275,0.07711806146445786,0.3471896421252803
1781552329246763264,0.8543024063110352,-3.652674674987793,0.625590980052948,1.9429879188537598,0.07317899912595749,-0.2707274854183197,-0.9598705172538757,0.013612993061542511,-0.0842987596988678,0.04115408658981323,0.9720269406185819,0.1272760546649425,0.062173433864008046,0.18734674771317605,0.2741486618029504,0.07609120780038044,0.37030588843068024
1781552329256797952,0.8643372058868408,-5.333362579345703,0.6915284395217896,1.8781471252441406,0.07483355700969696,-0.22864142060279846,-0.9706302285194397,-0.03346697986125946,-0.34778985381126404,0.0751224160194397,0.9726009260938585,0.1053114399788359,0.05995321388372115,0.19839984350607373,0.23068191131234764,0.07694568795769653,0.3935373436429599
1781552329266832128,0.8743712902069092,-6.836511611938477,0.5895921587944031,1.8836684226989746,0.07743309438228607,-0.17031079530715942,-0.982343316078186,-0.027063831686973572,-0.4877092242240906,0.11448442935943604,0.973249359993172,0.07542600554989065,0.05602918645495708,0.20966009013049147,0.1711450602231557,0.07866223116885088,0.4176092137938082
1781552329276867072,0.884406328201294,-8.031519889831543,0.39586153626441956,1.8153737783432007,0.07977743446826935,-0.09788674116134644,-0.9919948577880859,0.03245096653699875,-0.49233847856521606,0.11278343200683594,0.9732550439594037,0.03898122629876708,0.04983019121730872,0.22084396682042523,0.09804374443184623,0.08024851096957118,0.4423293470218813
1781552329286902272,0.8944413661956787,-8.672667503356934,0.22295792400836945,1.7513196468353271,0.08187276870012283,-0.015566263347864151,-0.9965212345123291,0.07726114243268967,-0.36897048354148865,0.1486971378326416,0.9719429574029668,-0.0019149306349724577,0.04166201051292133,0.23148990788578527,0.01556689197113338,0.08197446868261843,0.4669938719701379
1781552329296937216,0.9044764041900635,-8.855425834655762,-0.008827095851302147,1.7435965538024902,0.08341514319181442,0.07066164910793304,-0.9940064549446106,0.10535133630037308,-0.19772158563137054,0.1380952000617981,0.9688324044240377,-0.0444390709043916,0.03196775966917303,0.24159300967373235,-0.07072058488286097,0.08372194447648858,0.49172556084201846
1781552329306971904,0.9145112037658691,-8.785994529724121,-0.17877206206321716,1.707398533821106,0.08441673964262009,0.15693490207195282,-0.9839945435523987,0.11001075059175491,-0.05822579562664032,0.10121256113052368,0.9637903892140491,-0.08692488377402717,0.02113754259953101,0.2512077913982238,-0.15758633037773065,0.08558029946861223,0.5167067323731239
1781552329317007104,0.9245462417602539,-8.610003471374512,-0.3179534077644348,1.6214351654052734,0.08537116646766663,0.24078184366226196,-0.9668173789978027,0.07165703177452087,0.019624650478363037,0.042287349700927734,0.9569728352879086,-0.12844105769988717,0.009705617037903739,0.2600225444848477,-0.2431713182913318,0.0880727998039294,0.5413849890242304
1781552329327042048,0.9345812797546387,-8.167901039123535,-0.5955476760864258,1.565711498260498,0.08549884706735611,0.3200138509273529,-0.9435470700263977,0.01794048398733139,0.032632023096084595,-0.013911426067352295,0.9486156943639715,-0.16798988351174818,-0.0024206416000974933,0.2681452117370332,-0.32574410274092547,0.09036749481582233,0.5658255209920683
1781552329337077248,0.9446163177490234,-7.65459680557251,-0.8235142827033997,1.4951614141464233,0.08430597931146622,0.39241400361061096,-0.9159168601036072,-0.018128618597984314,0.02741628885269165,-0.08048200607299805,0.9391118112639428,-0.20447985726334986,-0.015150858379482074,0.2757305270039228,-0.40325465097511987,0.09178681183598023,0.5899384218896256
1781552329347111168,0.9546504020690918,-7.187850475311279,-0.995216429233551,1.4426672458648682,0.08227389305830002,0.4584347605705261,-0.8849115967750549,-0.049528539180755615,0.07687404751777649,-0.09967696666717529,0.9286974233243572,-0.23821509869935287,-0.028244617197599676,0.28280175516560696,-0.47623317347194494,0.09270761775949336,0.6137038584189224
1781552329357146112,0.9646852016448975,-6.418798923492432,-1.1364434957504272,1.4504016637802124,0.0800975039601326,0.5165824890136719,-0.852482795715332,-0.0743449404835701,0.13588333129882812,-0.09302806854248047,0.917782484993233,-0.268457739036489,-0.041098048166843155,0.28968366547057106,-0.5428548095445671,0.09368288197227896,0.6375646699028918
1781552329367181056,0.9747202396392822,-5.748579025268555,-1.2322566509246826,1.439221978187561,0.07795443385839462,0.5664573907852173,-0.8203957080841064,-0.07394137233495712,0.15235364437103271,-0.13515543937683105,0.9067858409206302,-0.2948657687212498,-0.05344466000136836,0.2965419766655141,-0.6022006485766824,0.09473609266652634,0.6615647357399883
1781552329377216000,0.984755277633667,-4.971217632293701,-1.3335648775100708,1.4533848762512207,0.0761098861694336,0.6087636947631836,-0.7896923422813416,-0.06696987897157669,0.1951303482055664,-0.06890445947647095,0.8959786996760948,-0.31767091283609983,-0.06510774554681503,0.30342751326278916,-0.6545013389131978,0.09608239078256166,0.685702346517032
1781552329387251200,0.9947903156280518,-3.971341848373413,-1.4400241374969482,1.4647555351257324,0.0745173916220665,0.6425520181655884,-0.7626100182533264,-0.058358341455459595,0.18865519762039185,-0.08402383327484131,0.8858892552607217,-0.3360805959987758,-0.07579467768217328,0.3106528271850293,-0.6978242255611344,0.09740441391301154,0.7099988572161111
1781552329397286144,1.0048253536224365,-3.0124638080596924,-1.46566903591156,1.420605182647705,0.07301126420497894,0.6677470803260803,-0.740799069404602,-0.07290444523096085,0.12783092260360718,-0.16517627239227295,0.877047173738491,-0.34976499110398446,-0.08523454624432224,0.3181003081421698,-0.7311781036363165,0.09824018499634479,0.7335099499405698
1781552329407321088,1.0148603916168213,-1.991783857345581,-1.4106934070587158,1.4835984706878662,0.07225354760885239,0.685185968875885,-0.7247756123542786,-0.11078198254108429,0.10451740026473999,-0.16919106245040894,0.8696078061690778,-0.35911101410964713,-0.09301332708996678,0.3258376493853045,-0.754858992400813,0.09936262376855495,0.7564246649833061
1781552329417356032,1.024895191192627,-0.9909141659736633,-1.3681142330169678,1.5771985054016113,0.07286081463098526,0.6947648525238037,-0.7155370116233826,-0.10929879546165466,0.06144547462463379,-0.2023402452468872,0.8637180330743854,-0.363990145726482,-0.09870499527149813,0.33430490314846695,-0.7680928821095857,0.1014769942003219,0.7796293383178432
1781552329427390976,1.0349302291870117,-0.2315734475851059,-1.3544626235961914,1.6337374448776245,0.07433942705392838,0.6978286504745483,-0.7123965620994568,-0.08083966374397278,0.018846213817596436,-0.2317715287208557,0.8592041182605176,-0.3650497965246866,-0.10266625756542276,0.343462685044501,-0.7723614888670126,0.10397487127956637,0.8028810915331781
1781552329437425152,1.04496431350708,0.3482699394226074,-1.2945865392684937,1.6411808729171753,0.076296865940094,0.6960821151733398,-0.7138966917991638,-0.0529203861951828,0.02388852834701538,-0.15420633554458618,0.8557831601753418,-0.36328055746412535,-0.10525628311122878,0.3529640752565689,-0.7699260402926237,0.10646967459833763,0.8255517877608602
1781552329447460096,1.0549993515014648,0.8354441523551941,-1.2457133531570435,1.6770278215408325,0.07870122045278549,0.6905190348625183,-0.7190199494361877,-0.053173258900642395,0.08023291826248169,-0.045414865016937256,0.8532266792641825,-0.35933852627446966,-0.10661076838238343,0.36264901441143266,-0.7622063586418011,0.10902223925295634,0.8475170830469363
1781552329457495296,1.0650343894958496,1.3495762348175049,-1.184262752532959,1.7756212949752808,0.08175863325595856,0.6812279224395752,-0.7274916172027588,-0.06373801082372665,0.1691749095916748,0.05628800392150879,0.8513328959858489,-0.353362728044086,-0.10671914627757537,0.3727977728934342,-0.7494386912688347,0.11191470798314077,0.8695457526262348
1781552329467529984,1.0750691890716553,1.8273541927337646,-1.1390806436538696,1.8592948913574219,0.08549527078866959,0.6679591536521912,-0.7392706871032715,-0.06932096183300018,0.19625288248062134,0.047925472259521484,0.8500697730765532,-0.3453132084314318,-0.10546779971600066,0.3834276223187449,-0.7314630883150405,0.11513664743870715,0.8915951076943018
1781552329477564928,1.08510422706604,2.057819366455078,-1.1115435361862183,1.9300044775009155,0.08961158990859985,0.6515302062034607,-0.7533114552497864,-0.07076699286699295,0.1356096863746643,-0.029891669750213623,0.8491433487053932,-0.3357031570993778,-0.10318753144461215,0.3944758889124205,-0.709599760395667,0.1184005018060983,0.9136964378497489
1781552329487600128,1.0951392650604248,1.969580054283142,-1.095679521560669,1.957295536994934,0.09371359646320343,0.6342783570289612,-0.7674039006233215,-0.05105002224445343,0.05308431386947632,-0.06777065992355347,0.8480448913656395,-0.3258496588238192,-0.10059849842144127,0.40561294516111407,-0.6870747615128522,0.12151603427180183,0.9357771944265644
1781552329497635072,1.1051743030548096,1.655868411064148,-1.0651780366897583,1.9360535144805908,0.09755126386880875,0.6181718707084656,-0.7799662351608276,-0.03445616364479065,-0.034584224224090576,-0.06779682636260986,0.8464519942087829,-0.31679611410498043,-0.09827059009383093,0.41653594041260744,-0.666414832758264,0.12442503391940846,0.9577235309649281
1781552329507670272,1.1152093410491943,1.1625103950500488,-1.0186439752578735,1.9058775901794434,0.1011200025677681,0.6051357984542847,-0.7896742224693298,-0.024017341434955597,-0.06824010610580444,-0.010923922061920166,0.8440869870416932,-0.30953594214201485,-0.09669739249269607,0.4270296099130742,-0.6499364597603641,0.1273596999837277,0.9796848072861016
1781552329517705216,1.125244379043579,0.7546872496604919,-0.9885497093200684,1.8897241353988647,0.10453275591135025,0.5956219434738159,-0.7964341640472412,-0.013819262385368347,-0.017069697380065918,0.10626393556594849,0.8409585969171771,-0.3042575281067493,-0.09597013977546945,0.4370419111436822,-0.638039659994827,0.13050498245813283,1.0017187786595632
1781552329527739136,1.1352782249450684,0.5517085790634155,-0.9770352840423584,1.8758152723312378,0.1078270748257637,0.588502049446106,-0.8012731075286865,0.0078192800283432,0.07902413606643677,0.1782262921333313,0.8372841514236841,-0.300296506114436,-0.09584079141363382,0.44675682177224857,-0.6292048458464212,0.13376609703339537,1.0238831332800582
1781552329537774080,1.1453132629394531,0.49476855993270874,-0.9871501922607422,1.8422147035598755,0.11081103980541229,0.5822349190711975,-0.8054336905479431,0.04290600121021271,0.1709999442100525,0.1422257423400879,0.8333859114043964,-0.2967632498517589,-0.09599331421928,0.4562727892225021,-0.6214748752562608,0.1367210311112674,1.0458007394458975
1781552329547809024,1.155348300933838,0.3617918789386749,-0.9687345027923584,1.759407639503479,0.11335808783769608,0.5766485929489136,-0.8090898394584656,0.07151739299297333,0.18790829181671143,0.042457759380340576,0.8293891471462601,-0.29353456467013395,-0.0963978216730079,0.4654659729637149,-0.6146205746515675,0.13919959725929149,1.0670674455113076
1781552329557844224,1.1653833389282227,0.07034778594970703,-0.9645512104034424,1.6235705614089966,0.11524708569049835,0.5728433132171631,-0.8115224242210388,0.08729807287454605,0.12657380104064941,-0.05122476816177368,0.825272480672753,-0.291125430820437,-0.09738981949985889,0.4740110886510487,-0.6099705505753472,0.14107012759329515,1.087196470934394
1781552329567879168,1.1754183769226074,-0.3742262125015259,-0.9712479710578918,1.4608089923858643,0.11619983613491058,0.572202742099762,-0.8118384480476379,0.10213817656040192,0.06135737895965576,-0.08144158124923706,0.8208910721172444,-0.29014300885802574,-0.09948780469984976,0.481723022818188,-0.6091892511940002,0.14216613406528217,1.1061197329682706
1781552329577914112,1.1854534149169922,-0.9111972451210022,-0.9499791860580444,1.2883658409118652,0.11625199764966965,0.5758501887321472,-0.8092477917671204,0.11334698647260666,0.04020816087722778,-0.03668421506881714,0.8161172845447339,-0.29113967035769106,-0.10302328577667327,0.4884428312810379,-0.6136437037297211,0.14267827392740595,1.1238989251625024
1781552329587949056,1.1954882144927979,-1.2799502611160278,-0.9111935496330261,1.1275274753570557,0.11567903310060501,0.5833911299705505,-0.8039111495018005,0.10267423093318939,0.05354118347167969,0.002855241298675537,0.8110375111269594,-0.29397995334701904,-0.10779715021653437,0.4941392991728393,-0.6228977768607544,0.14291429943015013,1.1404909204429183
1781552329597984000,1.2055232524871826,-1.4285730123519897,-0.8465157151222229,1.008048176765442,0.11486444622278214,0.5931501984596252,-0.7968556880950928,0.09140386432409286,0.10170453786849976,0.03988242149353027,0.8058638116351672,-0.2979186766124103,-0.11321050923791014,0.49901026141595384,-0.6349660380438175,0.14316099871471638,1.1559842261507431
1781552329608018176,1.215557336807251,-1.3971998691558838,-0.7737284898757935,0.8669903874397278,0.11403419822454453,0.6033197045326233,-0.7893044948577881,0.09243246912956238,0.1795477271080017,0.059842824935913086,0.8009077052624611,-0.3021196987751904,-0.1186231618733332,0.5031889826506017,-0.647657255338135,0.14348149460739845,1.170131674986145
1781552329618053120,1.2255923748016357,-1.4052423238754272,-0.6835365295410156,0.7753249406814575,0.11321358382701874,0.6134693622589111,-0.7815613150596619,0.05844779312610626,0.19782519340515137,0.08908694982528687,0.7962589613036164,-0.30638665355944134,-0.12388127695728597,0.5067073499829213,-0.6604462743287113,0.14385506043426746,1.1828382557384762
1781552329628088832,1.2356278896331787,-1.2793822288513184,-0.5890409350395203,0.7354273200035095,0.1128956750035286,0.6231679916381836,-0.7738967537879944,0.016819290816783905,0.19142240285873413,0.21980434656143188,0.7918476570200398,-0.31062213452893805,-0.12870704643379607,0.5098291179752821,-0.6727869173141637,0.14485769985158295,1.194808202882924
1781552329638123776,1.2456629276275635,-1.0679998397827148,-0.49460336565971375,0.730909526348114,0.1132776141166687,0.6313658356666565,-0.7671670913696289,-0.009838290512561798,0.17646491527557373,0.2616282105445862,0.7877869095701737,-0.31432895599933053,-0.13271684881882345,0.5128111755230509,-0.6833132234205196,0.14659774589152863,1.2062999324414003
1781552329648158720,1.2556979656219482,-0.85457444190979,-0.39169710874557495,0.6934665441513062,0.1143990084528923,0.6380166411399841,-0.7614772319793701,-0.025913290679454803,0.1707448959350586,0.2751796841621399,0.7841063317182806,-0.3174977791522364,-0.13585486082951087,0.5156702503225258,-0.6919198151567049,0.14911780761767446,1.217310694525577
1781552329658193920,1.265733003616333,-0.6029145121574402,-0.30605223774909973,0.6858219504356384,0.11616145819425583,0.6427632570266724,-0.7572066783905029,-0.03336726874113083,0.15998637676239014,0.24248194694519043,0.7809251904354853,-0.31992274821831695,-0.13800759099671744,0.5184199438210736,-0.6980998905487565,0.15222114213722196,1.2275992922244747
1781552329668228864,1.2757680416107178,-0.26946571469306946,-0.2921605110168457,0.6542126536369324,0.11825558543205261,0.645322322845459,-0.7547017335891724,-0.01368711143732071,0.12272876501083374,0.13376057147979736,0.7782570423809514,-0.321344332991657,-0.13923707239503888,0.5212166787378624,-0.7014451806223276,0.15542800640846358,1.2371934493228167
1781552329678263552,1.2858028411865234,-0.04694822058081627,-0.32301563024520874,0.5895487070083618,0.11992833763360977,0.6456813216209412,-0.7541305422782898,-0.001977890729904175,0.06385236978530884,0.029505908489227295,0.7761784062916497,-0.32153277422920146,-0.13982635230367563,0.5240348022533593,-0.7019152153151385,0.15770798429958285,1.2455448792002781
1781552329688297728,1.2958369255065918,0.06798422336578369,-0.353961706161499,0.5325573086738586,0.12096480280160904,0.6449030041694641,-0.7546308636665344,-0.006630696356296539,0.08338373899459839,0.026374638080596924,0.7744859329797164,-0.3209728666346426,-0.14021768072765886,0.5267704552606435,-0.7008963611664654,0.158944504039861,1.2527716054277278
1781552329698332672,1.3058719635009766,0.07473906874656677,-0.36120712757110596,0.4888710677623749,0.12151657789945602,0.6436296701431274,-0.7556285858154297,-0.023463599383831024,0.11088693141937256,0.04597282409667969,0.7730238642724373,-0.32003929467264397,-0.140572228619361,0.5293849215307151,-0.6992314283560366,0.15945003224304483,1.2591766244502438
1781552329708367872,1.3159070014953613,0.06073882803320885,-0.33567166328430176,0.45787933468818665,0.12187626212835312,0.6426166892051697,-0.7564323544502258,-0.04997687041759491,0.08924055099487305,0.10347825288772583,0.7716129435212521,-0.3192080558901485,-0.1410320955527195,0.5318171580809481,-0.6979086302115591,0.15974696575932243,1.2651496954304517
1781552329718402816,1.325942039489746,0.14222091436386108,-0.3028053045272827,0.4919038712978363,0.12244824320077896,0.64127117395401,-0.7574812173843384,-0.07375743985176086,0.05539935827255249,0.16649305820465088,0.7702990718393398,-0.3182870890593167,-0.14125414942687134,0.5342097312691259,-0.6961537837562127,0.16026547017683224,1.2709741209786334
1781552329728437760,1.3359768390655518,0.23898020386695862,-0.2756410837173462,0.532604455947876,0.1235300824046135,0.6391818523406982,-0.7590697407722473,-0.07062786817550659,0.04349637031555176,0.17746573686599731,0.7690175783894959,-0.31712910219764096,-0.1410470367477394,0.536793034012657,-0.6934339470870383,0.1613245358766813,1.2771962883391643
1781552329738472704,1.3460118770599365,0.38998010754585266,-0.2608160674571991,0.5350050330162048,0.12488063424825668,0.6361677050590515,-0.7613773345947266,-0.06119045615196228,0.038820087909698486,0.14840126037597656,0.7678760529090932,-0.31558853859100033,-0.14041087795761342,0.5394950958140641,-0.6895210524350728,0.1625718389942411,1.283404170309865
1781552329748507648,1.3560469150543213,0.3839570879936218,-0.24703474342823029,0.5468126535415649,0.12638655304908752,0.6324161887168884,-0.764248788356781,-0.06513778865337372,0.005309641361236572,0.11662006378173828,0.76686896679027,-0.31373898154654895,-0.13943979577232588,0.5422511688868131,-0.6846683772193614,0.16389027119049113,1.2894662388550648
1781552329758542848,1.366081953048706,0.3752474784851074,-0.24726565182209015,0.581763744354248,0.12796851992607117,0.6287322044372559,-0.7670201063156128,-0.06220315396785736,-0.009530603885650635,0.09940236806869507,0.765779280261756,-0.31194936484512803,-0.13848294473259634,0.5450616347738695,-0.6799217803987141,0.16531590400048837,1.2957562887874354
1781552329768577792,1.3761169910430908,0.21255792677402496,-0.21419169008731842,0.6359505653381348,0.13003800809383392,0.6255707144737244,-0.7692537903785706,-0.06195329129695892,-0.031515538692474365,0.07075220346450806,0.7644076778703304,-0.3105559780159836,-0.13757939245500736,0.5480034487182626,-0.6758628423964881,0.1674612021504411,1.3029246694563792
1781552329778611712,1.38615083694458,-0.14684711396694183,-0.20521125197410583,0.5759921073913574,0.13219527900218964,0.6244295239448547,-0.769813060760498,-0.060723111033439636,-0.08983784914016724,0.028129100799560547,0.7626562441962546,-0.31021584118230106,-0.137330279484887,0.550692163001175,-0.6744009395423616,0.17006512584727304,1.3105210191837104
1781552329788646656,1.3961858749389648,-0.6889551281929016,-0.16401109099388123,0.523867130279541,0.13417772948741913,0.6268736124038696,-0.7674801349639893,-0.07013660669326782,-0.1764494776725769,0.04251986742019653,0.7603701959228192,-0.3116460466447837,-0.13833534180035653,0.552790373460352,-0.6775340023882165,0.17307966709840125,1.3183561796256067
1781552329798681856,1.4062209129333496,-1.2082701921463013,-0.15450866520404816,0.5006515979766846,0.13617447018623352,0.6334642171859741,-0.7616952061653137,-0.06485489010810852,-0.22454386949539185,0.0884469747543335,0.7573455111149705,-0.31517147135906154,-0.14078113401146664,0.5543242745082162,-0.6860220786341752,0.17690919513460338,1.3269953643298467
1781552329808716800,1.4162559509277344,-1.6133524179458618,-0.1676965057849884,0.4697791337966919,0.13807205855846405,0.6435636281967163,-0.7528359293937683,-0.042628347873687744,-0.21796542406082153,0.13578581809997559,0.7536199996533379,-0.32044547450107114,-0.14455697376529056,0.5554051222256277,-0.6991451206603445,0.18138677584355706,1.33651716225651
1781552329818751744,1.4262909889221191,-1.7647536993026733,-0.21635352075099945,0.4886566996574402,0.13965612649917603,0.6557737588882446,-0.7419278621673584,-0.008720457553863525,-0.13872969150543213,0.1778409481048584,0.7493892436638492,-0.32671226738970977,-0.14931566409392222,0.5562191388407023,-0.7152070942497716,0.18605703050992806,1.3467162830323605
1781552329828786944,1.436326026916504,-1.6294304132461548,-0.3136082887649536,0.6006889343261719,0.14135058224201202,0.6676533222198486,-0.7309302687644958,0.044043704867362976,-0.023625612258911133,0.14194101095199585,0.7448380663451774,-0.33281566099440846,-0.15417067781786334,0.5573880729267299,-0.7310522034643533,0.19102647852523139,1.3581697681540414
1781552329838821632,1.4463608264923096,-1.3730751276016235,-0.47718071937561035,0.6506416201591492,0.14271946251392365,0.677678644657135,-0.7213756442070007,0.09708766639232635,-0.0012717843055725098,0.0013591647148132324,0.7402389686871685,-0.3377860086856849,-0.1587853589752975,0.5592263657350037,-0.7446012657924943,0.19532111957912301,1.3704635231421933
1781552329848856576,1.4563958644866943,-1.3164759874343872,-0.5914871692657471,0.6699506044387817,0.14336687326431274,0.6863355040550232,-0.7130143642425537,0.09938520193099976,-0.04886907339096069,-0.11591935157775879,0.7356693495370774,-0.34174755733680207,-0.16340566900603412,0.5615138258386668,-0.7564383807551543,0.1984256352225246,1.3829417791814107
1781552329858891776,1.466430902481079,-1.2010647058486938,-0.6415625810623169,0.6994495987892151,0.14368084073066711,0.6943691372871399,-0.7051293253898621,0.06058858335018158,-0.07370263338088989,-0.12345343828201294,0.7310476643552617,-0.3452276019482988,-0.16808699721249037,0.5640337702960764,-0.7675428847241281,0.20101333609839092,1.3956889753835107
1781552329868925696,1.4764649868011475,-1.2488852739334106,-0.5426909923553467,0.7401536107063293,0.14445501565933228,0.7018398642539978,-0.697533905506134,0.021667420864105225,-0.0841183066368103,-0.12320584058761597,0.7263882715569805,-0.34854568034485967,-0.17247885173168442,0.5666807437869897,-0.7779771032992175,0.20420722392876348,1.4089619818005839
1781552329878960896,1.4865000247955322,-1.2715154886245728,-0.3696012496948242,0.6905783414840698,0.14631302654743195,0.7096113562583923,-0.6892346143722534,0.001300513744354248,-0.05943429470062256,-0.09070312976837158,0.7217050279551354,-0.35245659523832157,-0.17651359784942605,0.5689984667733169,-0.7889464284739094,0.2091780850392616,1.4226088803766799
1781552329888995584,1.496534824371338,-1.2137914896011353,-0.2048163115978241,0.5897092819213867,0.14899767935276031,0.7172885537147522,-0.6806591749191284,0.02350291609764099,-0.0559726357460022,-0.08490478992462158,0.7173836215642052,-0.35676652062026476,-0.17996687094214261,0.5706929235526841,-0.7999030713256674,0.21550280536104693,1.4353978352640242
1781552329899030784,1.5065698623657227,-1.0308074951171875,-0.14418412744998932,0.41495582461357117,0.15148548781871796,0.7241175770759583,-0.6728342175483704,0.09970468282699585,-0.05035048723220825,-0.05452173948287964,0.7137671182573336,-0.36074735430844795,-0.18287767777853767,0.5717985549994459,-0.8097540680846318,0.2214527752863455,1.4460443419386337
1781552329909065728,1.5166049003601074,-1.1513456106185913,-0.09694856405258179,0.18235856294631958,0.152818962931633,0.7308091521263123,-0.665255069732666,0.17556540668010712,0.007884025573730469,0.06271606683731079,0.7108595136446124,-0.36446755181862744,-0.1858382729712666,0.5721068664029365,-0.819506635840692,0.22579754536385185,1.4537457555842896
1781552329919100672,1.5266399383544922,-1.3738000392913818,-0.019061489030718803,-0.006942658685147762,0.152991384267807,0.7392099499702454,-0.6558676362037659,0.2175988405942917,0.06878870725631714,0.14472872018814087,0.7081933075456557,-0.36893595523013745,-0.18961128696750368,0.5713109008741595,-0.831896491093695,0.22916772234607807,1.4592317121816265
1781552329929135872,1.536674976348877,-1.318487524986267,-0.07424072176218033,-0.1948731392621994,0.15204352140426636,0.7481912970542908,-0.645827054977417,0.25844842195510864,0.03643089532852173,0.024794340133666992,0.7059251124459087,-0.3735444454925123,-0.1937808493304253,0.5697221091444209,-0.8453317709448389,0.23121422155782795,1.4624240227315537
1781552329939170816,1.5467100143432617,-1.1937674283981323,-0.0864502489566803,-0.351336270570755,0.14919233322143555,0.7568410634994507,-0.6363437175750732,0.29760026931762695,0.048380494117736816,-0.05443692207336426,0.7042342982864397,-0.3774771106740135,-0.1983410412921089,0.5676495974095794,-0.8584663798001253,0.23029298296125805,1.4626141641406374
1781552329949205760,1.5567448139190674,-0.7992214560508728,0.37806791067123413,-0.2624650001525879,0.14760464429855347,0.7636867761611938,-0.6284865736961365,0.26632052659988403,0.08833342790603638,-0.031349241733551025,0.7033806082008052,-0.3810868801452877,-0.20131940729070744,0.5652424682720105,-0.8690047584824843,0.2306766999047051,1.4613011678666363
1781552329959239680,1.5667788982391357,-0.3240908980369568,0.4467308521270752,-0.12921743094921112,0.14885497093200684,0.7676287889480591,-0.623368501663208,0.27622437477111816,-0.07764160633087158,-0.07452273368835449,0.7032691460288945,-0.3841837696843789,-0.20178844162482432,0.5631135080676458,-0.8751330463735,0.234401786699867,1.4603949623124537
1781552329969274880,1.5768139362335205,-0.8119217753410339,0.2066134363412857,-0.06708322465419769,0.15043842792510986,0.7704641819000244,-0.619478166103363,0.38590800762176514,-0.2787955403327942,-0.1269512176513672,0.7030108921115555,-0.38663504020929934,-0.2019263464048079,0.5617070606948558,-0.8795690045998615,0.23823518248704822,1.460772321159486
1781552329979309824,1.5868489742279053,-1.9107720851898193,-0.250396192073822,-0.22625583410263062,0.14915789663791656,0.7792575359344482,-0.6086950302124023,0.48331889510154724,-0.28237032890319824,-0.07990360260009766,0.7007053464316139,-0.39132729343830847,-0.20619267590999282,0.5597852886739504,-0.8934801835139811,0.24031006845770672,1.4636722312281512
1781552329989344768,1.59688401222229,-2.343705892562866,-0.5729008316993713,-0.2771928012371063,0.14440852403640747,0.7927698493003845,-0.5921673774719238,0.43957585096359253,-0.13102662563323975,-0.18221616744995117,0.6966807714837673,-0.39744818079912314,-0.21436245588686464,0.55742226253321,-0.9153399194724827,0.23919567667974606,1.4678606495682742
1781552329999379968,1.6069190502166748,-2.3417775630950928,-0.36262404918670654,-0.09470073878765106,0.13998258113861084,0.8067172765731812,-0.5741186141967773,0.20106662809848785,-0.027969717979431152,-0.31757450103759766,0.6919873853381852,-0.4040052287000323,-0.22298089185666758,0.5551691792318977,-0.938575758700577,0.23915539642435765,1.4739615756036428
1781552330009414656,1.6169538497924805,-2.479313850402832,-0.13718827068805695,-0.005940777249634266,0.13825595378875732,0.8204296231269836,-0.5547797083854675,-0.07517613470554352,-0.04146844148635864,-0.2679741382598877,0.6868961690098725,-0.4116176859647309,-0.2306101141009399,0.5527779528483812,-0.9621619890413846,0.24423381411909043,1.483207242502314
1781552330019449600,1.6269888877868652,-2.3719265460968018,-0.010805023834109306,0.0176569614559412,0.13793990015983582,0.8337745070457458,-0.534595787525177,-0.179535374045372,-0.04803842306137085,-0.2264363169670105,0.6817198927729431,-0.4198334229717299,-0.2375752399265518,0.5500508246369714,-0.9859093745342626,0.2525186724089437,1.493981851644225
1781552330029484800,1.63702392578125,-2.1812093257904053,-0.07476083934307098,0.07644464820623398,0.1381361335515976,0.8456823229789734,-0.5154995322227478,-0.0955488532781601,-0.02034968137741089,-0.2245364785194397,0.6767206057646407,-0.4275326989446246,-0.2438565676319479,0.5475390069472987,-1.0078424151224394,0.26181467672986347,1.5054800195734837
1781552330039518720,1.6470580101013184,-2.1259512901306152,-0.10118365287780762,0.1450340896844864,0.1385129690170288,0.8563965559005737,-0.4973922371864319,-0.0019315630197525024,0.039874136447906494,-0.12248077988624573,0.6716477048479569,-0.4345939302384393,-0.24986396206612285,0.545513919812743,-1.028249663721606,0.271597111991594,1.5183136167193547
1781552330049553920,1.6570930480957031,-1.7384402751922607,-0.10485988110303879,0.19985073804855347,0.1399906426668167,0.8659623861312866,-0.48011648654937744,0.02643696963787079,0.12138807773590088,0.02844110131263733,0.6666905586382196,-0.44147757390831016,-0.25502804543204727,0.5436745280335277,-1.0470714878332716,0.28371092463523384,1.5327332147835755
1781552330059588608,1.6671278476715088,-0.9912499785423279,-0.25464698672294617,0.1122489795088768,0.14033553004264832,0.8721652626991272,-0.4686509072780609,0.07110549509525299,0.24850118160247803,0.09754189848899841,0.6630117751140295,-0.445609013794447,-0.25905049165515026,0.5429003480185215,-1.0596110112960364,0.29094823992181784,1.5434353309701527
1781552330069623808,1.6771628856658936,-0.4263820946216583,-0.09589781612157822,0.08140531182289124,0.1402500718832016,0.8753610253334045,-0.4626801609992981,-0.1351078897714615,0.07280480861663818,0.18146070837974548,0.6609329206687478,-0.44758018773116787,-0.26140369091783305,0.5426856348963269,-1.0661820340494608,0.29432157205781956,1.5494313065725116
1781552330079658752,1.6871979236602783,0.02188144437968731,-0.011954978108406067,-0.020590826869010925,0.14035402238368988,0.8761379718780518,-0.4611755907535553,-0.2677343785762787,0.03876376152038574,0.3315674662590027,0.660383045610964,-0.44809912139105973,-0.2619530015981382,0.5426619260157234,-1.0677914051326,0.2954333549322802,1.551190836606814
1781552330089693696,1.697232961654663,0.3497152328491211,-0.06499622762203217,-0.14071910083293915,0.13944244384765625,0.8754943609237671,-0.46267202496528625,-0.24765779078006744,0.2070251703262329,0.44651293754577637,0.6609370075520814,-0.44734489826353274,-0.2618139301736269,0.5426768919630326,-1.066457857956653,0.29272703393163835,1.5485096378028629
1781552330099728896,1.7072679996490479,0.8606775999069214,0.008453757502138615,-0.2587493360042572,0.13745516538619995,0.8729071617126465,-0.4681229591369629,-0.21390171349048615,0.40918201208114624,0.5046525597572327,0.6628437593590045,-0.4449357217006025,-0.26071194841662493,0.5428623877204319,-1.0611295978878623,0.2856029811598412,1.5407330222576041
1781552330109763840,1.7173030376434326,1.2283754348754883,0.1285097301006317,-0.28300249576568604,0.13540570437908173,0.8683560490608215,-0.4770985543727875,-0.23194807767868042,0.5493380427360535,0.5550709962844849,0.6659772539156509,-0.4413060044662218,-0.2582629047782089,0.5431606854464286,-1.0518778002357216,0.27653890673434706,1.5295479695631904
1781552330119798784,1.7273378372192383,1.9033408164978027,0.1383514255285263,-0.3552825450897217,0.1332973837852478,0.8613061308860779,-0.49028921127319336,-0.2105984091758728,0.6073217391967773,0.43566277623176575,0.6704531693806931,-0.43611843742031264,-0.25427563005223824,0.5437252156216912,-1.0378347650803144,0.26545860020033446,1.51501467372507
1781552330129833728,1.737372875213623,2.3694300651550293,0.01798374578356743,-0.1930968165397644,0.1311742663383484,0.8508104681968689,-0.5088368058204651,-0.12305659055709839,0.4422498345375061,0.2277851700782776,0.6760593037054297,-0.4286274494944628,-0.24871692767714093,0.5453092726763167,-1.0175256875322403,0.25229913350494854,1.4987366848853545
1781552330139867904,1.7474069595336914,2.278590440750122,-0.12759768962860107,-0.1173141673207283,0.1296185404062271,0.8386629223823547,-0.5290024876594543,-0.008845224976539612,0.20273417234420776,0.17733323574066162,0.6814380851998199,-0.4202142996440715,-0.2427317159939701,0.5478535718254691,-0.994823651116977,0.24029031798617945,1.485219180714017
1781552330149902848,1.7574419975280762,1.8166698217391968,-0.23763231933116913,-0.10015355795621872,0.1276194453239441,0.8277513384819031,-0.546389102935791,0.008107483386993408,-0.08875292539596558,0.055071353912353516,0.6858248022055273,-0.41252382412966165,-0.23796961680300596,0.5503080627723871,-0.9750881248801366,0.22945521829474114,1.4744600375705659
1781552330159937792,1.767477035522461,1.363250970840454,-0.4017120599746704,-0.04659819230437279,0.12530426681041718,0.8190290331840515,-0.5599020719528198,0.023987725377082825,-0.296034038066864,-0.0785103440284729,0.6888942263264916,-0.40609504879574165,-0.23481008151111535,0.5526081714225933,-0.9597166150221864,0.22016887926228426,1.4670428366562676
1781552330169972736,1.7775118350982666,1.216964602470398,-0.5959824919700623,-0.07904215157032013,0.12191372364759445,0.8120136857032776,-0.570763349533081,0.04144687205553055,-0.2935810685157776,-0.06832051277160645,0.6910305589102639,-0.40029587957215607,-0.23319847083831263,0.5548499049024802,-0.9475940809636061,0.21043539887973337,1.4612466508197492
1781552330180007680,1.7875468730926514,1.8333553075790405,-0.6659615635871887,-0.03428293764591217,0.11775173991918564,0.8035793900489807,-0.5834334492683411,0.04216037690639496,0.015512406826019287,-0.09256136417388916,0.6933492567679655,-0.39333925859199237,-0.23144651401675867,0.5576589011719434,-0.9332848081668357,0.199150209414246,1.4552811123331315
1781552330190042624,1.7975819110870361,2.68021821975708,-0.4467080235481262,-0.11280863732099533,0.11373747140169144,0.7901349663734436,-0.602287769317627,0.00381624698638916,0.3843340277671814,-0.25865888595581055,0.6973286059775193,-0.3837052384812885,-0.22721447104180958,0.5611387725149936,-0.9110291809229699,0.18664445669848548,1.4468323744752458
1781552330200077824,1.807616949081421,3.407118797302246,-0.14147835969924927,-0.11854667961597443,0.1109602227807045,0.771503746509552,-0.6264740824699402,-0.0795576348900795,0.5828815698623657,-0.33881211280822754,0.7031395142289328,-0.37204940565509625,-0.21986861044810954,0.5646519369169504,-0.8812013282715069,0.17530058465276174,1.4360101777236403
1781552330210112768,1.8176519870758057,3.661470651626587,0.05801132693886757,-0.1316632777452469,0.10986114293336868,0.7486007213592529,-0.6538558602333069,-0.08939912170171738,0.49467015266418457,-0.2531113028526306,0.7100029838717646,-0.35911788248568627,-0.21001528785786558,0.568175696237979,-0.8459490675631927,0.1664655665000587,1.4248513349366805
1781552330220147968,1.8276870250701904,3.412475109100342,0.1575368493795395,-0.17239312827587128,0.10941167920827866,0.7250650525093079,-0.6799336075782776,-0.05994269251823425,0.12820643186569214,-0.11991685628890991,0.71684873947134,-0.3465858446400683,-0.1997784973453777,0.5710469912349073,-0.811128876590267,0.15954752891744836,1.4139609807316404
1781552330230181632,1.8377208709716797,3.2386276721954346,0.14776918292045593,-0.1656569391489029,0.10927996039390564,0.7021450400352478,-0.7035980820655823,0.010196350514888763,-0.1526913046836853,-0.029586732387542725,0.7231732378330067,-0.3348422784260552,-0.18995161507779434,0.5734279031285537,-0.7784056235056989,0.15408476763861667,1.404131810514623
1781552330240216832,1.8477559089660645,2.850721597671509,0.13535630702972412,-0.20846964418888092,0.10895362496376038,0.6805650591850281,-0.724541425704956,0.07441122829914093,-0.23012560606002808,0.014351606369018555,0.7288802139634478,-0.32399030490886715,-0.18099605380927758,0.5753297358878173,-0.7485335866530781,0.14925763650550689,1.3951239604673582
1781552330250251776,1.8577909469604492,2.9372823238372803,0.13874678313732147,-0.20974929630756378,0.10852298140525818,0.6597231030464172,-0.7436317205429077,0.07096614688634872,-0.1768893003463745,0.07746356725692749,0.7341759317292905,-0.3136893002333179,-0.17257795306386706,0.5768895208586056,-0.7204502342975532,0.14491347148993566,1.386665930101614
1781552330260286720,1.867825984954834,3.207092761993408,0.16225449740886688,-0.2671281695365906,0.10809432715177536,0.636751651763916,-0.7634546160697937,0.040907733142375946,-0.17312860488891602,0.1010858416557312,0.739743372615464,-0.3025600315854046,-0.16349347767107783,0.5783658153832257,-0.6902780900037424,0.14065090775032127,1.3777875055935056
1781552330270321920,1.8778610229492188,3.1540167331695557,0.21358241140842438,-0.2442857027053833,0.1078888475894928,0.6122108101844788,-0.7832993865013123,-0.003488212823867798,-0.07888561487197876,0.10263532400131226,0.7454196131002926,-0.2909731328301056,-0.15389914756378087,0.579654440842454,-0.6588536084224031,0.13687518723046313,1.368751893281151
1781552330280356608,1.8878958225250244,3.2442190647125244,0.2598668038845062,-0.27867111563682556,0.10826355963945389,0.5872761011123657,-0.8021133542060852,-0.012438364326953888,0.06995046138763428,0.056324779987335205,0.7508673617616789,-0.2795823232363137,-0.14414249045243502,0.5807365445014769,-0.6276893357172952,0.13416211137029427,1.3602494260276072
1781552330290391808,1.8979308605194092,3.5109214782714844,0.22428351640701294,-0.35410115122795105,0.10837569087743759,0.5601592659950256,-0.8212650418281555,-0.06763472408056259,0.032751500606536865,-0.05936539173126221,0.7566401928623064,-0.2673186702087381,-0.13382150123712094,0.5814878941045311,-0.5945780486629361,0.13120380001117468,1.3507382134138537
1781552330300426752,1.907965898513794,3.4531989097595215,0.31558600068092346,-0.1619950830936432,0.10910984873771667,0.5308552980422974,-0.8404092788696289,-0.18534275889396667,-0.006349742412567139,-0.043669700622558594,0.7621806797616015,-0.2543793524048205,-0.12282717838314072,0.5824821215427332,-0.5596095260233348,0.1291072535197256,1.3422394478623783
1781552330310461696,1.9180009365081787,2.70977520942688,0.4934099316596985,-0.3787657618522644,0.1111038476228714,0.5049702525138855,-0.8559561967849731,-0.2889450192451477,0.025150597095489502,-0.09315574169158936,0.7670552312273602,-0.24358681762382853,-0.1126382182110855,0.5827559060264552,-0.5293475083788343,0.12907916265546132,1.334430053871743
1781552330320496896,1.9280359745025635,2.4348337650299072,0.39435845613479614,-0.2699173092842102,0.11349095404148102,0.48345422744750977,-0.8679814338684082,-0.2997244596481323,0.04356905817985535,-0.10029548406600952,0.7713244620698325,-0.23500422809292976,-0.1038378006902551,0.5822793589426769,-0.5045964630184631,0.1300151610653753,1.326831144098188
1781552330330530560,1.9380698204040527,2.4076945781707764,0.1179986298084259,-0.21612143516540527,0.11443469673395157,0.4624879062175751,-0.8792096972465515,-0.07531116157770157,0.14856556057929993,0.02071964740753174,0.7749453198637652,-0.2261787543828369,-0.09611626549423498,0.5822925314944924,-0.48079918544334077,0.1294287271651873,1.3205606275115087
1781552330340565760,1.9481048583984375,2.3144397735595703,0.21157091856002808,-0.11113271117210388,0.11492550373077393,0.4416693449020386,-0.8897866606712341,-0.030590176582336426,0.10244384407997131,0.08250516653060913,0.7781474433192637,-0.21729185934217313,-0.08883082029123064,0.5825631469171513,-0.4574584730386624,0.12844960685742315,1.3152205153437861
1781552330350600704,1.9581398963928223,2.124349594116211,0.35928210616111755,-0.012266583740711212,0.1172901913523674,0.42190858721733093,-0.8990195393562317,-0.1838947981595993,-0.13321229815483093,0.2138388752937317,0.7808142090533586,-0.20948039246272035,-0.08129075832328779,0.5829570741508457,-0.43554940774039175,0.1297318209906016,1.3113909905837982
1781552330360635648,1.968174934387207,2.0370495319366455,0.3192808926105499,0.014754381030797958,0.120463065803051,0.40299803018569946,-0.907238245010376,-0.1952006220817566,-0.23151975870132446,0.306682825088501,0.7830806163357447,-0.20231509960801047,-0.073820587741926,0.5834413986434147,-0.41479031975754627,0.1320077953731085,1.308478742016913
1781552330370670848,1.9782099723815918,1.9505480527877808,0.1719919592142105,-0.04505728930234909,0.12264595925807953,0.384799599647522,-0.9148154258728027,0.014576330780982971,-0.02753034234046936,0.22520971298217773,0.785190902982246,-0.19518759681614545,-0.06703803638859719,0.5838518268803862,-0.39499070639042655,0.13327167022795752,1.305464692634134
1781552330380705792,1.9882450103759766,1.9078290462493896,0.010860323905944824,-0.02495388314127922,0.12326767295598984,0.367081880569458,-0.9219847917556763,0.13460585474967957,0.1351000964641571,0.16891783475875854,0.7871988403968385,-0.1878170759293706,-0.061092887217163744,0.5842178383414733,-0.3758699417038613,0.13290996885243675,1.3022261167898423
1781552330390740992,1.9982800483703613,1.9056109189987183,0.05294426158070564,-0.03988995775580406,0.12327510863542557,0.3494761884212494,-0.928800106048584,0.10214298963546753,0.11072885990142822,0.052472591400146484,0.78903346610419,-0.1803309235966316,-0.05550407664710837,0.5846591759238867,-0.35701199749985696,0.13195389970155996,1.2992499951966598
1781552330400775680,2.008314847946167,1.9461655616760254,0.19099082052707672,-0.08680393546819687,0.12427292764186859,0.33148783445358276,-0.9352390170097351,-0.021154023706912994,-0.013570964336395264,-0.07123064994812012,0.790977150400711,-0.17303926459830685,-0.049374991381490194,0.5847860866379792,-0.3378801276994296,0.13210437242917264,1.2958274558210336
1781552330410810624,2.0183498859405518,1.987830638885498,0.16567718982696533,-0.07499707490205765,0.12571430206298828,0.31313225626945496,-0.9413523077964783,-0.06200885772705078,-0.003500908613204956,-0.014824450016021729,0.7929319878548964,-0.16576293613690507,-0.0429710062855537,0.584752187711289,-0.31848935952694374,0.1327609754505345,1.2922012473807676
1781552330420844800,2.02838397026062,1.9446594715118408,0.1670876145362854,-0.10157835483551025,0.12697041034698486,0.29440051317214966,-0.9472100138664246,-0.019624844193458557,0.056627899408340454,-0.013803720474243164,0.7948218487751008,-0.15829539302698614,-0.036572522022993444,0.5846907246702399,-0.29882816019379127,0.13325241131222426,1.2885630808213728
1781552330430879744,2.038419008255005,1.7756552696228027,0.21002374589443207,-0.13151147961616516,0.12839573621749878,0.27688947319984436,-0.9522849917411804,-0.04648655652999878,-0.025195717811584473,-0.1027686595916748,0.7966538757784158,-0.15142017126418889,-0.03048641690783225,0.5843672536002893,-0.28055548737091496,0.13402088578197913,1.2847019580328993
1781552330440914944,2.0484540462493896,1.756054162979126,0.22273822128772736,-0.1098535880446434,0.13012956082820892,0.2602297365665436,-0.9567375779151917,-0.05847430229187012,-0.06824365258216858,-0.03184884786605835,0.7983376913874817,-0.14500846794647726,-0.024571547302197953,0.5839740025711871,-0.2632601337601945,0.1351843035750591,1.2810194005222946
1781552330450949632,2.0584888458251953,1.733092188835144,0.26980680227279663,-0.12300854176282883,0.1321689635515213,0.24350011348724365,-0.9608532786369324,-0.025708407163619995,-0.04669225215911865,0.06006592512130737,0.7999483859036132,-0.1386704022008041,-0.01854379206316489,0.5835316014035995,-0.2459729512779289,0.13669591147285462,1.2773757202747658
1781552330460984832,2.06852388381958,1.6284197568893433,0.27040785551071167,-0.1388050764799118,0.13449274003505707,0.22741909325122833,-0.9644647240638733,-0.029039248824119568,-0.08809109032154083,0.08685547113418579,0.8015079218157762,-0.132697333552498,-0.01261124425435417,0.5829384815653716,-0.22942649881677413,0.1385545724152376,1.2736203713385625
1781552330471019776,2.078558921813965,1.5295411348342896,0.24462221562862396,-0.146129310131073,0.1366134136915207,0.21236613392829895,-0.9675936102867126,-0.04741053283214569,-0.12235453724861145,0.07760947942733765,0.8029595782779972,-0.12709383035492883,-0.0070959681186869425,0.5822822421044854,-0.2139956854882004,0.14026172750687088,1.2699288921532648
1781552330481054720,2.0885939598083496,1.4296460151672363,0.27532845735549927,-0.16742341220378876,0.1387881487607956,0.19815240800380707,-0.9702955484390259,-0.06792634725570679,-0.06985652446746826,-0.016734421253204346,0.8043491411668617,-0.1218560148071349,-0.0018252489067432992,0.5815241284140413,-0.19947259815917676,0.14207329478650904,1.2661996927212409
1781552330491089920,2.0986289978027344,1.416098713874817,0.2808888554573059,-0.12578143179416656,0.14119555056095123,0.18458056449890137,-0.9726221561431885,-0.09332872927188873,0.05119824409484863,-0.05890250205993652,0.8056453037520626,-0.11695238734153575,0.0033266111424549646,0.5807295510146702,-0.18564507260323596,0.14416291221300875,1.2625761093911487
1781552330501124864,2.108664035797119,1.4462209939956665,0.3268726170063019,-0.07365777343511581,0.1439330130815506,0.17068642377853394,-0.9747560620307922,-0.08933708071708679,0.11443930864334106,-0.02463352680206299,0.8067389234511249,-0.11201341859990711,0.008657333105314144,0.5801296177446564,-0.17152626886996514,0.14660119379804834,1.259492486460491
1781552330511158784,2.1186978816986084,1.3303779363632202,0.3453814685344696,-0.05382414907217026,0.14715813100337982,0.15707062184810638,-0.976561963558197,-0.09556818008422852,-0.0012173652648925781,0.015563488006591797,0.8076807656403159,-0.10733553326056651,0.014074497302430634,0.5795971056823173,-0.1577237458033133,0.14956470086718066,1.25673153129758
1781552330521193728,2.128732919692993,1.1954110860824585,0.272765576839447,-0.04287003353238106,0.1501004695892334,0.14481744170188904,-0.9780070185661316,-0.0694425106048584,-0.09138116240501404,0.09725445508956909,0.8084585055724393,-0.10313788720322233,0.018948890889923773,0.5791358182505995,-0.14532846649982362,0.15228757930774858,1.2543311528391887
1781552330531228672,2.138767957687378,1.0927292108535767,0.23831704258918762,-0.04360027238726616,0.15248814225196838,0.13360601663589478,-0.9792327880859375,-0.016089826822280884,-0.026702940464019775,0.1078643798828125,0.8091425943083623,-0.0992064485785782,0.023274473412035295,0.5787093540848567,-0.13400673321740134,0.15448133518842205,1.2521132865848343
1781552330541263872,2.1488029956817627,0.983096182346344,0.22609049081802368,-0.014936935156583786,0.15470930933952332,0.12355922162532806,-0.9802030920982361,-0.02294968068599701,0.021124616265296936,0.08947134017944336,0.809703928820522,-0.09570811145676547,0.027173518703410535,0.5783433820382969,-0.12387579203529049,0.1565425543182464,1.2501999720666714
1781552330551298816,2.1588380336761475,0.8884740471839905,0.19583123922348022,-0.007524559274315834,0.1567690223455429,0.1142796128988266,-0.9810013771057129,-0.026291117072105408,-0.013693682849407196,0.11390542984008789,0.8101439231034947,-0.09248188813373749,0.03076403090896514,0.5780723190915491,-0.11452982864198363,0.15846522698839566,1.2486182201014688
1781552330561333760,2.168872833251953,0.7893874645233154,0.1735384613275528,-0.01616145670413971,0.15853552520275116,0.10610032826662064,-0.9816359877586365,-0.00971655547618866,-0.05882859230041504,0.11946862936019897,0.8105409145037658,-0.08962236670885737,0.033909248132641574,0.5777902250329243,-0.10630040799455041,0.16011877675738187,1.2471266832061598
1781552330571368704,2.178907871246338,0.7277986407279968,0.16746312379837036,0.011806528083980083,0.16018371284008026,0.09858108311891556,-0.9821522235870361,-0.014508053660392761,-0.053369298577308655,0.12247204780578613,0.8108475531128128,-0.08700323295206892,0.03680130661364471,0.5775832109039947,-0.09874145804488312,0.16167114431470694,1.245899502447588
1781552330581403648,2.1889429092407227,0.606745183467865,0.19213411211967468,0.009426195174455643,0.16194367408752441,0.09195993840694427,-0.9825057983398438,-0.043077707290649414,-0.04882334917783737,0.09137725830078125,0.8110775642270349,-0.0847891921816241,0.03947024220192139,0.5774133065857773,-0.09209004440451239,0.16335838780744028,1.2448916649106598
1781552330591438848,2.1989779472351074,0.4305139482021332,0.2279706597328186,0.03165959566831589,0.16400808095932007,0.08673747628927231,-0.9826382398605347,-0.05794425308704376,-0.060782283544540405,0.03877538442611694,0.811192080996547,-0.08324474448067991,0.041847098651798795,0.5773097640347397,-0.0868466075646349,0.16538138996187385,1.2442471993086603
1781552330601472768,2.209012031555176,0.21967628598213196,0.22572243213653564,0.030606048181653023,0.16629469394683838,0.08353029936552048,-0.9825317859649658,-0.03711380064487457,-0.09566104412078857,0.059024155139923096,0.8111879488607076,-0.08259923724381754,0.04372023166035704,0.5772695383051375,-0.08362773817631647,0.1676623081250737,1.244015082628628
1781552330611507712,2.2190468311309814,0.10420800745487213,0.20676150918006897,0.014967700466513634,0.16842636466026306,0.08192264288663864,-0.982304036617279,-0.013152927160263062,-0.12087833136320114,0.09408992528915405,0.811132245911254,-0.08256758791877769,0.0450618545813216,0.5772490193690453,-0.08201455601524066,0.16980931277490155,1.243999155206522
1781552330621542656,2.229081869125366,0.03968627378344536,0.20181229710578918,-0.0037202334497123957,0.17039455473423004,0.08128508180379868,-0.9820175170898438,-0.011550575494766235,-0.10336457192897797,0.050666868686676025,0.8111020528972579,-0.08288356659315682,0.04606026258084583,0.5771675407684433,-0.0813748642802199,0.17180421666298365,1.2439284317953962
1781552330631579392,2.2391185760498047,0.06099635735154152,0.208345428109169,-0.018601978197693825,0.1724243313074112,0.0808425322175026,-0.9816997051239014,-0.027801528573036194,-0.06010584533214569,-0.05852246284484863,0.8111041154328993,-0.08329474793045351,0.04703324774737122,0.5770268169344016,-0.08093085313424823,0.17386518784166455,1.243741269480423
1781552330641614336,2.2491536140441895,0.14153221249580383,0.2023053914308548,-0.04587807506322861,0.17441557347774506,0.0799277052283287,-0.9814228415489197,-0.032768234610557556,2.8349459171295166e-05,-0.13233143091201782,0.8111894842692571,-0.08349410092533681,0.04813855062972856,0.5767868798526639,-0.08001305228427072,0.17588076334940528,1.2432502520189792
1781552330651649536,2.259188652038574,0.278482586145401,0.18021872639656067,-0.06533272564411163,0.17626258730888367,0.0779976174235344,-0.981248140335083,-0.025643080472946167,0.05205304175615311,-0.134413480758667,0.8113990850048483,-0.08322420601069042,0.049494164160194316,0.5764161348135415,-0.07807692166395715,0.1777355040913106,1.24230098463549
1781552330661684480,2.269223690032959,0.41178658604621887,0.1571754664182663,-0.05900639295578003,0.1778487265110016,0.07468614727258682,-0.9812195301055908,-0.03597252070903778,0.030553720891475677,-0.1042601466178894,0.8116773357662848,-0.08230487410353933,0.05114812324360855,0.5760119215978494,-0.07475575269078691,0.17930608724556243,1.2410779216434653
1781552330671719424,2.2792587280273438,0.525454580783844,0.14177480340003967,-0.11359187215566635,0.17923711240291595,0.07019549608230591,-0.9812984466552734,-0.049766287207603455,-0.05411272495985031,-0.08324623107910156,0.8120701974124137,-0.08083245817397304,0.0530743552026471,0.5754922897510542,-0.0702532712978755,0.18066149550249191,1.239412366098157
1781552330681754624,2.2892937660217285,0.7552191019058228,0.09448345005512238,-0.14855517446994781,0.1803378164768219,0.06418715417385101,-0.981508195400238,-0.0443667471408844,-0.06775770336389542,-0.03393369913101196,0.8126760553161642,-0.07863125160537256,0.055344761693178104,0.5747275201825732,-0.06423131247144226,0.1817087565951808,1.2369424591302896
1781552330691789312,2.299328565597534,0.9290310740470886,0.05157526209950447,-0.20015951991081238,0.1809254139661789,0.05617798864841461,-0.9818910360336304,-0.023057982325553894,0.009663686156272888,0.03618180751800537,0.8134830558792485,-0.07543607290157295,0.057998927497915985,0.5737515214701518,-0.05620757977551141,0.1822182959976771,1.2336880312966556
1781552330701823488,2.3093626499176025,1.0373955965042114,0.021227210760116577,-0.2664717137813568,0.18112774193286896,0.046911388635635376,-0.9823400974273682,-0.03796978294849396,0.0072725676000118256,0.049356698989868164,0.8145091773643297,-0.07158387425360178,0.06087446679669231,0.5724900721268573,-0.04692861249635749,0.18233602855771008,1.2295836171601557
1781552330711858432,2.3193976879119873,1.2043806314468384,0.0005166055634617805,-0.2891525328159332,0.1811261922121048,0.03637709841132164,-0.9827868342399597,-0.0624128133058548,-0.02989211678504944,0.04267764091491699,0.8157012086238091,-0.06712438883770018,0.0640381607898894,0.5709860268292685,-0.036385127927184575,0.18225343709076225,1.2247692973556663
1781552330721893632,2.329432725906372,1.4219119548797607,-0.07695262134075165,-0.30847135186195374,0.1806292086839676,0.023904725909233093,-0.9832607507705688,-0.06681390106678009,-0.022958677262067795,0.08547937870025635,0.8169908448889944,-0.06170176681725218,0.06754649912986763,0.5693472778284422,-0.023907003649096505,0.1816786400855737,1.2194401063269757
1781552330731928576,2.339467763900757,1.4187017679214478,-0.13129988312721252,-0.33946841955184937,0.1795189380645752,0.010367500595748425,-0.9836999177932739,-0.047560930252075195,-0.0557013601064682,0.040111660957336426,0.8183905843060171,-0.05563669146976586,0.07109581254706174,0.5675270150641343,-0.010367686059025558,0.18050723086046866,1.2135944995453058
1781552330741963520,2.3495028018951416,1.340105414390564,-0.1613059788942337,-0.3304280638694763,0.17805472016334534,-0.0026396082248538733,-0.9840170741081238,-0.019073396921157837,-0.05419938638806343,-0.08399134874343872,0.8197477897907534,-0.04967831449045828,0.07432052424775311,0.5657050064443918,0.0026396113541540182,0.17900985053980167,1.2078597507038222
1781552330751998464,2.3595376014709473,1.2175300121307373,-0.07241152971982956,-0.22801165282726288,0.17714986205101013,-0.014674744568765163,-0.9840744733810425,0.009098917245864868,-0.05147210508584976,-0.07390892505645752,0.8208426612439219,-0.04429862340896858,0.07746219975091816,0.5641406019652004,0.014675270884605811,0.17810913400751616,1.2029520686707693
1781552330762033408,2.369572639465332,0.8811445236206055,-0.11232219636440277,-0.32644984126091003,0.17583519220352173,-0.025015437975525856,-0.9841017127037048,0.03278297185897827,-0.0911039486527443,0.042802274227142334,0.8219988047575899,-0.03948325353823741,0.07993877730431578,0.5624667754385748,0.025018047902013032,0.1768100315275073,1.1979599800612954
1781552330772068608,2.379607677459717,0.5545642971992493,-0.11218530684709549,-0.34562990069389343,0.17501132190227509,-0.031057894229888916,-0.9840764403343201,0.024344757199287415,-0.09311813116073608,-0.11504465341567993,0.8230154498105223,-0.036598598171293226,0.08137764890120358,0.5609667969410664,0.031062889826216404,0.17600306033496757,1.1937980677234596
1781552330782103552,2.3896427154541016,0.42226213216781616,-0.068119578063488,-0.32389718294143677,0.17404237389564514,-0.03530488163232803,-0.984105110168457,0.00015194714069366455,-0.14839567244052887,-0.08961009979248047,0.8241588543371479,-0.03439575624679288,0.08224591459345143,0.5592983973670842,0.03531222064131869,0.17504347456836208,1.1893787688496826
1781552330792138496,2.3996777534484863,0.23042427003383636,0.03449081629514694,-0.24969004094600677,0.17396129667758942,-0.03802654519677162,-0.9840180277824402,-0.041774407029151917,-0.03753497451543808,-0.06679373979568481,0.8250143094790945,-0.03311330297890934,0.08303314720097962,0.5579967013930567,0.03803571738758209,0.17497874710161215,1.1860134655871455
1781552330802172416,2.4097115993499756,0.05569586902856827,0.042877644300460815,-0.1937386393547058,0.17443597316741943,-0.03900185972452164,-0.9838957786560059,-0.07694758474826813,0.03738442808389664,-0.00032657384872436523,0.825645405798716,-0.0327438996767222,0.08354601149690416,0.5570077909425745,0.03901175262745982,0.17546782479032397,1.1835634653587792
1781552330812207360,2.4197466373443604,-0.02697078324854374,0.058941032737493515,-0.14777114987373352,0.17494183778762817,-0.038908541202545166,-0.9838096499443054,-0.031112506985664368,0.09690719842910767,-0.1002662181854248,0.8260853349370195,-0.03285660019551067,0.08375920692709658,0.5563164628598924,0.03891836410622707,0.17598134527376566,1.1819166908002683
1781552330822242560,2.429781675338745,-0.17140865325927734,0.036552369594573975,-0.08763004839420319,0.17545470595359802,-0.037775516510009766,-0.9837625026702881,-0.005944833159446716,0.11663293838500977,-0.11712861061096191,0.8263830143442141,-0.03342635981340608,0.08367453853155377,0.5558528867977148,0.03778450561142356,0.17649492204955913,1.180900818559445
1781552330832277504,2.43981671333313,-0.330202579498291,0.02971004508435726,-0.05799492448568344,0.1757877767086029,-0.03517458215355873,-0.9837994575500488,-0.010245189070701599,0.03789065033197403,-0.016917645931243896,0.8265231514088985,-0.03458303894682867,0.08309197366439965,0.5556610610176567,0.035181841167115355,0.17681651912262666,1.1806487029338364
1781552330842312448,2.4498517513275146,-0.4090960621833801,0.016742579638957977,-0.04780859872698784,0.1760181486606598,-0.03137906268239021,-0.9838866591453552,-0.00086250901222229,0.002311069518327713,0.07025140523910522,0.8266066337648832,-0.036218469229902156,0.08212728741834958,0.5555760968564755,0.03138421354321226,0.177028072042469,1.1807469417873302
1781552330852347648,2.4598867893218994,-0.4529151916503906,-0.017942029982805252,-0.024075305089354515,0.1759951263666153,-0.027024338021874428,-0.9840199947357178,-0.02139309048652649,0.012864185497164726,0.09020596742630005,0.8266324317082829,-0.038025465427495006,0.08089532847218409,0.555597617325021,0.02702762805795209,0.17698189770197859,1.1811411428418561
1781552330862382336,2.469921588897705,-0.4981449842453003,-0.04074428230524063,0.004869792610406876,0.17570197582244873,-0.022302787750959396,-0.9841907024383545,-0.03532114624977112,0.012247247621417046,0.07971078157424927,0.8265751584899426,-0.03992214222372769,0.07944090132823986,0.5557596165819372,0.02230463702291634,0.17666320193592133,1.1818979484549708
1781552330872417536,2.47995662689209,-0.45466116070747375,-0.06006072089076042,0.02999751642346382,0.17519313097000122,-0.01764010451734066,-0.9843760132789612,-0.036155059933662415,0.01757907122373581,0.06814682483673096,0.8264501512528141,-0.04174298469116262,0.07790700934771985,0.5560288934670492,0.017641019361361757,0.17612962163229842,1.182904559628063
1781552330882452480,2.4899916648864746,-0.43622061610221863,-0.054656099528074265,0.07130713760852814,0.1745726466178894,-0.013325138948857784,-0.98455411195755,-0.033169448375701904,0.03532831370830536,0.08071500062942505,0.8262309457965837,-0.043399482456917056,0.07641610619574676,0.5564345927571297,0.013325533352611118,0.17548747934680736,1.18421143557393
1781552330892487424,2.5000267028808594,-0.3658468425273895,-0.06731210649013519,0.09310271590948105,0.17397338151931763,-0.009421792812645435,-0.9847052693367004,-0.028801262378692627,0.06301066279411316,0.16520148515701294,0.825935692662181,-0.04489888190704009,0.07504298500572816,0.5569406048434624,0.009421932062669962,0.1748709964479049,1.1857315331084821
1781552330902521600,2.5100607872009277,-0.34172502160072327,-0.08483543992042542,0.1269778609275818,0.17317040264606476,-0.006193894427269697,-0.9848724007606506,-0.02627404034137726,0.09269596636295319,0.23890072107315063,0.8255804348305729,-0.046066551689553904,0.07376768780514115,0.557542093058681,0.006193934172727703,0.1740511733965543,1.1874170712189975
1781552330912556288,2.5200955867767334,-0.40096357464790344,-0.08034814894199371,0.1398627609014511,0.17232762277126312,-0.0028220743406563997,-0.9850356578826904,-0.016123414039611816,0.12477032095193863,0.16577601432800293,0.8251539816958003,-0.04729012216448605,0.07242804605319361,0.5582460380495134,0.002822078053808462,0.17319285873616133,1.1893626269904163
1781552330922591488,2.530130624771118,-0.501236081123352,-0.11203310638666153,0.14941047132015228,0.1713748276233673,0.0013669922482222319,-0.9852049350738525,-0.019763529300689697,0.0470796637237072,0.027975380420684814,0.8246660896014952,-0.04882775009998084,0.07080519359285463,0.5590422338231722,-0.0013669927188600078,0.17222514109378895,1.1915982508772571
1781552330932626432,2.540165662765503,-0.6293002963066101,-0.11407708376646042,0.1444745659828186,0.17021901905536652,0.006674193777143955,-0.9853836297988892,-0.01271781325340271,-0.04932251200079918,-0.036924660205841064,0.8241529120310018,-0.05077230401231477,0.06877752443792873,0.5598783257106208,-0.0066742434980585465,0.17105577536183433,1.1940197413587512
1781552330942661632,2.5502007007598877,-0.832013726234436,-0.11422249674797058,0.13733063638210297,0.16910402476787567,0.013641919940710068,-0.9855037927627563,-0.03088991343975067,-0.12440546602010727,-0.03840672969818115,0.8236056169891507,-0.05341636787019563,0.06629325543529858,0.5607366910733758,-0.013642343014376362,0.16993650339171407,1.1966520584762383
1781552330952696576,2.5602357387542725,-0.9644732475280762,-0.12106574326753616,0.11835001409053802,0.16792342066764832,0.022388532757759094,-0.9855457544326782,-0.04872177541255951,-0.1673165112733841,-0.032551109790802,0.8230399996869693,-0.05677531086455745,0.06327460637067649,0.5615852466174065,-0.022390403609722123,0.16876550337849316,1.1994308962526286
1781552330962731520,2.5702707767486572,-0.9637768268585205,-0.11848621815443039,0.09682874381542206,0.166750967502594,0.031835392117500305,-0.9854849576950073,-0.047152578830718994,-0.1291712075471878,-0.07345974445343018,0.8224863224108029,-0.06041834824341957,0.06005946348402071,0.5623688161678514,-0.03184077128785529,0.167619339610353,1.202137659044914
1781552330972766464,2.580305576324463,-0.8284762501716614,-0.08131873607635498,0.07322807610034943,0.16574726998806,0.040692925453186035,-0.9853283166885376,-0.040091171860694885,-0.03346026688814163,-0.07131224870681763,0.8219931737338964,-0.06385257323278512,0.05708485939395401,0.5630199691690562,-0.04070416613704795,0.16665505224234892,1.2045005955039345
1781552330982801408,2.5903406143188477,-0.6460227966308594,-0.03341459482908249,0.04240012168884277,0.16514527797698975,0.04781806096434593,-0.9851093888282776,-0.044051527976989746,0.02833855152130127,-0.029859483242034912,0.821606114358561,-0.0666688201999185,0.054777576692443694,0.5634874895375319,-0.047836304257492475,0.16609707641058163,1.2062965154962382
1781552330992836352,2.6003756523132324,-0.5311415195465088,0.0231739804148674,0.011768445372581482,0.16509447991847992,0.053554926067590714,-0.984822690486908,-0.05643664300441742,0.036532964557409286,-0.008188784122467041,0.8213356073330353,-0.06905368992332038,0.05310607021165623,0.563754584607112,-0.053580561115018,0.16609437901774315,1.207524287298479
1781552331002870528,2.610409736633301,-0.47316479682922363,0.05380885303020477,-0.01387939415872097,0.16548855602741241,0.05850078910589218,-0.9844750761985779,-0.05390101671218872,0.02752826362848282,-0.02855592966079712,0.821155246646117,-0.07122846644384011,0.05185520117977604,0.5638631021587261,-0.05853420844215585,0.1665412547827021,1.2083346075453503
1781552331012905472,2.6204447746276855,-0.5360233783721924,0.07277163118124008,-0.017804626375436783,0.166085883975029,0.06341388821601868,-0.9840701818466187,-0.039880454540252686,-0.005461014807224274,-0.014098703861236572,0.8210072969793809,-0.07344444438953317,0.050703193285551916,0.563899007335188,-0.06345646717281171,0.16719876553448781,1.2089944159932642
1781552331022940416,2.630479574203491,-0.7205985188484192,0.08771542459726334,-0.018358564004302025,0.16685709357261658,0.06957338005304337,-0.9835233688354492,-0.04739603400230408,-0.040291763842105865,-0.02433490753173828,0.8208012315301262,-0.07623105155778649,0.04926593352095718,0.5639566545267087,-0.06962963031361892,0.168052293329109,1.20987202502077
1781552331032975360,2.640514612197876,-0.8604424595832825,0.07876187562942505,-0.02074236050248146,0.1676674783229828,0.07750041782855988,-0.9827926158905029,-0.04256066679954529,-0.07484538108110428,-0.07238316535949707,0.8205260810940145,-0.07976684281362217,0.047338661435269574,0.5640329944225638,-0.07757820837049838,0.16897626878474858,1.2110177701149232
1781552331043010560,2.6505496501922607,-0.9054746031761169,0.054366253316402435,-0.0376044325530529,0.16830259561538696,0.08645536750555038,-0.9819366931915283,-0.005064085125923157,-0.04337981343269348,-0.045223891735076904,0.8202261112741684,-0.08368115475718978,0.04504561432998981,0.5640901059245925,-0.08656343167708352,0.16974918078480566,1.2122498514584668
1781552331053045504,2.6605846881866455,-0.7555732727050781,0.01781623438000679,-0.024095280095934868,0.1686088591814041,0.09460791200399399,-0.9811322093009949,0.034622952342033386,0.08422508835792542,-0.05229979753494263,0.8199651750749355,-0.08716712875640435,0.042846131200248425,0.5641128278282805,-0.09474962086706215,0.17018892270130606,1.2133034077007077
1781552331063080448,2.6706197261810303,-0.6478723883628845,-0.04940008744597435,0.002585599198937416,0.16844025254249573,0.10149263590574265,-0.9804729223251343,0.04203948378562927,0.16040921211242676,-0.04354441165924072,0.8196836707741461,-0.08999408312787052,0.04079962520510246,0.5642297277555807,-0.10166769243473507,0.17013412399915492,1.2144063552020212
1781552331073115648,2.680654764175415,-0.6331704258918762,-0.10711131989955902,-0.009589840658009052,0.1676255315542221,0.10778992623090744,-0.9799402952194214,0.011802569031715393,0.10998351126909256,0.010656237602233887,0.8194105460161922,-0.09239189654187697,0.03864688739717383,0.5643903932557233,-0.10799975298409954,0.16941717119124136,1.2154860212762029
1781552331083150336,2.6906895637512207,-0.5947170257568359,-0.19171833992004395,-0.01345089077949524,0.16614028811454773,0.11384553462266922,-0.9795083403587341,0.0017369091510772705,0.05166655778884888,0.01858609914779663,0.8191860654146883,-0.09449367202823107,0.03628738747792893,0.5645248390818132,-0.11409290275548577,0.1680169265616703,1.2164029609395406
1781552331093185536,2.7007246017456055,-0.5769146084785461,-0.26581335067749023,-0.0013177958317101002,0.16383345425128937,0.11959945410490036,-0.9792112112045288,0.0018769949674606323,0.04000747948884964,0.06347024440765381,0.8189712301428111,-0.09623332829224783,0.03366819894753639,0.5647049704136635,-0.1198864327024209,0.165776172019795,1.2173003929316817
1781552331103219456,2.710758686065674,-0.6039144992828369,-0.2946343421936035,0.02661237306892872,0.16106083989143372,0.12530303001403809,-0.9789578914642334,-0.038288623094558716,-0.038755178451538086,0.0576169490814209,0.8186990307615747,-0.09782059293697931,0.03085751777703048,0.5649873989509187,-0.12563326443358253,0.16306198226808866,1.2183858536483168
1781552331113254656,2.7207937240600586,-0.6914606094360352,-0.2967461049556732,0.04787638038396835,0.15816093981266022,0.13161194324493408,-0.9786027669906616,-0.09044244885444641,-0.15465272963047028,0.029094159603118896,0.8183139988936612,-0.09962696535832302,0.027804205307442754,0.5653881006423449,-0.13199489697455696,0.16023358815738897,1.2198227291031383
1781552331123289600,2.7308287620544434,-0.7050096988677979,-0.277558833360672,0.05406636372208595,0.15541380643844604,0.13846512138843536,-0.9780970811843872,-0.11127014458179474,-0.17970962822437286,0.03701132535934448,0.8178426030272807,-0.10170532279297685,0.024646959348799274,0.5658461976471216,-0.13891143268123132,0.15757672828484798,1.22149119903906
1781552331133324544,2.740863800048828,-0.656356692314148,-0.26385074853897095,0.03852842003107071,0.15281730890274048,0.14506758749485016,-0.977549135684967,-0.08918815851211548,-0.11599959433078766,0.014627993106842041,0.8174000084350578,-0.10371932666651354,0.021627416774259427,0.5662435670848439,-0.1455812804870657,0.15507189023561957,1.2230005418466088
1781552331143359488,2.750898599624634,-0.6170036792755127,-0.23710088431835175,0.01734323985874653,0.15036533772945404,0.1512659788131714,-0.9769896864891052,-0.05450962483882904,-0.03580272197723389,-0.0005341172218322754,0.8170082489649475,-0.10560339934605702,0.018790280348693966,0.566561851182315,-0.15184886952496246,0.15270855716455561,1.2242843705868816
1781552331153394432,2.7609336376190186,-0.599568784236908,-0.20698678493499756,-0.014544651843607426,0.14819017052650452,0.15717598795890808,-0.9763889312744141,-0.024212509393692017,0.004307761788368225,-0.031164169311523438,0.816701224840198,-0.10744394982906921,0.01616546803942731,0.5667394737382214,-0.1578304487489904,0.15062417115312912,1.2252246773400772
1781552331163429376,2.7709686756134033,-0.6433889269828796,-0.20637717843055725,-0.0409669391810894,0.14612610638141632,0.1632331758737564,-0.9757059216499329,0.013572365045547485,-0.018869802355766296,-0.03442585468292236,0.8164635303235678,-0.10937628339925784,0.01355930921849909,0.5667807703828566,-0.16396690688257085,0.14865961970438635,1.225869440583759
1781552331173464576,2.781003713607788,-0.7866923213005066,-0.23538513481616974,-0.07429879158735275,0.14387895166873932,0.1703103929758072,-0.9748298525810242,0.06382368505001068,-0.051230818033218384,0.01256483793258667,0.8162492832843182,-0.11168168531731519,0.010596203602036431,0.5667028483740435,-0.17114465616536773,0.146535974206302,1.2263415354065785
1781552331183499520,2.791038751602173,-0.8724282383918762,-0.29582691192626953,-0.07693851739168167,0.14109939336776733,0.17853061854839325,-0.9737647175788879,0.08738571405410767,-0.10107700526714325,0.06450873613357544,0.8160144634844649,-0.11431271315147999,0.007087410739798497,0.5665710036214222,-0.17949286794485048,0.1438993697869544,1.2267719172895062
1781552331193534720,2.8010737895965576,-0.9938241839408875,-0.2699492573738098,-0.04584931209683418,0.13815617561340332,0.18774262070655823,-0.9724533557891846,0.06348870694637299,-0.13915865123271942,0.044764816761016846,0.8156547904914523,-0.11731585956633732,0.0032089973732487985,0.5665104026906281,-0.1888633976684348,0.1411252932977312,1.2275019542387862
1781552331203569408,2.8111085891723633,-1.024343490600586,-0.2276100367307663,-0.018482668325304985,0.1356683075428009,0.19774207472801208,-0.9708203673362732,0.009870022535324097,-0.09602698683738708,0.021037042140960693,0.815138499653963,-0.12078609901991437,-0.0007301193145385172,0.5665329129720698,-0.19905397271924336,0.1388468567582028,1.2286310607937743
1781552331213603584,2.8211426734924316,-0.9054373502731323,-0.20493069291114807,0.009519938379526138,0.13356368243694305,0.20718641579151154,-0.9691411256790161,-0.006412208080291748,0.00808456540107727,-0.010183155536651611,0.8145536005938632,-0.12413839950972172,-0.004369362104725072,0.566633030682336,-0.20869808494763806,0.1369538137506428,1.2299478649188134
1781552331223638528,2.8311777114868164,-0.8661554455757141,-0.19972501695156097,0.04004615545272827,0.13161367177963257,0.21569488942623138,-0.9675502777099609,-0.006552636623382568,0.10522794723510742,-0.06302833557128906,0.8139242789859307,-0.12714420352239225,-0.007694815366881859,0.5668353771395924,-0.21740342107179103,0.13519792740405567,1.2314187551411806
1781552331233673472,2.841212749481201,-0.8489037752151489,-0.1606132984161377,0.061183132231235504,0.12993475794792175,0.22392810881137848,-0.9659053683280945,-0.04469916224479675,0.13434825837612152,-0.04875832796096802,0.8132168177429825,-0.130113796865318,-0.010850034453657181,0.5671251706420082,-0.2258430787528991,0.1337184785665696,1.2331239146823694
1781552331243708672,2.851247787475586,-0.7986027598381042,-0.11599309742450714,0.07651282101869583,0.12875095009803772,0.2318371832370758,-0.9641963839530945,-0.09963718056678772,0.059788793325424194,-0.05252724885940552,0.8124607733541931,-0.1330921053304505,-0.013721742919028692,0.5674555570059652,-0.23396590419033855,0.13274660012746628,1.234980240201199
1781552331253743360,2.8612825870513916,-0.9159749150276184,-0.09123155474662781,0.09256263077259064,0.1279061734676361,0.239956334233284,-0.9623206257820129,-0.1301644742488861,-0.0353817492723465,-0.03314751386642456,0.811641769586556,-0.13625899706426514,-0.01652810529746225,0.5678009457076091,-0.24232087128952043,0.13213979841836798,1.2369878043889566
1781552331263778560,2.8713176250457764,-0.8520076870918274,-0.05960065871477127,0.08761926740407944,0.1274193525314331,0.24850213527679443,-0.9602140188217163,-0.1309288889169693,-0.028287306427955627,0.003854215145111084,0.8107638453216801,-0.13971281739863414,-0.019321312688166246,0.568127548882957,-0.25113358245947,0.1319281410738159,1.239110247050727
1781552331273813504,2.881352663040161,-0.6186013221740723,-0.08824748545885086,0.06302044540643692,0.12689243257045746,0.2555805742740631,-0.9584241509437561,-0.12376441061496735,0.0365946888923645,-0.04322373867034912,0.8100057694685578,-0.142538128136297,-0.021697963166736348,0.5684212081996374,-0.25844817745769083,0.1316313960977125,1.2409279562600801
1781552331283848448,2.891387701034546,-0.23823614418506622,-0.04372582212090492,0.062078218907117844,0.12628759443759918,0.25968533754348755,-0.9574001431465149,-0.12152683734893799,0.07547396421432495,-0.10354346036911011,0.8095160374613152,-0.14408663320932086,-0.02321602148537624,0.5686685443013103,-0.2626963325954562,0.131149658318501,1.2421269725159647
1781552331293883648,2.9014227390289307,-0.04719482734799385,0.14995868504047394,0.03840351477265358,0.126856729388237,0.26077955961227417,-0.9570273756980896,-0.167506143450737,0.02040940523147583,-0.1291390061378479,0.809276225268318,-0.14471163870527703,-0.02334216765333823,0.5688459148299363,-0.26382962705137164,0.13178462513631867,1.2428593921648479
1781552331303918592,2.9114577770233154,0.09309756755828857,0.16742755472660065,-0.025401294231414795,0.12862223386764526,0.2606481611728668,-0.9568274617195129,-0.17427654564380646,-0.02854672074317932,-0.06793749332427979,0.8092851027822664,-0.14517988953889555,-0.022562223278046953,0.568745375270944,-0.2636935127625279,0.13362469905991964,1.2429186410069966
1781552331313952512,2.9214916229248047,0.23623502254486084,-0.05514918640255928,-0.14160247147083282,0.12893712520599365,0.25910520553588867,-0.9572041034698486,-0.05734288692474365,-0.018702983856201172,-0.009852170944213867,0.8096466571027958,-0.14463032019458916,-0.021909269118708843,0.568396254633923,-0.2620956525771575,0.1338958693807277,1.2418480000787178
1781552331323987456,2.9315266609191895,0.3375198245048523,-0.0984247550368309,-0.2014508843421936,0.12753994762897491,0.256654292345047,-0.9580512046813965,-0.0010140687227249146,-0.008073359727859497,-0.060305118560791016,0.8103663764062774,-0.14320050332714018,-0.021633524059808663,0.5677428137774215,-0.25955895103776827,0.13234620128883176,1.2395549780437742
1781552331334022400,2.941561698913574,0.5790081024169922,0.09819936007261276,-0.1650017946958542,0.1269674152135849,0.2524799704551697,-0.9592357277870178,-0.0820607990026474,0.05687671899795532,-0.08167308568954468,0.8112062521904768,-0.14128572633825345,-0.020505801755368248,0.5670646485504255,-0.25524239672258336,0.13159812532519952,1.2370716887770763
1781552331344057600,2.951596736907959,0.731304407119751,0.21806290745735168,-0.15270331501960754,0.128224715590477,0.2463276982307434,-0.9606670141220093,-0.137074813246727,0.11100262403488159,-0.04465830326080322,0.8121416785895619,-0.1390719954903432,-0.018041099148311025,0.5663561814870379,-0.24888937008771533,0.13269039870836327,1.2345280015096214
1781552331354092544,2.9616317749023438,0.7309041619300842,0.12179616093635559,-0.13809002935886383,0.12957355380058289,0.23932303488254547,-0.9622552394866943,-0.050868719816207886,0.061061471700668335,-0.002939462661743164,0.813077790845049,-0.1365213859973371,-0.015306349952080335,0.5657137778386981,-0.24166856978312312,0.13385098019674696,1.232037403670868
1781552331364127488,2.9716665744781494,0.568860650062561,-0.012289470061659813,-0.16106538474559784,0.12971751391887665,0.23318904638290405,-0.9637407660484314,0.05866749584674835,-0.06192439794540405,0.051845014095306396,0.8139507527657437,-0.13398390579169897,-0.013339283686412398,0.5651147164492024,-0.2353558633689091,0.13379383701075023,1.2296027555097369
1781552331374162432,2.981701612472534,0.41395625472068787,-0.11338905245065689,-0.15902380645275116,0.12867794930934906,0.2286757528781891,-0.9649608135223389,0.09054508805274963,-0.09119407832622528,0.05965685844421387,0.8147358842493702,-0.1317847815695257,-0.01234331992971376,0.5645228253452244,-0.23071717368911257,0.13256833213661878,1.227260671917024
1781552331384197376,2.991736650466919,0.29914525151252747,-0.16056722402572632,-0.14652691781520844,0.12693722546100616,0.22540514171123505,-0.9659603834152222,0.09306399524211884,-0.018236562609672546,0.05894744396209717,0.8153949168586129,-0.1299052336984305,-0.012018336614715587,0.5640134976180314,-0.22735886049345272,0.13066170269711583,1.2252142716663106
1781552331394232576,3.0017716884613037,0.1196032166481018,-0.17217500507831573,-0.11597193777561188,0.12499891221523285,0.2235017716884613,-0.9666551947593689,0.07745470851659775,-0.006109803915023804,0.054789960384368896,0.8159131615464454,-0.1285451050287463,-0.012188759652172813,0.563572015786899,-0.22540565491507358,0.12859715194041316,1.2235234813516036
1781552331404267520,3.0118067264556885,-0.05888131260871887,-0.16824178397655487,-0.0350792221724987,0.12312955409288406,0.2233157604932785,-0.9669380784034729,0.06696444004774094,-0.0517306923866272,0.0814400315284729,0.8161307443191386,-0.1279266791703848,-0.012873998402005593,0.5633824160978207,-0.22521481812877042,0.1266579812254023,1.2227268560366504
1781552331414302464,3.0218417644500732,-0.2846662402153015,-0.13951413333415985,0.02746165357530117,0.12164762616157532,0.22495470941066742,-0.9667456746101379,0.07273408025503159,-0.09868824481964111,0.13746106624603271,0.8160246284345329,-0.12818688504299489,-0.013974067872475114,0.563450753153466,-0.22689655314872653,0.12517419434669375,1.2229001403615343
1781552331424336384,3.0318756103515625,-0.4880571961402893,-0.1928306221961975,0.0908116027712822,0.120168037712574,0.22872009873390198,-0.9660469889640808,0.0917612835764885,-0.11775816977024078,0.1625191569328308,0.8155854300555176,-0.1293400888932142,-0.01573700809204308,0.5637764199770516,-0.2307627202356327,0.12375581445898153,1.2240244488682552
1781552331434371584,3.0419106483459473,-0.7120242118835449,-0.1967189610004425,0.1282591074705124,0.11850584298372269,0.23425623774528503,-0.9649250507354736,0.12157593667507172,-0.10275600850582123,0.10457354784011841,0.8085624709550467,-0.13097288758238798,-0.019584996746721085,0.5733141819003784,-0.23645344584064307,0.12220157424251099,1.2480857923745299
1781552331444406528,3.051945686340332,-0.9382107257843018,-0.20781822502613068,0.14186519384384155,0.11688259989023209,0.2421114593744278,-0.9631825089454651,0.135970801115036,-0.0718844085931778,0.002977430820465088,0.801237550461406,-0.1335094099076987,-0.024165982979232583,0.5827603689966514,-0.24454146710840796,0.1207599634209181,1.2725186230518628
1781552331454441472,3.061980724334717,-1.1892250776290894,-0.2049473375082016,0.11231929063796997,0.11519449204206467,0.252239465713501,-0.9607837796211243,0.12288840115070343,-0.13250374794006348,-0.04916495084762573,0.7937423796887604,-0.13688333940096,-0.02951367312739723,0.5919164359969494,-0.25499386450179895,0.11932676777738117,1.2968384577489536
1781552331464476672,3.0720157623291016,-1.3707307577133179,-0.21527987718582153,0.09919603168964386,0.11340820044279099,0.2645438313484192,-0.957682192325592,0.09398926049470901,-0.1951621174812317,-0.04832977056503296,0.786098223618816,-0.14102722883173138,-0.03564038184129532,0.6007417382655991,-0.2677308778749131,0.11787053084878765,1.3209552358821834
1781552331474511616,3.0820508003234863,-1.2954660654067993,-0.2424551546573639,0.05777934566140175,0.11141727864742279,0.27738258242607117,-0.9542772769927979,0.0997185930609703,-0.13131019473075867,-0.015022039413452148,0.7784304670739107,-0.14522194097713495,-0.04209461082146653,0.6092492947245153,-0.28106872091871526,0.11622942782115384,1.3446214315396483
1781552331484546304,3.092085599899292,-1.073499321937561,-0.2315143644809723,0.05089959874749184,0.1091981753706932,0.28875547647476196,-0.9511551260948181,0.1074461117386818,-0.018018782138824463,0.046385228633880615,0.77094245159903,-0.1486486427094786,-0.04822890109215084,0.617434465068731,-0.29292667993302146,0.11430541207760793,1.367438183244252
1781552331494581504,3.1021206378936768,-0.750356137752533,-0.13924741744995117,0.06264787167310715,0.10757745802402496,0.297315388917923,-0.9486994743347168,0.10024724900722504,0.08232328295707703,0.015090465545654297,0.7636076222285555,-0.15103522340654657,-0.05327885612115978,0.6255022360085315,-0.3018796511740689,0.11291236027276716,1.3897988433855872
1781552331504616448,3.1121556758880615,-0.5305004715919495,-0.11329944431781769,0.008834440261125565,0.10654163360595703,0.3033080995082855,-0.9469176530838013,0.09252452850341797,0.06680908799171448,-0.04807746410369873,0.7565543817483174,-0.1525196428207456,-0.05726188189209035,0.6333121604733211,-0.30816238554052977,0.11204293227702625,1.4113343984122482
1781552331514651648,3.1221907138824463,-0.2757995128631592,-0.1322879046201706,-0.03661240637302399,0.10527296364307404,0.3072177469730377,-0.9457985162734985,0.09751635044813156,0.03265649080276489,-0.043138861656188965,0.7498186150463785,-0.15305814131080317,-0.060613015032436476,0.6408365273323366,-0.3122680133064168,0.11084963498793421,1.4318481338206228
1781552331524686592,3.132225751876831,-0.07558013498783112,-0.13703472912311554,-0.08499964326620102,0.10376641899347305,0.3088502287864685,-0.9454332590103149,0.10758306831121445,0.09356984496116638,-0.11731088161468506,0.7434334551305786,-0.15259314603706453,-0.06323524314098532,0.6480920491490546,-0.3139839093887159,0.109317857082086,1.4512998762745817
1781552331534720512,3.1422595977783203,0.08717337250709534,-0.10678455233573914,-0.13785699009895325,0.10228607058525085,0.308910071849823,-0.9455749988555908,0.07923247665166855,0.13083294034004211,-0.1501128077507019,0.7373642788859647,-0.1515135898050566,-0.06523896104668067,0.6550429839725298,-0.3140468354311588,0.10775441232632683,1.469767082194178
1781552331544755456,3.152294635772705,0.1843113750219345,-0.11441237479448318,-0.16120412945747375,0.10079188644886017,0.30774611234664917,-0.9461148381233215,0.06650546938180923,0.04901963472366333,-0.08081692457199097,0.731562787662186,-0.14995600632706405,-0.06675153219504609,0.6617199504139226,-0.31282326715971664,0.106132106563399,1.4873759791327839
1781552331554790400,3.16232967376709,0.33539220690727234,-0.15261928737163544,-0.15865787863731384,0.09897656738758087,0.30551111698150635,-0.9470304250717163,0.09148364514112473,0.01202431321144104,0.02866494655609131,0.7258507473144834,-0.1478681591529685,-0.06796911855535823,0.6683231806687617,-0.31047514933285714,0.10413450142383411,1.5046285123252119
1781552331564825600,3.1723647117614746,0.48655909299850464,-0.1093764677643776,-0.1326606422662735,0.09723003208637238,0.30168211460113525,-0.9484378099441528,0.11503498256206512,0.06852662563323975,0.04185211658477783,0.7202347439610215,-0.1451941772753703,-0.06855479043274952,0.6748931678187003,-0.3064564656736891,0.10215910024547262,1.5216100342798191
1781552331574860544,3.1823997497558594,0.5242559313774109,-0.0842604711651802,-0.09514734894037247,0.09600134938955307,0.29692450165748596,-0.9500629305839539,0.11228112876415253,0.10769280791282654,0.05586737394332886,0.7145647533262645,-0.1423521970078016,-0.06858851190968447,0.6814900521583408,-0.3014702834832312,0.10070552908405889,1.538730626159563
1781552331584895488,3.192434787750244,0.3668212592601776,-0.11878914386034012,-0.08648967742919922,0.09480132162570953,0.2926347553730011,-0.9515133500099182,0.11715850979089737,0.0517561137676239,0.07321745157241821,0.7088238390830204,-0.13971132683148255,-0.0687319539556422,0.6879865238524072,-0.2969810531373434,0.09930443827632404,1.5558300576797863
1781552331594930432,3.20246958732605,0.05812760069966316,-0.17865487933158875,-0.09718040376901627,0.09305283427238464,0.2906654179096222,-0.9522892236709595,0.10537245869636536,-0.06709367036819458,0.03204697370529175,0.7029035392198464,-0.13774472975596538,-0.06986964638023994,0.6943135842669111,-0.29492219507852024,0.09740565077881617,1.5729805607604836
1781552331604965376,3.2125046253204346,-0.22527188062667847,-0.17232000827789307,-0.06651090830564499,0.0910913497209549,0.29155319929122925,-0.9522075057029724,0.0538976714015007,-0.14873093366622925,-0.05092054605484009,0.6967577332455976,-0.1367410986844156,-0.07209802471021898,0.7004516646498469,-0.29585017976734784,0.09537311034514567,1.5903064584410591
1781552331615000576,3.2225396633148193,-0.3921191990375519,-0.17822344601154327,-0.05728679150342941,0.08925376832485199,0.29462793469429016,-0.9514347910881042,0.00866188108921051,-0.13552451133728027,-0.03716689348220825,0.6903597443134893,-0.13654348234701194,-0.07508985201910577,0.7064847952691786,-0.2990661370553123,0.09353591348627852,1.6079850269820242
1781552331625035520,3.232574701309204,-0.5416684746742249,-0.16894392669200897,-0.054520830512046814,0.08739667385816574,0.29913410544395447,-0.9502003192901611,0.004827447235584259,-0.11073383688926697,0.021428346633911133,0.6838778172622751,-0.13681993484267294,-0.07861397015491892,0.712328115099178,-0.30378509364937173,0.09171904401436587,1.6255936749548798
1781552331635069696,3.2426087856292725,-0.626835823059082,-0.2072385847568512,-0.05093195661902428,0.08544428646564484,0.30478575825691223,-0.9485805034637451,0.028523601591587067,-0.10410216450691223,0.06651568412780762,0.6773286572435036,-0.1374275604078151,-0.08260404298490767,0.7179944784551713,-0.3097134612372781,0.08983351406261027,1.6431013351685848
1781552331645104640,3.2526438236236572,-0.560796856880188,-0.3035787045955658,0.005871940404176712,0.0826924666762352,0.31056249141693115,-0.9469492435455322,0.061274200677871704,-0.07794225215911865,0.09337258338928223,0.6707288533487499,-0.13772292128537997,-0.08693544648486422,0.7236002909096554,-0.31578473913152705,0.08710416979361292,1.6604748504616322
1781552331655138816,3.2626779079437256,-0.20345500111579895,-0.05321173742413521,0.002939533442258835,0.08119072765111923,0.3137018382549286,-0.9460439682006836,0.05346807837486267,-0.07833501696586609,0.06330782175064087,0.6641623178985279,-0.13749077924815992,-0.08985705649319001,0.729321882404391,-0.31908915556356265,0.08561152749616334,1.678032743924407
1781552331665173504,3.2727127075195312,-0.8446837067604065,-0.13247166574001312,-0.14088501036167145,0.08009682595729828,0.31979086995124817,-0.944096565246582,0.002544775605201721,-0.13805869221687317,0.14520740509033203,0.6579234791938202,-0.13847685030721285,-0.09367968232155163,0.7342922311367702,-0.32550875670354384,0.08463697694767236,1.6943008626322484
1781552331675208448,3.282747745513916,0.05047713592648506,-0.5993185043334961,-0.12722912430763245,0.07633419334888458,0.3220959007740021,-0.9436245560646057,0.20960025489330292,0.07805058360099792,0.06111723184585571,0.6516380021392402,-0.13704064786898568,-0.0969926684029012,0.739716329938645,-0.3279425503031765,0.0807188974987825,1.7105982568990912
1781552331685243648,3.292782783508301,-0.9360671639442444,-0.40722838044166565,-0.3515884578227997,0.07029477506875992,0.3281373977661133,-0.9420108795166016,0.17959842085838318,-0.004498481750488281,-0.03902244567871094,0.6522470282762354,-0.13694499732779794,-0.10119596897405594,0.7386334670864718,-0.3343311144087167,0.07448399356634774,1.7074295590954085
1781552331695278592,3.3028178215026855,0.12486961483955383,-0.6212436556816101,-0.12111184000968933,0.06476803123950958,0.33040574193000793,-0.9416141510009766,0.027746006846427917,0.15506786108016968,-0.0018978118896484375,0.6463455154484813,-0.1347962313129637,-0.10499007005958796,0.7436697276878591,-0.33673343907092573,0.06867587723332319,1.7222793010813158
1781552331705313792,3.3128528594970703,-0.4846797585487366,-0.2995936870574951,-0.3103720545768738,0.05952369049191475,0.3341022729873657,-0.9406554102897644,-0.06445227563381195,0.07728993892669678,-0.1258576512336731,0.6409710351586029,-0.1332914522733026,-0.10911315712065163,0.747986584062425,-0.34065261362992755,0.06319469403901287,1.7354598894560862
1781552331715348736,3.322887897491455,0.26913943886756897,-0.2788771092891693,-0.03459932282567024,0.056012071669101715,0.3341560959815979,-0.9408519268035889,-0.14202585816383362,0.0399283766746521,-0.06165051460266113,0.6352969158510982,-0.13110661542264204,-0.11128831293113146,0.7528770167998476,-0.34070970196658745,0.059463169901003934,1.750027410308424
1781552331725383424,3.3329226970672607,-0.29102322459220886,0.08221320062875748,-0.24945490062236786,0.054807666689157486,0.33415335416793823,-0.940923810005188,-0.07906913757324219,-0.13476678729057312,0.040533244609832764,0.6299039556635909,-0.12983347080263297,-0.11261152457302138,0.7574185379363476,-0.34070679838995105,0.05818303659572732,1.7641209264145847
1781552331735418624,3.3429577350616455,0.49259915947914124,-0.2515023350715637,-0.044417597353458405,0.05389126017689705,0.33421841263771057,-0.9409536719322205,0.05545322224497795,-0.12144985795021057,0.04443877935409546,0.624628842384319,-0.12870784684912662,-0.11383083330361643,0.7617845753939256,-0.3407758339698136,0.05721052457112524,1.7778576614767192
1781552331745453568,3.3529927730560303,-0.3508830964565277,-0.39646750688552856,-0.5857604742050171,0.04930303618311882,0.3320249617099762,-0.9419812560081482,0.3227062523365021,-0.1498807966709137,0.1142987608909607,0.6198942667519944,-0.12543136384619458,-0.11522305645053856,0.7659777193903007,-0.3384495041163088,0.05229200602522797,1.789775469965789
1781552331755488512,3.363027811050415,0.06243925914168358,-0.7053795456886292,-0.3302384316921234,0.04311741888523102,0.33550044894218445,-0.9410527944564819,0.2318764626979828,-0.10449764132499695,0.016126036643981934,0.6155874258951799,-0.12348620797271492,-0.11926762500785465,0.7691414389706922,-0.3421364303772507,0.04578625700690458,1.7995872354715472
1781552331765522688,3.3730618953704834,-0.2562207579612732,-0.5753435492515564,-0.43200209736824036,0.03486631438136101,0.33555662631988525,-0.9413745403289795,0.150360107421875,0.06053099036216736,0.03159981966018677,0.610903983808482,-0.11947386933884728,-0.12263241792515517,0.7729706134204257,-0.34219606420455567,0.03702074180664824,1.8103532181886817
1781552331775557632,3.383096694946289,-0.38770875334739685,-0.15646888315677643,-0.3101334273815155,0.03071463480591774,0.33842992782592773,-0.940490186214447,-0.13862480223178864,-0.0003409385681152344,-0.04701286554336548,0.6063582014979276,-0.11803832800546674,-0.12578497395286117,0.7762569139899536,-0.3452478665353859,0.032646510424176864,1.8210273752223909
1781552331785592576,3.393131732940674,-0.14941494166851044,-0.22609244287014008,-0.13534510135650635,0.028171610087156296,0.34196582436561584,-0.9392900466918945,-0.1334267258644104,0.023100703954696655,-0.04293346405029297,0.6014223993260499,-0.11737871569909032,-0.12875257797988546,0.7797025939475266,-0.3490080367637471,0.029983462141081694,1.8328296365524805
