time,seconds_elapsed,rotationRateX,rotationRateY,rotationRateZ,gravityX,gravityY,gravityZ,accelerationX,accelerationY,accelerationZ,quaternionW,quaternionX,quaternionY,quaternionZ,pitch,roll,yaw
1781555615755302656,0.1325826644897461,0.050324514508247375,0.025462789461016655,-0.00757701275870204,-0.1513822376728058,-0.3286028504371643,-0.9322572350502014,-0.026123270392417908,0.012745916843414307,-0.002480924129486084,-0.9828815343832283,-0.16781806096206517,0.07555441222779685,-0.0085216134845097,0.3348239014755868,-0.16097739425595547,0.044601001578452946
1781555615765337600,0.14261770248413086,0.11951716989278793,0.020291462540626526,-0.006067266687750816,-0.1511373668909073,-0.3294432759284973,-0.9320003390312195,-0.027588829398155212,0.031194984912872314,-0.007696926593780518,-0.9828159971702112,-0.16825709000315914,0.07542801197327384,-0.008539485883277773,0.33571388510909456,-0.16076502236311505,0.044676142356741354
1781555615775373824,0.15265369415283203,0.13307638466358185,0.009253459051251411,-0.0008349539712071419,-0.150985985994339,-0.33066466450691223,-0.9315922260284424,-0.013702109456062317,0.02454286813735962,-0.007754027843475342,-0.9827117865842299,-0.1688989340825193,0.07534606716630735,-0.00858220342041997,0.33700778202428255,-0.16067590092636916,0.04485687634271378
1781555615785408768,0.1626887321472168,0.08308619260787964,-0.0005938452668488026,0.014541871845722198,-0.15096405148506165,-0.3316780626773834,-0.9312354922294617,-0.0006625503301620483,0.0016457140445709229,0.00699537992477417,-0.982620326137427,-0.16943616282178914,0.07532361781434317,-0.008661108540311905,0.3380817738863773,-0.16071344471021687,0.0451145012178625
1781555615795443456,0.17272353172302246,0.018477104604244232,-0.007317794021219015,0.03409453481435776,-0.1510968953371048,-0.3321191370487213,-0.9310567378997803,0.006550386548042297,-0.017276614904403687,0.016811132431030273,-0.9825736562328556,-0.16967974148459938,0.07536861092309419,-0.008800329489745885,0.3385493670343324,-0.16088280476850875,0.04546656941650934
1781555615805478656,0.18275856971740723,-0.06477756798267365,-0.010570311918854713,0.04842766746878624,-0.15131081640720367,-0.33184561133384705,-0.9311195015907288,0.01009070873260498,-0.020464569330215454,0.02018505334854126,-0.9825879257932503,-0.16955344069239292,0.07544450914280529,-0.00899151061243084,0.3382593766520997,-0.16109597447348017,0.045867990553637425
1781555615815513600,0.192793607711792,-0.1257764846086502,-0.02017047628760338,0.05198085680603981,-0.15161944925785065,-0.3308282792568207,-0.9314312934875488,0.014595508575439453,-0.02059689164161682,0.016026020050048828,-0.9826652842814616,-0.1690396878544073,0.07556421960530445,-0.009201306920052207,0.3371811499417721,-0.16136579904358822,0.046250174890840136
1781555615825549568,0.20282959938049316,-0.11282844841480255,-0.035695239901542664,0.041902922093868256,-0.15203677117824554,-0.3296188712120056,-0.9317919611930847,0.020475491881370544,-0.011872828006744385,0.007002532482147217,-0.9827555063642318,-0.16842302323204492,0.07574769489907869,-0.00936287163874577,0.3358998614412565,-0.16174071288323771,0.04653462345533234
1781555615835584768,0.21286463737487793,-0.06274158507585526,-0.04549593850970268,0.02754715271294117,-0.1525370180606842,-0.3287138044834137,-0.9320299029350281,0.028437286615371704,0.007058531045913696,-0.005790531635284424,-0.9828150650714035,-0.16796280110047476,0.07598390707048815,-0.00946864994562238,0.33494138484362806,-0.16222290646218152,0.04675084926221597
1781555615845619712,0.2228996753692627,0.015104210935533047,-0.033969778567552567,0.006871967576444149,-0.15297754108905792,-0.3284662961959839,-0.9320449233055115,0.028984636068344116,0.028448015451431274,-0.01081085205078125,-0.9828184074117534,-0.16784138181499633,0.07620240526896618,-0.009506870643935269,0.33467932725314004,-0.16268061569752748,0.04688446297834217
1781555615855654656,0.23293471336364746,0.07767970860004425,-0.017656050622463226,-0.0022554839961230755,-0.15322035551071167,-0.32893839478492737,-0.9318385124206543,0.01747816801071167,0.04251566529273987,-0.009888172149658203,-0.9827659097072504,-0.1680916034885805,0.07632790150921683,-0.009505049054296142,0.33517919090956677,-0.16296973961723743,0.04697292451893273
1781555615865690624,0.24297070503234863,0.08063475042581558,-0.0016110390424728394,-0.010003418661653996,-0.1532888114452362,-0.32972002029418945,-0.9315509796142578,0.0086049884557724,0.03865861892700195,-0.008710861206054688,-0.982692772750913,-0.16850202070220616,0.0763647626340872,-0.009503184510045946,0.3360069945091947,-0.16309070632734982,0.04706074847623837
1781555615875725824,0.2530057430267334,0.03260384127497673,0.006814936175942421,-0.016103655099868774,-0.15321752429008484,-0.3302954435348511,-0.9313588738441467,0.008686274290084839,0.016956210136413574,0.0003286004066467285,-0.9826443596227288,-0.1687994332056089,0.07633693358083689,-0.009459191006471138,0.33661657596003963,-0.16304923611244357,0.04701632052122916
1781555615885760512,0.26304054260253906,-0.01830354705452919,0.015339980833232403,-0.016118569299578667,-0.15306523442268372,-0.3303969204425812,-0.9313479065895081,0.009739428758621216,-0.005632132291793823,0.009305059909820557,-0.9826421626191866,-0.16884575755419504,0.0762703236250681,-0.009394266583013546,0.33672407346341493,-0.1628919075703015,0.046866354390142605
1781555615895795456,0.27307558059692383,-0.033751480281353,0.025384094566106796,-0.01198108121752739,-0.15281836688518524,-0.33013179898262024,-0.9314824342727661,0.005418464541435242,-0.01566287875175476,0.018961071968078613,-0.9826770166761065,-0.16869959532648202,0.07615258899309062,-0.009340754744987417,0.33644318390849626,-0.16261071326475185,0.04668512586844112
1781555615905830656,0.2831106185913086,-0.0187834482640028,0.032840143889188766,-0.00617938581854105,-0.15253201127052307,-0.3298915922641754,-0.9316144585609436,0.002553388476371765,-0.014010995626449585,0.02592909336090088,-0.9827107780282681,-0.1685680250366589,0.07601043375232366,-0.00931216964061957,0.3361887297598728,-0.16228874694779494,0.04654998820888093
1781555615915866624,0.29314661026000977,0.018443549051880836,0.034448958933353424,-0.017310068011283875,-0.15217502415180206,-0.32989394664764404,-0.9316720366477966,0.002104833722114563,-0.002320408821105957,0.01554960012435913,-0.9827256220640039,-0.16856312369867274,0.0758318315746052,-0.009288103249807993,0.33619121643093713,-0.16190571508038246,0.046435520140975274
1781555615925901568,0.30318164825439453,0.06008793041110039,0.019488120451569557,-0.023374352604150772,-0.1518598347902298,-0.33031028509140015,-0.9315758943557739,0.004765108227729797,0.013064831495285034,0.0028191804885864258,-0.9827018141076761,-0.16877272488324285,0.07568227981891705,-0.009224266906821092,0.33663230697123464,-0.16159255614794654,0.04628932692813391
1781555615935936768,0.3132166862487793,0.0695331022143364,0.013561256229877472,-0.023524021729826927,-0.15162234008312225,-0.33095836639404297,-0.9313845634460449,0.008021891117095947,0.011881858110427856,-0.006222188472747803,-0.9826539093446498,-0.16910345487277648,0.07557601295673577,-0.009142945887320382,0.3373189955881606,-0.16137677533860648,0.046144968001311834
1781555615945971712,0.32325172424316406,0.05245637521147728,0.009387816302478313,-0.021341560408473015,-0.15142875909805298,-0.33155107498168945,-0.9312052726745605,0.0056768059730529785,-0.005576610565185547,0.002555370330810547,-0.9826089321159082,-0.16940684997262867,0.07548967891817114,-0.009076064542824041,0.33794716335261477,-0.16120479972849416,0.04603243745901119
1781555615956006400,0.3332865238189697,0.03404754027724266,0.0007791477255523205,-0.016475966200232506,-0.151328444480896,-0.33198317885398865,-0.9310675859451294,0.003333449363708496,-0.008776098489761353,0.010489583015441895,-0.9825745721855723,-0.1696268080478413,0.07545160724144682,-0.009004421917782252,0.3384052179599872,-0.16112325339123368,0.04591132167690217
1781555615966042624,0.3433225154876709,0.02033146470785141,-0.0006991727277636528,-0.011960575357079506,-0.15128734707832336,-0.33225610852241516,-0.930976927280426,0.0020106136798858643,-0.008732020854949951,0.012397825717926025,-0.982552014595028,-0.169765075364843,0.07544109921975216,-0.008946880694760207,0.3386945705036281,-0.16109566607645895,0.04581391856406676
1781555615976077568,0.35335755348205566,-0.004872959107160568,0.013985764235258102,-4.7190929763019085e-05,-0.15119612216949463,-0.3323405086994171,-0.9309616088867188,-0.005420088768005371,-0.010799109935760498,0.01634979248046875,-0.9825483145776545,-0.1698064497507426,0.07539871324150287,-0.008922978489303046,0.33878406746210926,-0.1610027966358801,0.04575678840344063
1781555615986112512,0.36339259147644043,-0.016872363165020943,0.02387421391904354,0.009172939695417881,-0.15102247893810272,-0.33220210671424866,-0.9310392141342163,-0.012933224439620972,-0.016262859106063843,0.015221953392028809,-0.9825677980908415,-0.16973430250817623,0.07530383928588968,-0.008955813090468384,0.3386373152792383,-0.160807891824817,0.04577754275954664
1781555615996147712,0.3734276294708252,-0.020064961165189743,0.02267232909798622,0.020238639786839485,-0.1508387327194214,-0.33202800154685974,-0.9311310648918152,-0.011346936225891113,-0.01721513271331787,0.010064780712127686,-0.9825903549780473,-0.16964741212964837,0.0751945346370015,-0.009041955045558017,0.3384527438744085,-0.16060002372579066,0.04590140284274584
1781555616006183680,0.38346362113952637,0.0015204917872324586,0.0007330747321248055,0.02561023458838463,-0.15080568194389343,-0.33184152841567993,-0.9312028884887695,-0.0016906410455703735,-0.004126459360122681,0.00024896860122680664,-0.9826074343799938,-0.1695592153492173,0.07515462653570888,-0.009172883772622209,0.33825504609703777,-0.16055325803387988,0.04614314597286012
1781555616016218624,0.39349865913391113,0.04818306863307953,-0.009113697335124016,0.009124736301600933,-0.1508772224187851,-0.33199408650398254,-0.931136965751648,0.007719248533248901,0.012597143650054932,0.0005339384078979492,-0.9825897638695632,-0.1696473632327868,0.07517515538904446,-0.009267875944978268,0.3384167909887542,-0.1606392991965156,0.04636499641797353
1781555616026253824,0.4035336971282959,0.06798607110977173,-0.0003886488266289234,0.0035845618695020676,-0.15091121196746826,-0.33256497979164124,-0.9309276938438416,0.007295474410057068,0.018569618463516235,0.0007519125938415527,-0.9825360984225684,-0.169950809175702,0.07518564450508347,-0.009314427101206219,0.33902207294767317,-0.1607103673986686,0.04652315110136554
1781555616036288768,0.41356873512268066,0.06266001611948013,0.0038447121623903513,-0.00196013948880136,-0.1508876532316208,-0.3332267105579376,-0.9306948184967041,0.006035983562469482,0.01129680871963501,0.002182304859161377,-0.9824765203491886,-0.1703001742963672,0.07516935180856076,-0.009346467804794801,0.33972382002096724,-0.16072522796811847,0.046650243062878335
1781555616046323456,0.42360353469848633,0.03362196683883667,-0.000469741877168417,-0.0052169193513691425,-0.15087808668613434,-0.3337274193763733,-0.9305169582366943,0.008391514420509338,0.000429689884185791,-0.003259897232055664,-0.9824312313721302,-0.17056290727220422,0.07516524969164301,-0.00934759571617361,0.34025493801456974,-0.16074540178952162,0.04670092976723682
1781555616056359424,0.4336395263671875,0.016249902546405792,-0.009806517511606216,-0.01801154389977455,-0.15092287957668304,-0.3340284526348114,-0.9304016828536987,0.016370877623558044,0.0020582377910614014,0.0010651350021362305,-0.9824024116341897,-0.17071715855412092,0.07519850300437743,-0.009291665497835683,0.3405742965520305,-0.16081188604058422,0.046625616288028686
1781555616066394624,0.44367456436157227,-0.006171782501041889,-0.017404118552803993,-0.008409782312810421,-0.15105533599853516,-0.33416619896888733,-0.9303306937217712,0.01613713800907135,0.003309905529022217,-0.0034155845642089844,-0.9823850807902773,-0.17078525399386707,0.07527974663396513,-0.009216047385722357,0.34072044419411945,-0.1609626617382021,0.04651023904955639
1781555616076429568,0.45370960235595703,-0.029884036630392075,-0.013864776119589806,-0.005895758979022503,-0.15121610462665558,-0.33404436707496643,-0.9303483366966248,0.012101724743843079,0.0010823309421539307,0.005940377712249756,-0.9823900442834094,-0.1707191221901895,0.07537114858625979,-0.009162327926587185,0.3405911907389793,-0.16112802845992286,0.04641867446146488
1781555616086464768,0.4637446403503418,-0.0187821164727211,-0.012740390375256538,0.008606751449406147,-0.1513480842113495,-0.33380821347236633,-0.9304116368293762,0.0018882602453231812,-0.000191420316696167,0.01128321886062622,-0.9824063066862984,-0.17059524667104625,0.07544164119290973,-0.009142686759313047,0.34034064118489443,-0.1612554578044484,0.046379596175993625
1781555616096499968,0.47377991676330566,-0.016601519659161568,-0.011295625939965248,0.017954979091882706,-0.15148505568504333,-0.33357560634613037,-0.9304727911949158,-0.00040093064308166504,-0.002300858497619629,0.012290418148040771,-0.9824214138757138,-0.17047874501419957,0.07550236846642759,-0.009194008197620831,0.3400938844094343,-0.16138844902401026,0.04648623690334695
1781555616106534912,0.48381495475769043,0.014418180100619793,-0.009721830487251282,0.012210806831717491,-0.15161342918872833,-0.3334754705429077,-0.9304877519607544,0.0005514174699783325,0.003336310386657715,0.009146809577941895,-0.9824245666151739,-0.17043322408135336,0.07555551319291118,-0.009265332449854356,0.3399876814166623,-0.16152029285333075,0.046645299038639836
1781555616116570112,0.4938499927520752,0.057483624666929245,-0.005700722336769104,6.333026976790279e-05,-0.1517118215560913,-0.33377259969711304,-0.9303652048110962,0.0027707815170288086,0.013154923915863037,0.0018831491470336914,-0.9823929997660336,-0.1705934886341297,0.07559939389681465,-0.009306303533963056,0.3403028565485302,-0.16164422628175934,0.04677699326104297
1781555616126604800,0.5038847923278809,0.09171590209007263,0.007648505736142397,-0.01716545782983303,-0.15165208280086517,-0.3345036208629608,-0.930112361907959,0.0012004226446151733,0.023010700941085815,0.004773616790771484,-0.9823288612107092,-0.17097521117253092,0.0755731619852003,-0.0092899100098706,0.34107847275455133,-0.16162484524785378,0.04680616657194863
1781555616136639744,0.5139198303222656,0.09919831901788712,0.03032745234668255,-0.027473755180835724,-0.1513383537530899,-0.3354310095310211,-0.9298294186592102,-0.002500757575035095,0.022000223398208618,0.0008438229560852051,-0.982257336602576,-0.17145366187390862,0.07542502294033668,-0.009229267297379851,0.3420626976319011,-0.16134448426244377,0.046717415103771726
1781555616146675712,0.5239558219909668,0.09086395800113678,0.02905352972447872,-0.02907671220600605,-0.15090394020080566,-0.33635279536247253,-0.9295669794082642,0.001505136489868164,0.012423962354660034,0.0008713006973266602,-0.9821913827902181,-0.17192595990832565,0.07521946856491211,-0.009143815669511678,0.3430413653031032,-0.16093396338767835,0.04655460253094355
1781555616156710912,0.5339908599853516,0.06840898096561432,0.029235955327749252,-0.024696344509720802,-0.15051527321338654,-0.3371463716030121,-0.92934250831604,0.009981811046600342,0.000781625509262085,0.010214090347290039,-0.9821350064819576,-0.17233190678350918,0.07503640996054603,-0.009062446892764345,0.34388415205761763,-0.1605646572808695,0.0463954454914445
1781555616166745856,0.5440258979797363,-0.009549736976623535,0.035443782806396484,-0.022708294913172722,-0.15013857185840607,-0.33750906586647034,-0.9292718172073364,0.012778952717781067,-0.005828946828842163,0.015956997871398926,-0.9821177710360374,-0.17251187851492444,0.07485824292004123,-0.008983009701253162,0.34426942256538945,-0.16018163869633242,0.04619893505887598
1781555616176781056,0.5540609359741211,-0.3204090893268585,0.06160960718989372,-0.027973631396889687,-0.14964351058006287,-0.336262583732605,-0.9298033714294434,0.015930742025375366,-0.01793968677520752,0.02158498764038086,-0.9822542380776931,-0.17184148054270912,0.07462452498460809,-0.008854106154962172,0.34294555608334754,-0.15957267338678116,0.04571840319499519
1781555616186816000,0.5640959739685059,-1.2949976921081543,0.14710666239261627,-0.07582876831293106,-0.14853335916996002,-0.3292081952095032,-0.9325019121170044,0.020100116729736328,-0.06330889463424683,0.055777668952941895,-0.9829445729305486,-0.1680958769399131,0.0741135369092673,-0.008430773611818347,0.3354649003763868,-0.15795780790689062,0.0439537884335611
1781555616196851968,0.574131965637207,-2.7565548419952393,0.1518007516860962,-0.10458851605653763,-0.1468510776758194,-0.31056955456733704,-0.9391385912895203,0.005585208535194397,-0.18358632922172546,0.07793253660202026,-0.9846398340754575,-0.15825355303371305,0.07339284513962126,-0.007330115777151673,0.3157921510546852,-0.15511176741210964,0.03963415029111225
1781555616206886656,0.5841667652130127,-4.823653221130371,0.2971782088279724,-0.11885000765323639,-0.14441853761672974,-0.2752167284488678,-0.9504730701446533,-5.900859832763672e-06,-0.3277038037776947,0.16879582405090332,-0.9875248778834624,-0.13975643881779423,0.0723298253595173,-0.005593779382971001,0.278815126982463,-0.15079047911336774,0.032526734342037476
1781555616216921856,0.5942018032073975,-7.342053413391113,0.3194752633571625,-0.20613430440425873,-0.14089877903461456,-0.2170526683330536,-0.9659377336502075,-0.03363123536109924,-0.4077031910419464,0.23778831958770752,-0.9914438876065382,-0.10966417084703783,0.07074538431823431,-0.002820556402201837,0.21879413185991037,-0.14484581663027365,0.02162653912348956
1781555616226956800,0.6042368412017822,-9.461066246032715,0.23898091912269592,-0.24182918667793274,-0.13783259689807892,-0.1348959505558014,-0.98122638463974,-0.04656985402107239,-0.4880746006965637,0.27829980850219727,-0.9952231383658018,-0.06859729313210167,0.06841934772989623,-0.01200888556431342,0.13530844834341366,-0.13955659338899268,0.03360321255682991
1781555616236992768,0.6142728328704834,-11.185680389404297,0.0753810852766037,-0.2258523553609848,-0.13599218428134918,-0.03287314996123314,-0.9901643991470337,0.009496837854385376,-0.5702915191650391,0.2863374948501587,-0.9975110501354263,-0.016978055490162382,0.06804087604865039,-0.007337093349126213,0.03287907498136977,-0.13648911760754168,0.0169580445389946
1781555616247027968,0.6243078708648682,-12.628805160522461,-0.16615284979343414,-0.18640853464603424,-0.1365228295326233,0.08544322848320007,-0.9869452714920044,0.04704529047012329,-0.55497145652771,0.3241034746170044,-0.9967284984962961,0.04271068367324743,0.0685796008261657,-0.002196856121385821,-0.08554753698412924,-0.1374563649073681,-0.0014842534664375668
1781555616257062912,0.6343429088592529,-13.179387092590332,-0.3290717303752899,-0.10195092111825943,-0.13928957283496857,0.21252456307411194,-0.9671772122383118,0.05843324959278107,-0.44364944100379944,0.35792428255081177,-0.9917561846987097,0.10735003933474527,0.0699097184723456,0.002900673711999766,-0.21415781749515828,-0.1430331317984647,-0.02125015121273258
1781555616267097856,0.6443779468536377,-13.180929183959961,-0.38704127073287964,-0.12554572522640228,-0.1430153101682663,0.33821168541908264,-0.9301394820213318,0.061426565051078796,-0.26557984948158264,0.3751925826072693,-0.9823478205430899,0.17271868575640337,0.071403881049466,0.007898449744920823,-0.3450159518589218,-0.15256208468806168,-0.04271290942579246
1781555616277133056,0.6544129848480225,-12.67293930053711,-0.5873978137969971,-0.15447591245174408,-0.14788928627967834,0.4558325409889221,-0.877693235874176,0.04155080020427704,0.04300779104232788,0.3377457857131958,-0.9688568352099213,0.2362071774046673,0.07320888584479532,0.012767234792374708,-0.47330734462815116,-0.1669296802601169,-0.06670091363576769
1781555616287169024,0.6644489765167236,-11.600689888000488,-0.5520543456077576,-0.23453424870967865,-0.15436305105686188,0.5591912269592285,-0.8145411014556885,0.01991787552833557,0.3497442603111267,0.23362380266189575,-0.9523456788139407,0.29497986980911534,0.07560640734193977,0.0175540531242184,-0.5934099040914887,-0.18728823284047014,-0.09427244379493943
1781555616297203712,0.6744837760925293,-9.432074546813965,-0.6175107955932617,-0.11275137215852737,-0.15974506735801697,0.6420769691467285,-0.7498124837875366,-0.013014927506446838,0.5213751792907715,0.04740464687347412,-0.9351164702288083,0.34509746368846694,0.07746939311234342,0.02152908073693802,-0.6972043671524554,-0.20990841623745915,-0.12257183244515436
1781555616307238912,0.6845188140869141,-6.471372127532959,-0.6863670945167542,0.025789732113480568,-0.16504575312137604,0.6994190812110901,-0.6953940987586975,-0.04110047221183777,0.5427836775779724,-0.23801660537719727,-0.9204000815565772,0.38200794602698274,0.07983037061973634,0.023682752718428436,-0.7745843747571437,-0.23302960060251202,-0.1468616986066141
1781555616317273856,0.6945538520812988,-4.618105888366699,-0.6172969937324524,0.10067515820264816,-0.16877692937850952,0.7368336915969849,-0.6546682119369507,-0.09828241169452667,0.41567790508270264,-0.3391062021255493,-0.9092571090112708,0.4073659584948935,0.08196870625234007,0.024198965608503646,-0.8283749223036252,-0.2523112182305066,-0.16461306125824357
1781555616327308800,0.7045888900756836,-3.3801980018615723,-0.3117634356021881,-0.12638168036937714,-0.17193415760993958,0.7622086405754089,-0.6240806579589844,-0.17975041270256042,0.35131675004959106,-0.22949600219726562,-0.9007884711629396,0.4253924363988272,0.08367166650998051,0.024910182435282455,-0.8667182290856419,-0.2688308949745511,-0.18027121300174917
1781555616337344768,0.7146248817443848,-3.1099724769592285,-0.03413396328687668,-0.18082281947135925,-0.17418095469474792,0.7813814282417297,-0.5992529392242432,-0.22131161391735077,0.19725626707077026,-0.16422057151794434,-0.8938215048828477,0.4396147802800967,0.08433493129084146,0.026637181272231265,-0.8968763499621013,-0.2828693324130921,-0.1963833438738126
1781555616347379968,0.7246599197387695,-3.3329319953918457,0.11940593272447586,-0.14266584813594818,-0.17522919178009033,0.8001211285591125,-0.5736731290817261,-0.13890348374843597,-0.010860323905944824,-0.07810598611831665,-0.8865697535958943,0.45397820145878715,0.08406676288334423,0.02881977462475913,-0.9274971019927246,-0.2964504370528664,-0.21407257645883507
1781555616357414912,0.7346949577331543,-3.3686068058013916,0.20976832509040833,-0.03515883907675743,-0.1749517023563385,0.8188803791999817,-0.5466504693031311,-0.030980899930000305,-0.23506391048431396,-0.06574571132659912,-0.8788407559610965,0.46881816306390345,0.08297161938332837,0.031050443682834775,-0.9594576625600498,-0.3097420254345038,-0.23272623844690232
1781555616367450112,0.7447299957275391,-3.120863437652588,0.044411443173885345,0.03704584762454033,-0.1741003543138504,0.8363610506057739,-0.5197973847389221,0.1237158328294754,-0.2974969148635864,-0.048302650451660156,-0.8711080437904078,0.4831264971558516,0.08179305562548288,0.032702792880549836,-0.990610928737987,-0.32319485107115725,-0.2507276714383893
1781555616377486080,0.7547659873962402,-2.382690191268921,-0.31383857131004333,0.015913132578134537,-0.17452822625637054,0.8505996465682983,-0.4960043430328369,0.23904240131378174,-0.09998923540115356,0.00038361549377441406,-0.8642262424723505,0.49527865545852673,0.08183449683578638,0.03339654391849836,-1.0171246552391502,-0.338338307498187,-0.26711019161242827
1781555616387520768,0.7648007869720459,-1.636013388633728,-0.4861573278903961,0.04675333574414253,-0.17632444202899933,0.8603258728981018,-0.4782772362232208,0.24088439345359802,0.0881451964378357,0.04050260782241821,-0.8590970193931238,0.5039158796965718,0.08324761656617714,0.03303020097598524,-1.0359086474594832,-0.35320583538578204,-0.2795532409136268
1781555616397555712,0.7748358249664307,-1.3700921535491943,-0.34745192527770996,0.0032540636602789164,-0.17810949683189392,0.8673508763313293,-0.46473583579063416,0.14890418946743011,0.15581190586090088,0.11956676840782166,-0.8551709549545388,0.5103351555209386,0.08479453321509699,0.032411891171922835,-1.049854665557144,-0.3659829023725168,-0.2892978305312544
1781555616407590912,0.7848708629608154,-1.4140431880950928,-0.13097622990608215,-0.07591745257377625,-0.17951619625091553,0.8736863732337952,-0.45215708017349243,0.041958197951316833,0.14912551641464233,0.13088327646255493,-0.8514804231898324,0.5163150186967522,0.0856752953323169,0.03255233418336981,-1.0627290726718377,-0.37793627149456543,-0.30029852657555767
1781555616417625856,0.7949059009552002,-1.4555559158325195,-0.041367508471012115,-0.08920689672231674,-0.1806308776140213,0.8799062967300415,-0.43947407603263855,0.0246097594499588,0.0979074239730835,0.07326310873031616,-0.84771749131188,0.5223684101509972,0.0859895940410443,0.03334917609795098,-1.0756649879935472,-0.3899667184867693,-0.3131619772210892
1781555616427661824,0.8049418926239014,-1.4995700120925903,-0.09865729510784149,-0.03924759104847908,-0.181510791182518,0.8862380385398865,-0.4261878728866577,0.0831678956747055,0.0401536226272583,0.026071906089782715,-0.8437604142964158,0.5286546235086266,0.08619952454941543,0.034093425693482546,-1.0891597844431578,-0.4026274987089153,-0.3267305001512198
1781555616437697024,0.8149769306182861,-1.3587268590927124,-0.15017694234848022,0.06154213845729828,-0.18197713792324066,0.8923376798629761,-0.41305917501449585,0.12562642991542816,0.009243130683898926,-7.253885269165039e-05,-0.8398511266613893,0.5347838263691657,0.0864677301302095,0.03434760993155821,-1.1024980377373648,-0.4149755020266131,-0.3391805797218776
1781555616447731968,0.8250119686126709,-0.9147248864173889,-0.12019281089305878,0.17389878630638123,-0.18150129914283752,0.89728844165802,-0.4024062752723694,0.10633650422096252,0.03537452220916748,-0.051405370235443115,-0.8366894433586317,0.5397276278341842,0.08655029536092779,0.03397071041450123,-1.1135882371042547,-0.42371840384962534,-0.3473548603330916
1781555616457766656,0.8350467681884766,-0.162833571434021,-0.03236309438943863,0.301868736743927,-0.17967216670513153,0.8999332189559937,-0.39728841185569763,0.04815666377544403,0.12254297733306885,-0.11467444896697998,-0.8351977077293415,0.5421582015600542,0.08614103282012052,0.033000122421278213,-1.1196163929186373,-0.4247202653033111,-0.3475948583312773
1781555616467802880,0.8450829982757568,0.6360532641410828,0.07393684983253479,0.4352840483188629,-0.17623159289360046,0.8996727466583252,-0.3994138240814209,-0.003944173455238342,0.2237250804901123,-0.1730043888092041,-0.8358953569690445,0.5413449826434364,0.08508056569408978,0.03139836913828464,-1.1190192939984063,-0.4155332181452306,-0.33761648383076864
1781555616477837824,0.8551177978515625,1.535951852798462,0.2321813404560089,0.5732253789901733,-0.17110338807106018,0.8961223363876343,-0.4094977378845215,-0.04964551329612732,0.2724109888076782,-0.20717096328735352,-0.8389838017231319,0.5369540517352179,0.08325548706642587,0.029242152157516292,-1.1109537273624526,-0.3957880930042875,-0.31731707564181827
1781555616487872768,0.8651528358459473,2.318023443222046,0.4018706679344177,0.767079770565033,-0.1637926697731018,0.8891223669052124,-0.42735639214515686,-0.05907720327377319,0.2338176965713501,-0.17205464839935303,-0.8443798904152662,0.5290152269118318,0.08040335912483629,0.026474383936328144,-1.095423998314009,-0.36600085516172215,-0.2875073552584174
1781555616497907968,0.875187873840332,2.5720162391662598,0.5476443767547607,0.9834858775138855,-0.15389320254325867,0.8794145584106445,-0.45049628615379333,-0.02336813509464264,0.18926525115966797,-0.08780327439308167,-0.8513039443022863,0.5185748995229235,0.07636709702038452,0.023014977578106277,-1.0746309902358595,-0.32917931159783875,-0.2513254724082321
1781555616507942912,0.8852229118347168,2.2759087085723877,0.6549227237701416,1.0794193744659424,-0.14206819236278534,0.8697518110275269,-0.472597599029541,0.004723846912384033,0.17475801706314087,-0.047254085540771484,-0.8578635995660275,0.5085280339787277,0.07141739352324966,0.01920782381525357,-1.054699217321659,-0.2920175697786608,-0.21563508534790982
1781555616517978880,0.895258903503418,1.9312448501586914,0.823442816734314,1.3086575269699097,-0.1282045692205429,0.8611322641372681,-0.49195003509521484,0.004471048712730408,0.08295947313308716,-0.032494544982910156,-0.8635638681908072,0.4997469977347909,0.06540586174041162,0.015248003402845359,-1.037492722832943,-0.25493453347129724,-0.1813852775704188
1781555616528013824,0.9052939414978027,1.5729575157165527,0.9536914825439453,1.5945316553115845,-0.11123605072498322,0.8540897965431213,-0.5080918073654175,0.04545541852712631,-0.006357252597808838,-0.02323448657989502,-0.8682933413408429,0.49253048191360677,0.05803300610351594,0.010615284743622107,-1.0237983588019508,-0.21552855821942624,-0.14586699884693025
1781555616538049024,0.9153289794921875,1.2490124702453613,1.0078388452529907,1.8379400968551636,-0.09144081175327301,0.8485947847366333,-0.5210811495780945,0.10686744749546051,0.004325747489929199,-0.04213601350784302,-0.8720746398510777,0.486830317102666,0.0495547292865063,0.0051454939192171496,-1.0133234550598444,-0.17371414191668916,-0.10837705925354027
1781555616548083712,0.9253637790679932,1.1562058925628662,0.9641150832176208,2.02878475189209,-0.06975345313549042,0.843865156173706,-0.5320019125938416,0.1725977063179016,0.06180495023727417,-0.08144718408584595,-0.875213985888257,0.48203495685201064,0.04051348118791404,-0.0012058003948952184,-1.0044466148006224,-0.13037136052070655,-0.06891446816038585
1781555616558118912,0.9353988170623779,1.1991996765136719,0.8779903054237366,2.1491434574127197,-0.0470719151198864,0.8387637734413147,-0.5424570441246033,0.2346024364233017,0.1206936240196228,-0.1241384744644165,-0.8781557636521871,0.4772700050293711,0.03138207661654485,-0.008427919842992166,-0.9950088458401762,-0.08655855829592633,-0.027833748853476198
1781555616568154880,0.9454348087310791,1.2663112878799438,0.754906177520752,2.091062068939209,-0.024692006409168243,0.8327686786651611,-0.5530703067779541,0.27260154485702515,0.20524096488952637,-0.1858670711517334,-0.8810662527245192,0.4721795288533638,0.022613112149844183,-0.016048233224595358,-0.9840901032310222,-0.04461570375439223,0.012507463085416583
1781555616578189824,0.9554698467254639,1.309862494468689,0.5929340720176697,1.9650654792785645,-0.004019522108137608,0.825797975063324,-0.5639517903327942,0.28182104229927063,0.2726059556007385,-0.2450692057609558,-0.8839806596869266,0.4666989934253039,0.014701962115659726,-0.023540846013542612,-0.9716156480498537,-0.007127300548138305,0.04948508532984452
1781555616588224768,0.9655048847198486,1.2695814371109009,0.4231531620025635,1.8763084411621094,0.014707070775330067,0.8182960748672485,-0.5746088027954102,0.3005395233631134,0.27554547786712646,-0.24890804290771484,-0.8867613545312257,0.4611232205952425,0.007808912355516004,-0.03096390806281068,-0.9584403681241007,0.025589341018371882,0.08310485322934305
1781555616598259968,0.9755399227142334,1.1783974170684814,0.2678922116756439,1.7584151029586792,0.03162240982055664,0.810745358467102,-0.58454430103302,0.33060598373413086,0.25039660930633545,-0.2497451901435852,-0.8892717022475616,0.4557679260024321,0.001857006992601773,-0.03831465014431042,-0.9454242118407742,0.05404486151936951,0.11376015883080032
1781555616608295936,0.9855759143829346,1.1661207675933838,0.06949935853481293,1.5926588773727417,0.046212516725063324,0.8031827807426453,-0.5939376950263977,0.36214321851730347,0.26648885011672974,-0.2930862307548523,-0.8915756259936272,0.4505800112516633,-0.0029680637639817307,-0.04540814873257419,-0.9326187407347447,0.07765056396861723,0.1408711892448128
1781555616618330880,0.9956109523773193,1.2868049144744873,-0.153476744890213,1.4463459253311157,0.0581732802093029,0.7950757741928101,-0.603713870048523,0.4073571264743805,0.33605825901031494,-0.3284149765968323,-0.8939367825795573,0.4450851137430688,-0.006503926701038996,-0.05228784520490563,-0.9191324748281303,0.09606244356924058,0.1644199407731698
1781555616628366080,1.005645990371704,1.6513255834579468,-0.36869528889656067,1.2875155210494995,0.0674256831407547,0.7853095531463623,-0.6154206991195679,0.456149160861969,0.4116355776786804,-0.34791237115859985,-0.8967905859660239,0.4384208124417166,-0.008765467009090346,-0.05896629678170207,-0.9031960149030365,0.10912506576505589,0.1842849950813103
1781555616638400768,1.0156807899475098,1.9223283529281616,-0.5642461776733398,1.1527025699615479,0.07421685010194778,0.7730454206466675,-0.6299941539764404,0.4948139190673828,0.4591628313064575,-0.3235580325126648,-0.9003977093170659,0.43000417073286995,-0.009966040258994977,-0.06542965964418995,-0.8836280088293068,0.11726513423175634,0.20059562303886552
1781555616648435712,1.0257158279418945,1.9682897329330444,-0.7563162446022034,0.9849854707717896,0.07829474657773972,0.7597498297691345,-0.6454843878746033,0.5226573944091797,0.4936986565589905,-0.28102922439575195,-0.9042205438680166,0.42090205990247737,-0.00996245332852361,-0.07160600915594537,-0.8629282883335194,0.1207064332737816,0.21367767652133432
1781555616658471936,1.0357518196105957,1.9664726257324219,-0.9434760212898254,0.8576294183731079,0.07968847453594208,0.7460654973983765,-0.6610869765281677,0.5448384881019592,0.46598589420318604,-0.27655029296875,-0.9080440020410533,0.41155744892355517,-0.008772898476507047,-0.07745712699025684,-0.8421335643808112,0.11996278186760113,0.22396737482503648
1781555616668506880,1.0457868576049805,1.835030198097229,-1.1275558471679688,0.8099798560142517,0.0789094790816307,0.7325749397277832,-0.67609703540802,0.5854124426841736,0.3983607292175293,-0.28007972240448,-0.9116523414465632,0.40237923835171074,-0.006512818545795259,-0.08329781658290233,-0.8220971520219404,0.11618757121801619,0.23292415404323208
1781555616678541824,1.0558218955993652,1.601080298423767,-1.3048672676086426,0.7928653359413147,0.07641009241342545,0.7201774716377258,-0.6895692944526672,0.6326047778129578,0.3584662675857544,-0.25697916746139526,-0.9147673587548673,0.3939601508687308,-0.003280403309043796,-0.0893599062560516,-0.8040581265118547,0.11035823152198587,0.24171587090484442
1781555616688577024,1.06585693359375,1.4512193202972412,-1.483207106590271,0.7771515846252441,0.07232817262411118,0.7089917063713074,-0.7014979720115662,0.6600784659385681,0.3386767506599426,-0.25583839416503906,-0.9173844874767974,0.3863291886553225,0.0008722130011895361,-0.09568068589395608,-0.7880674313334135,0.10274227057695165,0.2505921633267435
1781555616698612992,1.0758929252624512,1.446071743965149,-1.6950898170471191,0.7904413342475891,0.0665801614522934,0.6982347369194031,-0.7127659320831299,0.6533447504043579,0.31381964683532715,-0.2703731060028076,-0.9197310994643059,0.3789212598695482,0.005976097910001985,-0.10236027570021748,-0.7729286564621609,0.09314070291317969,0.25959956626220737
1781555616708647936,1.085927963256836,1.6331071853637695,-1.916157841682434,0.8067840933799744,0.05913688242435455,0.6867308020591736,-0.7245023250579834,0.6046357154846191,0.2890534996986389,-0.2676241397857666,-0.922092109825013,0.3709513635444997,0.011997210808769143,-0.10953181185078288,-0.7569820653270838,0.08144359504721903,0.26886660816965596
1781555616718682880,1.0959627628326416,2.034119129180908,-2.1161999702453613,0.785441517829895,0.04979114234447479,0.6729208827018738,-0.7380368113517761,0.5091230273246765,0.29459309577941895,-0.2621310353279114,-0.9248311331801006,0.3614234998131902,0.018832440221034436,-0.11707151790048867,-0.738150409355553,0.0673622339928077,0.27789843351862775
1781555616728717824,1.1059978008270264,2.375271797180176,-2.2934927940368652,0.7550013065338135,0.038466356694698334,0.6558725833892822,-0.753890872001648,0.39808759093284607,0.331523597240448,-0.22480785846710205,-0.9280931158147121,0.34980146905817744,0.026334540317224445,-0.1248539171845355,-0.7153380144973287,0.05097956400322036,0.28650586201401745
1781555616738752768,1.1160328388214111,2.405430555343628,-2.4927961826324463,0.6320556402206421,0.0247549656778574,0.6373820304870605,-0.7701502442359924,0.28325894474983215,0.3631214499473572,-0.19708913564682007,-0.9313895247429171,0.3372222232346688,0.034728429660844815,-0.13262227467190407,-0.6910959140371383,0.03213197215450844,0.29445017165861376
1781555616748788736,1.1260688304901123,2.424558639526367,-2.6808786392211914,0.5122038125991821,0.008131197653710842,0.6183692216873169,-0.7858456373214722,0.154802143573761,0.30628281831741333,-0.17849451303482056,-0.9345122958841646,0.324223025780268,0.04423349672591895,-0.14003430319163623,-0.666665927520924,0.010346698002818247,0.30106414969738854
1781555616758823936,1.136103868484497,2.2663803100585938,-2.865225076675415,0.527604877948761,-0.010820282623171806,0.5996105670928955,-0.8002188205718994,0.050432100892066956,0.185011625289917,-0.09707427024841309,-0.9372117956238678,0.31127688976896345,0.054747577519770635,-0.14745692818956266,-0.6430144036134626,-0.013520831446641042,0.30760958362373675
1781555616768858880,1.1461389064788818,1.9376585483551025,-2.9986636638641357,0.5828036665916443,-0.031247073784470558,0.5826627016067505,-0.8121131658554077,-0.04121691733598709,0.10012233257293701,0.004221320152282715,-0.9391309342342888,0.29928964834665595,0.06609925439322507,-0.1552085683579123,-0.6220011333737054,-0.038457283815368414,0.31521285747010874
1781555616778893824,1.1561739444732666,1.6173665523529053,-3.107211112976074,0.6048024892807007,-0.052820879966020584,0.5683963298797607,-0.8210575580596924,-0.14738969504833221,0.05320090055465698,0.08978015184402466,-0.9401620696524285,0.2887146252841957,0.07819894965484694,-0.16316889522337527,-0.6045554195840454,-0.06424420364437916,0.323644874937779
1781555616788930048,1.1662099361419678,1.4320698976516724,-3.190352439880371,0.5995227694511414,-0.07549946755170822,0.5562368631362915,-0.8275870680809021,-0.24676614999771118,0.035849928855895996,0.16955184936523438,-0.9404817718140698,0.279171309408134,0.0909386122847513,-0.17113640541540381,-0.5898505948216736,-0.09097659248526954,0.3323400408892343
1781555616798964992,1.1762449741363525,1.3048211336135864,-3.247338056564331,0.5976428389549255,-0.0989808663725853,0.54537433385849,-0.8323279023170471,-0.3262968361377716,0.04651409387588501,0.25763607025146484,-0.9402639782548076,0.27018677882010056,0.10409210717223284,-0.17907473380091263,-0.5768356343745701,-0.1183646377138197,0.34124043814020233
1781555616808999680,1.1862797737121582,1.3206043243408203,-3.3008170127868652,0.5110940933227539,-0.12333552539348602,0.535108745098114,-0.8357314467430115,-0.3932660222053528,0.09958052635192871,0.307731568813324,-0.939662630433261,0.261356696494823,0.11758812580118115,-0.18681520033736865,-0.5646364617513572,-0.14652035503863603,0.3499336269973746
1781555616819034880,1.196314811706543,1.510109543800354,-3.3515162467956543,0.33881211280822754,-0.14897210896015167,0.5238397717475891,-0.8386889696121216,-0.465270459651947,0.1664068102836609,0.3041278123855591,-0.9389952350470591,0.25180106365214244,0.13134584628736978,-0.1939907131024697,-0.5513524492098679,-0.17579150204475893,0.35760967137320365
1781555616829069824,1.2063498497009277,1.7452791929244995,-3.474275588989258,0.11131821572780609,-0.1765795797109604,0.5105066299438477,-0.8415477871894836,-0.5178784132003784,0.22721004486083984,0.27270007133483887,-0.9384065670282153,0.24092407236707547,0.14553937534692304,-0.20041715117113904,-0.5357738868960626,-0.20682665054443114,0.36386272488020976
1781555616839105792,1.216385841369629,1.9161417484283447,-3.549985885620117,-0.13446864485740662,-0.20637354254722595,0.49492147564888,-0.8440750241279602,-0.5451828837394714,0.25813028216362,0.2802169919013977,-0.9378908866721783,0.22867202211012216,0.16022354621363566,-0.2059081455089196,-0.5177444634306632,-0.23979239627887353,0.3684453956237774
1781555616849140992,1.2264208793640137,1.9585357904434204,-3.5601372718811035,-0.3476717174053192,-0.23774190247058868,0.47788092494010925,-0.8456409573554993,-0.5511679649353027,0.22522878646850586,0.33790475130081177,-0.9373179771724626,0.21559596786315924,0.17520820076613675,-0.21036962163706902,-0.4982407595587477,-0.27406377693856365,0.37142436040249693
1781555616859175936,1.2364559173583984,1.827641248703003,-3.507932424545288,-0.5227884650230408,-0.26977741718292236,0.4606013000011444,-0.8456161022186279,-0.5321787595748901,0.1423802673816681,0.40372157096862793,-0.9365430467765882,0.2024820682242505,0.19024447975759262,-0.21376426506392449,-0.4786725064664389,-0.3088233610121696,0.37288272990192356
1781555616869210880,1.2464909553527832,1.5113035440444946,-3.491403818130493,-0.6625964045524597,-0.3020947277545929,0.44464111328125,-0.843227744102478,-0.4846331775188446,0.0467071533203125,0.452633261680603,-0.9353723141946075,0.1902244839324713,0.20542826400739206,-0.21608438562890925,-0.46077354604935017,-0.34401432406801347,0.3726137357214088
1781555616879246848,1.2565269470214844,1.092811107635498,-3.530768394470215,-0.7998666763305664,-0.3349105715751648,0.43130674958229065,-0.8377406597137451,-0.4073837399482727,-0.04019349813461304,0.5119197368621826,-0.9336204440898064,0.17951267757020967,0.22114447214905203,-0.2173089462352027,-0.4459406782240322,-0.3803152925227501,0.3701430254439773
1781555616889282048,1.2665619850158691,0.7426910400390625,-3.560206413269043,-0.9421204924583435,-0.3683018088340759,0.4206043481826782,-0.8291234970092773,-0.3233028054237366,-0.10473212599754333,0.5827856063842773,-0.9312903690312203,0.17037573628033104,0.23750865154300607,-0.21739370067261274,-0.43411133789119116,-0.4180253832693697,0.3651672389587952
1781555616899316736,1.2765967845916748,0.5261930823326111,-3.513648748397827,-1.0974317789077759,-0.4018418788909912,0.4114311635494232,-0.8180754780769348,-0.2546217441558838,-0.14176258444786072,0.6368926167488098,-0.9285568198779995,0.16230737129792622,0.2542018561523194,-0.21637909373964018,-0.4240237321766337,-0.4565860302159641,0.35794429701901415
1781555616909351936,1.2866318225860596,0.28905826807022095,-3.4318532943725586,-1.2787144184112549,-0.434968501329422,0.40310215950012207,-0.8051776885986328,-0.21310275793075562,-0.15589451789855957,0.6462421417236328,-0.9255928988313784,0.15508354868950322,0.27085098400720253,-0.21416515161594465,-0.4149040759811335,-0.4952991836542571,0.34842517451764565
1781555616919386880,1.2966668605804443,0.08622100204229355,-3.3733086585998535,-1.455320119857788,-0.46766790747642517,0.3954276740550995,-0.7905211448669434,-0.18173092603683472,-0.165584534406662,0.6243681907653809,-0.9224317767964225,0.1486903392247927,0.28745538662267883,-0.21066624619388868,-0.4065334369081647,-0.5342159856594578,0.33637594948698685
1781555616929422848,1.3067028522491455,-0.047396451234817505,-3.3545024394989014,-1.5960066318511963,-0.5000438690185547,0.38788703083992004,-0.7742737531661987,-0.1342182755470276,-0.20156195759773254,0.6164063215255737,-0.9190566676506194,0.1428402666240429,0.3040720106585835,-0.2060867560404544,-0.39833802782993716,-0.5734332825454577,0.32229272696477834
1781555616939457792,1.3167378902435303,-0.18215852975845337,-3.3841593265533447,-1.736048698425293,-0.5323250889778137,0.3800816237926483,-0.7564178109169006,-0.07175511121749878,-0.24385115504264832,0.6011291742324829,-0.9154032966471576,0.137288749425284,0.32084712877397764,-0.20061340597627275,-0.389884535292574,-0.6132348259735987,0.30662111464772734
1781555616949492992,1.326772928237915,-0.43842199444770813,-3.4775025844573975,-1.875918984413147,-0.5648411512374878,0.3723936378955841,-0.736395001411438,-0.004479527473449707,-0.2696714699268341,0.594823956489563,-0.9113201540753914,0.13228980883636673,0.33808566926815464,-0.19414738617271177,-0.3815868313150595,-0.6543150130447635,0.2889040555338988
1781555616959527936,1.3368079662322998,-0.7457957863807678,-3.5335872173309326,-1.994856834411621,-0.5975680947303772,0.3654160499572754,-0.713711142539978,0.0543704628944397,-0.2800889015197754,0.6163142919540405,-0.9066681295059471,0.12827271319040814,0.355936154197222,-0.18657067773448913,-0.3740797354223748,-0.6970563712267756,0.26856919514037814
1781555616969563904,1.346843957901001,-1.0487890243530273,-3.5166714191436768,-2.1050522327423096,-0.6298890113830566,0.3590649664402008,-0.6887032985687256,0.10443729162216187,-0.3078564703464508,0.6324594020843506,-0.9015073925055761,0.12534129314054876,0.374082766361038,-0.17786539234121984,-0.3672658500328267,-0.7408238628508987,0.24559315701091608
1781555616979599104,1.3568789958953857,-1.3884820938110352,-3.4663808345794678,-2.21199369430542,-0.6612939238548279,0.35328131914138794,-0.6617270112037659,0.15557187795639038,-0.34447699785232544,0.6405020356178284,-0.8959061060491637,0.1236217875362423,0.39224245817196984,-0.16797554622659064,-0.3610762744818796,-0.7850708343375696,0.21982875367699126
1781555616989633792,1.3669137954711914,-1.7908495664596558,-3.455716371536255,-2.3158953189849854,-0.6917404532432556,0.3482165038585663,-0.6326455473899841,0.21655124425888062,-0.3766131103038788,0.6633462905883789,-0.8898042225217565,0.12336586553653021,0.4104364491548872,-0.15675212642189057,-0.355667864498428,-0.8299891705022564,0.19070692792693128
1781555616999668736,1.3769488334655762,-2.2217864990234375,-3.42094349861145,-2.386624336242676,-0.7212321758270264,0.34389740228652954,-0.6012975573539734,0.27384448051452637,-0.41208893060684204,0.7105809450149536,-0.8830931144493942,0.12470353662386113,0.42871932777182703,-0.14420593259152503,-0.35106432407203525,-0.8758365818437326,0.15802402308417604
1781555617009703936,1.386983871459961,-2.6765379905700684,-3.3394529819488525,-2.428875684738159,-0.749348521232605,0.34052222967147827,-0.5679097771644592,0.3133286237716675,-0.45894569158554077,0.7258992195129395,-0.8757672600216071,0.12791134148449282,0.44685993931862045,-0.1303329094294994,-0.34747227869418573,-0.9222765484169358,0.12150837178121376
1781555617019739904,1.397019863128662,-3.0877573490142822,-3.255715847015381,-2.487628936767578,-0.7759323716163635,0.3376196622848511,-0.53286212682724,0.335121214389801,-0.4825171232223511,0.6536353826522827,-0.8678555960077781,0.13286392236975103,0.4646677623268849,-0.11514278176716779,-0.3443869363489643,-0.9690267387369068,0.08123332755036068
1781555617029774848,1.4070549011230469,-3.499326705932617,-3.165745496749878,-2.5472004413604736,-0.8010226488113403,0.334707111120224,-0.49632030725479126,0.3594028353691101,-0.4299982488155365,0.5630469918251038,-0.8593254433825849,0.13944192532270694,0.4820744777823071,-0.09858965447917263,-0.3412943861391035,-1.0160835855921884,0.03714914196012176
1781555617039810048,1.4170899391174316,-3.7838406562805176,-3.049503803253174,-2.5593650341033936,-0.8244695067405701,0.33135196566581726,-0.45875468850135803,0.40781307220458984,-0.33559393882751465,0.5263816714286804,-0.8501999153531253,0.14742284949269294,0.4988879292941364,-0.08085400741155369,-0.3377361295802454,-1.0630343878686415,-0.010186446651561498
1781555617049844992,1.4271249771118164,-3.832437038421631,-2.929013967514038,-2.528179168701172,-0.8460811376571655,0.32686707377433777,-0.42107561230659485,0.4593013525009155,-0.27361389994621277,0.48345357179641724,-0.8406053219379078,0.15607157656076315,0.5148823717383152,-0.06261418431811054,-0.33298664879026807,-1.1090083783833689,-0.05870593457844283
1781555617059879680,1.437159776687622,-3.8310117721557617,-2.7824907302856445,-2.4903671741485596,-0.8657999634742737,0.3207613527774811,-0.3840605318546295,0.4942789673805237,-0.2643496096134186,0.3997618556022644,-0.8306999594140307,0.1647686358434753,0.5299254893778457,-0.044359774432246764,-0.3265332005104961,-1.1532854025898855,-0.10676429559078168
1781555617069915648,1.4471957683563232,-3.9404029846191406,-2.607306480407715,-2.4236552715301514,-0.8835490942001343,0.3133843243122101,-0.3480392098426819,0.5206493139266968,-0.2757256329059601,0.3435989320278168,-0.8205752142941144,0.17372210979887906,0.5438759239589509,-0.025998758802380784,-0.31875478291421755,-1.1955505624776201,-0.1546752049693233
1781555617079950848,1.457230806350708,-4.07817268371582,-2.4306724071502686,-2.3117318153381348,-0.899264931678772,0.30550050735473633,-0.31303703784942627,0.5516543388366699,-0.27193114161491394,0.2925139367580414,-0.8102239000703081,0.18339206266290034,0.556640667348458,-0.007476317729235519,-0.31046402428135017,-1.23581227479766,-0.20308778021430002
1781555617089985792,1.4672658443450928,-4.123913288116455,-2.2731285095214844,-2.2011730670928955,-0.9130721688270569,0.29717952013015747,-0.2792552709579468,0.5942093133926392,-0.22161802649497986,0.20589104294776917,-0.799691457074292,0.1936314136512957,0.5682246444406133,0.011009064319379284,-0.3017373684749945,-1.2739891213496788,-0.2515496347385886
1781555617100020480,1.4773004055023193,-3.998284339904785,-2.163198709487915,-2.0529773235321045,-0.9251880049705505,0.288267582654953,-0.24683761596679688,0.6381855607032776,-0.1394486427307129,0.12690356373786926,-0.7890353740247187,0.2039546267448645,0.5787777636105182,0.029015668823517398,-0.2924171248248239,-1.310072022917278,-0.29880020250890316
1781555617110056448,1.4873363971710205,-3.7828574180603027,-2.0744898319244385,-1.8326594829559326,-0.935650646686554,0.2791471779346466,-0.2159503847360611,0.6729706525802612,-0.0725584626197815,0.054375067353248596,-0.7783778576089913,0.21398034876570138,0.5884192507098034,0.04585841355231461,-0.2829058743597697,-1.3439660066474708,-0.343293996527086
1781555617120091392,1.4973714351654053,-3.5164730548858643,-1.957700252532959,-1.5657390356063843,-0.9444282054901123,0.27044692635536194,-0.18685302138328552,0.6840216517448425,-0.05198684334754944,-0.011389195919036865,-0.7679157450978584,0.22359629466762343,0.5971416822407455,0.061090439127094165,-0.27385723625361197,-1.3754710675950963,-0.38421343676668135
1781555617130126592,1.50740647315979,-3.3159945011138916,-1.8393019437789917,-1.2850836515426636,-0.9515448808670044,0.26282647252082825,-0.1596386581659317,0.6624519228935242,-0.06275323033332825,-0.0816638320684433,-0.7577887989125403,0.23301863604835063,0.6048826213621622,0.07466850746265663,-0.26595048911088626,-1.404576394632073,-0.4218610719872711
1781555617140161536,1.5174415111541748,-3.1190907955169678,-1.7436587810516357,-0.998733401298523,-0.9571612477302551,0.2566204369068146,-0.13412056863307953,0.6327899098396301,-0.045591384172439575,-0.14180415868759155,-0.7480292394063225,0.2424094461884627,0.6117003965881492,0.08667501064275426,-0.25952390625036015,-1.431579480333317,-0.45671589123448264
1781555617150197504,1.527477502822876,-2.833017349243164,-1.696244478225708,-0.6703880429267883,-0.9614078402519226,0.2522026300430298,-0.10994954407215118,0.6052981615066528,0.0006965696811676025,-0.1674705296754837,-0.7386395998882019,0.2517513376587738,0.6177754392561691,0.09688341001723415,-0.2549557944287086,-1.4569279757167444,-0.4885515048602107
1781555617160232448,1.5375125408172607,-2.4614737033843994,-1.6184484958648682,-0.3077722489833832,-0.9642881155014038,0.25008293986320496,-0.08721808344125748,0.5514310598373413,0.029076606035232544,-0.20770376920700073,-0.7298149917621973,0.26080676581007123,0.6231940232546007,0.10478151094108805,-0.2527659291152922,-1.4805936185740183,-0.5163348854014159
1781555617170267648,1.5475475788116455,-2.2078497409820557,-1.4425411224365234,0.05933783948421478,-0.9657807946205139,0.25068753957748413,-0.06650912016630173,0.48169559240341187,0.03150853514671326,-0.2715493440628052,-0.7218364426366062,0.26972032052258615,0.6276913170561849,0.11048454324836363,-0.2533904048630869,-1.5020392360892156,-0.5404662768521986
1781555617180302592,1.5575826168060303,-1.982946515083313,-1.270807147026062,0.4020025134086609,-0.9659687876701355,0.2541426718235016,-0.04812217503786087,0.4274556636810303,0.038398802280426025,-0.3328440189361572,-0.7148199571385336,0.27878329295056964,0.6310457893267343,0.1144267593741207,-0.2569611690746459,-1.5210199521018843,-0.5620679917220721
1781555617190337536,1.567617416381836,-1.7317087650299072,-1.2310459613800049,0.7366302609443665,-0.9649931192398071,0.26040175557136536,-0.031294576823711395,0.40923750400543213,0.030308663845062256,-0.3751842975616455,-0.7085697989976887,0.28793985837767566,0.6335955732026145,0.11651691780621487,-0.263438304226071,-1.5383778451399275,-0.5810878866266962
1781555617200373504,1.577653408050537,-1.544508934020996,-1.2795398235321045,1.0568652153015137,-0.9628908634185791,0.2694816291332245,-0.014857654459774494,0.4312136769294739,0.009906768798828125,-0.3389478921890259,-0.7027173826829649,0.2973139225251901,0.6357480667732027,0.11669222074694875,-0.2728546922718988,-1.5553672938048695,-0.5978412878589444
1781555617210408448,1.5876884460449219,-1.3667429685592651,-1.404242992401123,1.3484209775924683,-0.9596502184867859,0.2811882793903351,0.0020679226145148277,0.4573158025741577,-0.013610243797302246,-0.2931903600692749,-0.6969326747055336,0.3070715252239916,0.6377625261193524,0.11511186960060489,-0.2850321302457742,-1.572951194643437,-0.6130214993413055
1781555617220443392,1.5977234840393066,-1.1683545112609863,-1.5903396606445312,1.6439934968948364,-0.9551553130149841,0.2954254448413849,0.02005067467689514,0.4607248306274414,-0.05220040678977966,-0.27731382846832275,-0.691025904740996,0.3171143007979897,0.6398936298478844,0.11161459618772784,-0.29990082010289315,-1.5917853007934522,-0.626438705627631
1781555617230478592,1.6077585220336914,-1.02274751663208,-1.8995870351791382,1.9359030723571777,-0.9491708874702454,0.3122144043445587,0.039958201348781586,0.44268596172332764,-0.07523021101951599,-0.22349095344543457,-0.6846543068846799,0.3276108026848836,0.6423785968782706,0.10615692806771454,-0.3175230791610839,-1.6128694888848762,-0.6385825207098078
1781555617240514560,1.6177945137023926,-0.779632031917572,-2.402801036834717,2.2458839416503906,-0.9413130879402161,0.3315671980381012,0.06318793445825577,0.3486008048057556,-0.08309310674667358,-0.07742441445589066,-0.6772936913542753,0.33857127485457383,0.6457270785122399,0.09838304201515022,-0.3379642487806917,-1.637823208602761,-0.6494219155803084
1781555617250549504,1.6278295516967773,-0.5742083191871643,-2.972879409790039,2.496044397354126,-0.9310315251350403,0.3534494638442993,0.09084924310445786,0.012055814266204834,-0.1363169252872467,0.12846529483795166,-0.6684768931995068,0.3498258734455862,0.6504202342259398,0.08782903922940438,-0.36125601714098876,-1.6680675065319712,-0.6585781241289412
1781555617260584704,1.637864589691162,-0.28884637355804443,-3.1364541053771973,2.803637981414795,-0.9181283712387085,0.37724578380584717,0.12134891748428345,-0.7993091940879822,-0.21576207876205444,0.2973674535751343,-0.6585634715716362,0.3610838372638104,0.6559671651648069,0.07496370891574305,-0.38682054051210885,-1.7022045531512602,-0.6663570198891133
1781555617270619392,1.6478993892669678,0.1216767281293869,-1.112815499305725,3.7929210662841797,-0.9022462964057922,0.4069157838821411,0.14272797107696533,-2.164419412612915,-0.1744939088821411,0.38133513927459717,-0.6519101251613305,0.37301603727749155,0.6574367078734736,0.06040891101937444,-0.4190751318699632,-1.7276880440795686,-0.6727710033605317
1781555617280654336,1.6579344272613525,1.1724588871002197,1.6743782758712769,4.417977333068848,-0.8849415183067322,0.4452100098133087,0.13662593066692352,-3.147223949432373,0.2592577338218689,0.30418527126312256,-0.6554569285349563,0.38455300607989257,0.6484072399288554,0.04542349126675309,-0.46140879832129683,-1.723976669153528,-0.6731285683419388
1781555617290690304,1.6679704189300537,1.8224997520446777,2.2082974910736084,4.0950927734375,-0.8674532175064087,0.4849504828453064,0.11112073063850403,-2.3884365558624268,0.7882428169250488,0.08083485811948776,-0.665979163784304,0.392802413606829,0.6334560998697469,0.030188336542603098,-0.5063065360224288,-1.6982024263971092,-0.6624043738307185
1781555617300725504,1.6780054569244385,1.2823432683944702,1.7442827224731445,3.4148645401000977,-0.8504501581192017,0.5190033912658691,0.0858483836054802,-1.0767042636871338,0.7803892493247986,-0.04353571683168411,-0.6758759394388526,0.39893999055346496,0.6194925957094275,0.01635570294662395,-0.5456846221430761,-1.6714001767424118,-0.6486679171293759
1781555617310760448,1.6880404949188232,0.13866955041885376,1.467963695526123,2.7041940689086914,-0.8353692889213562,0.5453811883926392,0.06868281960487366,-0.42319077253341675,0.5633071064949036,-0.010882504284381866,-0.6823561183229062,0.4058452709072637,0.6079728832518938,0.006974667565201609,-0.5768438259235901,-1.6528303242441293,-0.6436374009163663
1781555617320795648,1.698075532913208,-0.3324098289012909,1.3118842840194702,2.170412302017212,-0.8227407932281494,0.5654520988464355,0.05797884985804558,-0.11628508567810059,0.3651508688926697,-0.05283665657043457,-0.6862991178574593,0.41372648476900264,0.5981804252167948,0.0020295959785429354,-0.6009813129109448,-1.6411503926677453,-0.6478781134770768
1781555617330831616,1.7081115245819092,0.029214970767498016,0.9530600309371948,1.9131383895874023,-0.8117237091064453,0.5819311738014221,0.0496065579354763,0.1666889190673828,0.18497556447982788,-0.0581209659576416,-0.6893422095034559,0.42036161924704235,0.5899994811409963,-0.0020213348023794546,-0.6211013681606229,-1.6318330302876067,-0.6516675236018356
1781555617340866560,1.718146562576294,0.3459377884864807,0.44160526990890503,1.7339338064193726,-0.8012024760246277,0.5968687534332275,0.042688999325037,0.4982086420059204,0.21413594484329224,0.11722302436828613,-0.6918087514028308,0.4250578647973153,0.5836696928212929,-0.007496743968410833,-0.6395927594552886,-1.624027151292168,-0.6503907655335744
1781555617350901504,1.7281816005706787,0.4315701425075531,-0.10739631950855255,1.182947039604187,-0.7922715544700623,0.6089254021644592,0.03893337771296501,0.7098129987716675,0.5121073722839355,0.3051522970199585,-0.6930745797201805,0.4280356558983143,0.5798725437183837,-0.01345480703538795,-0.6547051806640198,-1.6198982844689434,-0.6463807017300608
1781555617360936448,1.7382164001464844,0.6113055944442749,-0.6722500920295715,0.43872618675231934,-0.787185549736023,0.6154902577400208,0.03886611387133598,0.7131194472312927,0.8911166787147522,0.37222087383270264,-0.6929817106728521,0.428597296151989,0.5794285240987402,-0.01852697041713505,-0.6630078908066135,-1.620129777204059,-0.6405205650001964
1781555617370971392,1.7482514381408691,1.1005223989486694,-1.1845707893371582,-0.11256282031536102,-0.7858787775039673,0.6170121431350708,0.041113510727882385,0.5479485988616943,1.1727674007415771,0.2377866506576538,-0.692017932995825,0.4259955694644716,0.5823096522387448,-0.023543287990526063,-0.664940251560794,-1.6230640146255444,-0.6298558412955517
1781555617381007360,1.7582874298095703,1.3857327699661255,-1.1480343341827393,-0.5619507431983948,-0.7874693870544434,0.6148728728294373,0.04270084947347641,0.21694320440292358,1.14106285572052,0.039132002741098404,-0.691249461746538,0.420379339947231,0.5870533494673434,-0.028701721430996828,-0.6622247498889055,-1.624968679726808,-0.6132707472167586
1781555617391042560,1.768322467803955,0.9112528562545776,-0.626264214515686,-0.8702777028083801,-0.7915927171707153,0.6095661520957947,0.042547885328531265,-0.17398357391357422,0.7482525706291199,0.018273714929819107,-0.6911795274375119,0.41393656303073756,0.5915492077818053,-0.0315757301420174,-0.6555131962923866,-1.6244943755481778,-0.5976583572288413
1781555617401077504,1.7783575057983398,0.09976743906736374,-0.08430591970682144,-0.8203802108764648,-0.7967424988746643,0.6028446555137634,0.04218719154596329,-0.4688214659690857,0.2651362419128418,0.15486478805541992,-0.6913465084596228,0.4095408971663471,0.5944491988972911,-0.030764047462248825,-0.6470617022366821,-1.6236965220853183,-0.5907058733348721
1781555617411112448,1.7883925437927246,-0.5074875950813293,0.20208150148391724,-0.45903685688972473,-0.8006870150566101,0.5975439548492432,0.04291490092873573,-0.6045560240745544,-0.09522461891174316,0.17038774490356445,-0.691212839180736,0.4083736972402239,0.5955571959522287,-0.027703214292486445,-0.6404346086159575,-1.6243426882671532,-0.5930224551109926
1781555617421148416,1.7984285354614258,-0.8807466626167297,0.370321661233902,-0.2239663004875183,-0.8027219772338867,0.594666063785553,0.044831786304712296,-0.5846530199050903,-0.1727910041809082,0.09431314468383789,-0.6906621410519801,0.4099260471843394,0.5952953289076475,-0.023874927442668885,-0.6368502330201672,-1.6265880711014893,-0.6016856907217127
1781555617431183616,1.8084635734558105,-0.778965413570404,0.5283190011978149,-0.2931613624095917,-0.8043932318687439,0.5922859907150269,0.046354614198207855,-0.48463869094848633,0.03707808256149292,0.01053011417388916,-0.6902477331305193,0.41223760270776505,0.5943378382125174,-0.01951232944475845,-0.6338930449857665,-1.6283594693000127,-0.6122805199224478
1781555617441218560,1.8184986114501953,-0.3420824110507965,0.627456545829773,-0.4628467857837677,-0.8069020509719849,0.5889714360237122,0.04496568441390991,-0.35334575176239014,0.28200024366378784,-0.08791911602020264,-0.6908565637044236,0.41311545459866217,0.5931428699662507,-0.015311985969548273,-0.6297855184005183,-1.626465074365126,-0.6190126855630512
1781555617451253504,1.828533411026001,0.06947530806064606,0.6053504943847656,-0.6146169304847717,-0.8103699088096619,0.584504246711731,0.04068683087825775,-0.20177602767944336,0.39388930797576904,-0.14911580085754395,-0.6924729151613838,0.4120009103627734,0.592113727361059,-0.011742087445335822,-0.6242689292551566,-1.6209619293508017,-0.6202940010313177
1781555617461289472,1.8385694026947021,0.4068823754787445,0.5677434802055359,-0.6862929463386536,-0.8144221901893616,0.5792481899261475,0.03446695953607559,-0.05394017696380615,0.34908121824264526,-0.13578534126281738,-0.6947557638426327,0.4092138415644626,0.5914199109918367,-0.008996008449799774,-0.617806089535376,-1.613091837899025,-0.6168424943921744
1781555617471324416,1.848604440689087,0.5050030946731567,0.5344572067260742,-0.7068397998809814,-0.8186309933662415,0.5736767649650574,0.02717108465731144,0.08007508516311646,0.21323418617248535,-0.09354686737060547,-0.6974008355660095,0.40551757063490124,0.590881580742367,-0.0068204711649281005,-0.6109877242666016,-1.6039750300304323,-0.6107259126008387
1781555617481359360,1.8586394786834717,0.49734461307525635,0.42377859354019165,-0.7584443688392639,-0.8229400515556335,0.5677664279937744,0.020269302651286125,0.18641966581344604,0.08865135908126831,-0.06267344951629639,-0.6998876538462293,0.4016003721919691,0.5906367687481521,-0.0047543350568376355,-0.6037900269003161,-1.5954216990023486,-0.6043293621070609
1781555617491394560,1.8686745166778564,0.4516857862472534,0.25061681866645813,-0.7501086592674255,-0.8273100852966309,0.5615501999855042,0.014808475971221924,0.26105648279190063,-0.010402798652648926,-0.03679633140563965,-0.7018459269287504,0.3976686687787047,0.590985505687682,-0.0028308280883577105,-0.5962581282536978,-1.5886939631548203,-0.5983169767554871
1781555617501429504,1.8787095546722412,0.37618571519851685,0.07941684126853943,-0.6608371138572693,-0.8312941789627075,0.5557223558425903,0.01107060257345438,0.3211318850517273,-0.06207007169723511,-0.022484183311462402,-0.7031807392397134,0.3941158810361485,0.5917837219692964,-0.001227605987210416,-0.5892315804146445,-1.5841128497056853,-0.5931815883484584
1781555617511465472,1.8887455463409424,0.3422354459762573,-0.1323850303888321,-0.6057789325714111,-0.834773063659668,0.5505155324935913,0.009307208471000195,0.33747392892837524,-0.07366311550140381,-0.017028212547302246,-0.7038085072539884,0.3909972119183581,0.5931060483169367,-0.00011902407989149426,-0.5829816260401463,-1.5819452522371265,-0.5888097726912723
1781555617521500672,1.8987805843353271,0.36051860451698303,-0.28744223713874817,-0.6035434603691101,-0.8380733132362366,0.5454803109169006,0.009199246764183044,0.275054395198822,-0.07666921615600586,-0.03243839740753174,-0.7038467081659213,0.387965383290595,0.5950483045033037,0.0005512324105799017,-0.5769620689707663,-1.5817725471614783,-0.5845433566693397
1781555617531535616,1.908815622329712,0.4209931194782257,-0.3418314456939697,-0.5787550210952759,-0.8412793874740601,0.540512204170227,0.00978089775890112,0.1729137897491455,-0.07714849710464478,-0.054107666015625,-0.7036397166113231,0.38481732717477823,0.5973324650255815,0.0008649343174466271,-0.5710457879581373,-1.5824220218440075,-0.5798189766465858
1781555617541570304,1.9188504219055176,0.4420451521873474,-0.28132495284080505,-0.4981999695301056,-0.8441659212112427,0.5359864830970764,0.010120793245732784,0.06950771808624268,-0.09612137079238892,-0.05156362056732178,-0.703518940000046,0.3816599069998657,0.5994965485989164,0.0008536091489601707,-0.5656758097943119,-1.5827848560131978,-0.5745609050030556
1781555617551606528,1.9288864135742188,0.4400789439678192,-0.1513209044933319,-0.40819790959358215,-0.8465622663497925,0.532203197479248,0.00960681214928627,-0.01002037525177002,-0.13355207443237305,-0.04226064682006836,-0.7037017973124109,0.3787446313537634,0.601128863229487,0.000701471075325661,-0.5612008093813139,-1.5821438671404382,-0.5692627878806253
1781555617561641472,1.9389214515686035,0.41751235723495483,-0.07692497223615646,-0.292619913816452,-0.8484096527099609,0.5292757749557495,0.008261620067059994,-0.05619233846664429,-0.17778950929641724,-0.034827232360839844,-0.7041796926255979,0.37616376545643404,0.6021890329294839,0.00041350319930387263,-0.5577467285287945,-1.5805337907316273,-0.564096351991162
1781555617571676416,1.9489564895629883,0.39609575271606445,-0.0509016215801239,-0.19759568572044373,-0.8496997952461243,0.5272251963615417,0.0066377525217831135,-0.06674319505691528,-0.21278727054595947,-0.03744518756866455,-0.7047561394586423,0.3739931161152222,0.6028665069838468,-6.410661179708639e-05,-0.5553317019623637,-1.57860804726658,-0.5592819816415222
1781555617581711616,1.958991527557373,0.34319207072257996,-0.039256151765584946,-0.13246168196201324,-0.8505669236183167,0.5258428454399109,0.005051725078374147,-0.0627022385597229,-0.23467451333999634,-0.03590500354766846,-0.7053182386093119,0.3721834759261684,0.6033285364264609,-0.0006855585164449764,-0.5537056863535084,-1.576735501758427,-0.554892611589122
1781555617591747584,1.9690275192260742,0.31835970282554626,-0.03237773850560188,-0.0771196037530899,-0.8511055111885071,0.5249823331832886,0.0036168924998492002,-0.051009416580200195,-0.2327612042427063,-0.027939438819885254,-0.7058255528403924,0.37070731636453247,0.6036427187494267,-0.0013856902669322642,-0.5526943363016634,-1.5750459417564495,-0.5510028717661116
1781555617601782528,1.979062557220459,0.3421763479709625,-0.05304386839270592,-0.04049741104245186,-0.8514078855514526,0.5244995951652527,0.0022393411491066217,-0.038042306900024414,-0.2145782709121704,-0.030696988105773926,-0.7063110975029497,0.3693702292650361,0.6038917984652458,-0.002251256142145762,-0.5521272929316526,-1.5734264832369769,-0.547133624731369
1781555617611817472,1.9890975952148438,0.3553091883659363,-0.07774895429611206,-0.016665050759911537,-0.8515516519546509,0.5242698788642883,0.0009539234451949596,-0.02215135097503662,-0.18143540620803833,-0.02289605140686035,-0.7067616363347833,0.3680505487563609,0.604165337696821,-0.0033284630400533077,-0.5518575112437317,-1.571916544218735,-0.5430262129573141
1781555617621852416,1.9991323947906494,0.39827555418014526,-0.10656329244375229,-0.003191585186868906,-0.851608157157898,0.5241789817810059,-0.00023098777455743402,-0.006576657295227051,-0.15026235580444336,-0.015241384506225586,-0.7071734930533553,0.36668303267593483,0.6045064595659202,-0.00460037378310429,-0.551750713638086,-1.5705250896293526,-0.5385981304286763
1781555617631887360,2.009167432785034,0.4229220449924469,-0.15527023375034332,0.015367718413472176,-0.8515907526016235,0.5242058038711548,-0.0012886280892416835,0.00669628381729126,-0.1429954171180725,-0.01108628511428833,-0.7075359010289869,0.36521712747197654,0.6049563089695258,-0.006113963527840026,-0.5517822623439611,-1.5692831268563732,-0.533707488327169
1781555617641923328,2.0192034244537354,0.381552517414093,-0.20767991244792938,0.03934681788086891,-0.8514550924301147,0.524424135684967,-0.0018643580842763186,0.02511543035507202,-0.14055883884429932,0.015475213527679443,-0.7077229649727687,0.36385464610947343,0.6055391130580967,-0.00776791978084932,-0.5520386450211973,-1.5686067161216184,-0.5289404726545082
1781555617651958528,2.02923846244812,0.314574271440506,-0.26047348976135254,0.053508710116147995,-0.8512114882469177,0.5248199105262756,-0.0016851613763719797,0.042572081089019775,-0.1263519525527954,0.05235964059829712,-0.7076396649412092,0.36276130977343074,0.6062686297851563,-0.009411120238633107,-0.5525035393301136,-1.5688166082656434,-0.5248684379231046
1781555617661993472,2.039273500442505,0.298916757106781,-0.32128944993019104,0.060121871531009674,-0.8509126901626587,0.5253065824508667,-0.0008161389851011336,0.05199301242828369,-0.0980299711227417,0.07259345054626465,-0.7073087414276702,0.3618435859769713,0.6071747275707658,-0.011064612020605245,-0.5530753547028103,-1.569837193437523,-0.5212877522666037
1781555617672028416,2.0493085384368896,0.31754636764526367,-0.3876187801361084,0.07663507014513016,-0.8505634069442749,0.5258720517158508,0.0005921983974985778,0.05081981420516968,-0.0687493085861206,0.08906841278076172,-0.7067799495993535,0.36093184528214856,0.6082962290467613,-0.012882943237647063,-0.5537400785023248,-1.5714925692006965,-0.5176550637848284
1781555617682064640,2.059344530105591,0.3746650516986847,-0.4267142713069916,0.09307369589805603,-0.8501089215278625,0.526602029800415,0.002291096141561866,0.03824979066848755,-0.04443955421447754,0.11778032779693604,-0.7061376394295354,0.3599509517572135,0.6095743271721974,-0.014971259591466252,-0.554598498870507,-1.5734913820405743,-0.5136224322315571
1781555617692099584,2.0693795680999756,0.4864339232444763,-0.4077661335468292,0.109017513692379,-0.8495723009109497,0.5274599194526672,0.003613606560975313,0.006966710090637207,-0.035425007343292236,0.13121306896209717,-0.7056137556464762,0.35870281845597257,0.6108511204119874,-0.017392663950860462,-0.5556080000740211,-1.5750497431478059,-0.5085675235713075
1781555617702134528,2.0794146060943604,0.6261447072029114,-0.3579639494419098,0.12439220398664474,-0.8489366769790649,0.5284797549247742,0.0039581297896802425,-0.02540719509124756,-0.03296583890914917,0.1398407220840454,-0.7054171634083818,0.3570737088995386,0.6119456113780728,-0.02018798578489027,-0.5568088083164452,-1.5754587488244642,-0.5020563023723277
1781555617712169472,2.089449405670166,0.7886883616447449,-0.2917160987854004,0.12081291526556015,-0.8482710719108582,0.5295539498329163,0.0029591796919703484,-0.04854893684387207,-0.020688652992248535,0.15181076526641846,-0.7056724013592591,0.35490571300683876,0.6127981109366986,-0.023384208467094065,-0.5580746255992114,-1.574284796404844,-0.49367400551506607
1781555617722205440,2.099485397338867,0.8778688311576843,-0.2063942849636078,0.11431347578763962,-0.8476449847221375,0.5305636525154114,0.0006185488891787827,-0.0646933913230896,-0.0045473575592041016,0.152793288230896,-0.7063789323185592,0.35225833391877776,0.6133704758352202,-0.02682546663872108,-0.5592653634902607,-1.5715260530262136,-0.4837370189865603
1781555617732240384,2.109520435333252,0.8982718586921692,-0.10102217644453049,0.12334425002336502,-0.8470149040222168,0.5315616130828857,-0.0028122898656874895,-0.07923930883407593,-0.0004490017890930176,0.13910377025604248,-0.7074536271494957,0.3494449554821275,0.6135813541741187,-0.030256305934567514,-0.5604431570503319,-1.56747610241515,-0.4731970715469726
1781555617742275584,2.1195554733276367,0.8606957197189331,0.0005158940330147743,0.13861748576164246,-0.8463180065155029,0.5326303243637085,-0.007128249853849411,-0.08495640754699707,-0.02219337224960327,0.11564874649047852,-0.7088293864394246,0.34668590893405915,0.6133879324780485,-0.03354160216560123,-0.5617054172549064,-1.5623738647057366,-0.46266638153561485
1781555617752310528,2.1295905113220215,0.7429555058479309,0.07508906722068787,0.14382529258728027,-0.845557451248169,0.533754825592041,-0.011769073083996773,-0.07058024406433105,-0.037844181060791016,0.1034439206123352,-0.7103207273615979,0.34425979537475904,0.6128626737193797,-0.03645603759931359,-0.5630345968225121,-1.556878510404222,-0.45309252907828235
1781555617762345472,2.1396255493164062,0.5697144269943237,0.11251766234636307,0.148329496383667,-0.8447589874267578,0.5349041223526001,-0.016116177663207054,-0.04022020101547241,-0.022666633129119873,0.104556143283844,-0.7117234470667251,0.3423837242939156,0.6121399324629712,-0.03883024336975098,-0.5643942805225507,-1.5517208010455037,-0.4452640514856858
1781555617772381440,2.1496615409851074,0.4485571086406708,0.12464090436697006,0.15885351598262787,-0.8439072370529175,0.5361225008964539,-0.01982799917459488,-0.016566336154937744,-0.0007679462432861328,0.09325331449508667,-0.7129203899466016,0.3410821329421795,0.6113501278169872,-0.04072434769292471,-0.5658369238719265,-1.547305176242755,-0.43924353221425017
1781555617782416640,2.159696578979492,0.3947356939315796,0.1545223742723465,0.17360343039035797,-0.842984139919281,0.5374353528022766,-0.023262402042746544,-0.003680288791656494,0.006418406963348389,0.09056895971298218,-0.7140281427893607,0.34011615080602403,0.6104832537625715,-0.042368351855254345,-0.5673929573008523,-1.543208026059708,-0.43420062472052845
1781555617792451584,2.169731616973877,0.3619425892829895,0.1896573156118393,0.20442259311676025,-0.8419221639633179,0.5389367938041687,-0.026724593713879585,0.002108931541442871,0.011997044086456299,0.08569985628128052,-0.715146891960203,0.3393885456108155,0.6094695384781122,-0.04390002487787363,-0.5691743898697542,-1.5390646246164352,-0.4296793692700108
1781555617802486528,2.1797664165496826,0.38244226574897766,0.23073524236679077,0.2217549830675125,-0.8407005667686462,0.5406407117843628,-0.030501296743750572,0.00921863317489624,0.029442906379699707,0.06107991933822632,-0.7163697867370638,0.33876206072630677,0.6082677185946992,-0.04544290413136448,-0.5711985408818298,-1.5345314231508902,-0.42518509500239143
1781555617812522496,2.189802408218384,0.412978857755661,0.24593818187713623,0.23454667627811432,-0.8393781185150146,0.542438268661499,-0.034714214503765106,0.01563239097595215,0.03547310829162598,0.0387730598449707,-0.7177328136517445,0.3380704872559438,0.6069194664093901,-0.047081776017119756,-0.5733367551417392,-1.529462818388394,-0.4202882003216753
1781555617822557440,2.1998374462127686,0.3911263048648834,0.2337837815284729,0.23223371803760529,-0.8380156755447388,0.5442551374435425,-0.03893701359629631,0.03071892261505127,0.041529715061187744,0.033092860132455826,-0.7190911559092967,0.33738052848921163,0.6055624425297504,-0.048748402893054085,-0.5755009457848587,-1.5243663704083639,-0.41533460751587825
1781555617832592384,2.2098724842071533,0.34329620003700256,0.22914734482765198,0.22900784015655518,-0.8366616368293762,0.5460377335548401,-0.04289679974317551,0.03623133897781372,0.04279893636703491,0.025867998600006104,-0.7203593019456173,0.3368045305491084,0.6042468929073954,-0.05030823984796167,-0.5776273324075784,-1.5195697983426202,-0.41079013917725066
1781555617842627584,2.219907522201538,0.30926045775413513,0.24149587750434875,0.21877677738666534,-0.835326611995697,0.5477708578109741,-0.04665307700634003,0.02606147527694702,0.02917921543121338,0.006400406360626221,-0.7215629927739801,0.3363680998445105,0.602934459150403,-0.05170489246192385,-0.5796974839457968,-1.5150041848740223,-0.406758753102011
1781555617852663552,2.2299435138702393,0.2641119062900543,0.26318827271461487,0.19326528906822205,-0.8340696096420288,0.5493565201759338,-0.05035394802689552,0.009057343006134033,0.016576766967773438,-0.016937315464019775,-0.7227578044788726,0.33601133362580515,0.6015973819202124,-0.052898228648567115,-0.5815939255581899,-1.5104981142953116,-0.403157571022464
1781555617862698496,2.239978551864624,0.21489135921001434,0.29567617177963257,0.16602088510990143,-0.8329327702522278,0.5507339239120483,-0.053993407636880875,-0.009901762008666992,0.023179709911346436,-0.02512342482805252,-0.7239490566360044,0.3357615948438205,0.600222831048086,-0.053801130932617555,-0.5832432579567242,-1.506063647801663,-0.4001625240316776
1781555617872733696,2.250013589859009,0.18978360295295715,0.3353889584541321,0.1359356790781021,-0.8319185972213745,0.5518847703933716,-0.05774477496743202,-0.020360946655273438,0.029291927814483643,-0.03440301865339279,-0.72519697081295,0.335573803079364,0.5987635892811465,-0.05442095856229214,-0.5846227053398324,-1.5014959116558146,-0.3976356336063382
1781555617882768384,2.2600483894348145,0.2094947248697281,0.34392598271369934,0.10065171867609024,-0.8310575485229492,0.5527547001838684,-0.061689343303442,-0.02164936065673828,0.030909240245819092,-0.05487257242202759,-0.7265221725399637,0.33530730095704825,0.5972640480724969,-0.05486545604866186,-0.5856662330428487,-1.4967022899969151,-0.3951748062665474
1781555617892804608,2.2700846195220947,0.24815210700035095,0.3129182755947113,0.0760161504149437,-0.8303587436676025,0.5533406138420105,-0.06571634113788605,-0.008249044418334961,0.024097740650177002,-0.06700462102890015,-0.7278720769292788,0.33482135000354374,0.5958493870247558,-0.05532134204650468,-0.5863694585914976,-1.49181883191486,-0.3923279257781289
1781555617902839296,2.2801194190979004,0.30320656299591064,0.26642054319381714,0.04800715297460556,-0.8298130631446838,0.5536781549453735,-0.06964639574289322,0.008508861064910889,0.01576453447341919,-0.06012957543134689,-0.7291777154635684,0.3340888382519588,0.5946103339453193,-0.055883562465566264,-0.586774770078178,-1.4870623479651275,-0.38897798779146436
1781555617912874496,2.290154457092285,0.3779766857624054,0.22609947621822357,0.025110093876719475,-0.8294398188591003,0.553727388381958,-0.07358919829130173,0.013872921466827393,0.0016161799430847168,-0.05269252508878708,-0.7304717709044564,0.3330154100092432,0.5935538200613444,-0.05661716437986465,-0.5868338801620735,-1.4823064622356108,-0.38484881114380837
1781555617922909440,2.30018949508667,0.4521161615848541,0.20374730229377747,0.01785777322947979,-0.8291584253311157,0.5535904765129089,-0.0776773989200592,0.012965857982635498,-0.0055100321769714355,-0.04718524217605591,-0.7317947621863095,0.33161536187559887,0.5926150129814366,-0.05757675506453861,-0.5866694690250026,-1.4773867453374732,-0.3798361137230496
1781555617932944640,2.3102245330810547,0.4885692298412323,0.18937794864177704,0.022218964993953705,-0.8288854956626892,0.5533838272094727,-0.08194456249475479,0.01147228479385376,-0.004998326301574707,-0.037943772971630096,-0.7331594733738978,0.3299960099988256,0.59171813569165,-0.05873104642243148,-0.5864213879228479,-1.4722553876109545,-0.3741392557877568
1781555617942980608,2.320260524749756,0.5108127593994141,0.1700306236743927,0.02652582898736,-0.8286014795303345,0.5531625747680664,-0.08620165288448334,0.008105874061584473,-0.00021457672119140625,-0.03338146209716797,-0.7345067022795667,0.3282820725543845,0.5908722817433375,-0.060006041728157336,-0.5861557531099539,-1.467136510692114,-0.3681256968013583
1781555617953015552,2.3302955627441406,0.5011532306671143,0.15880820155143738,0.048027392476797104,-0.8282631635665894,0.5530003905296326,-0.0903933048248291,0.007584333419799805,-0.006644129753112793,-0.02703828364610672,-0.7358189288309908,0.3265525377998144,0.5900565969002132,-0.061378297987251446,-0.5859611102665203,-1.462090576725083,-0.3619681384541494
1781555617963050496,2.3403306007385254,0.43044760823249817,0.1466018706560135,0.0762593001127243,-0.8277778029441833,0.5530810356140137,-0.09426327794790268,0.012058079242706299,-0.021907269954681396,-0.01590515673160553,-0.7370174285554812,0.3250500229451068,0.5892459972081409,-0.06274626853893707,-0.5860578785082919,-1.4574096629865665,-0.35626962579412297
1781555617973085440,2.350365400314331,0.31613221764564514,0.139186829328537,0.09645617753267288,-0.8271600604057312,0.553436279296875,-0.09754245728254318,0.013042628765106201,-0.03814697265625,-0.004416763782501221,-0.7380258008033247,0.32395680236986324,0.5884562527126581,-0.06394639117637142,-0.5864843144133188,-1.4534139118421672,-0.3516415546337303
1781555617983121408,2.3604013919830322,0.19430965185165405,0.11533422023057938,0.12292453646659851,-0.8264327049255371,0.5540803074836731,-0.10002045333385468,0.01609945297241211,-0.049044907093048096,0.00048738718032836914,-0.7387828784430903,0.32337705031929487,0.5877219202548549,-0.06488567501134622,-0.5872577936664601,-1.45035536025205,-0.34845169625341393
1781555617993156352,2.370436429977417,0.11093060672283173,0.08590202778577805,0.15012873709201813,-0.8255687952041626,0.5550627708435059,-0.10169471800327301,0.019111156463623047,-0.05889260768890381,0.0028024762868881226,-0.7392797944168062,0.3232558126286718,0.5870760789205283,-0.06567272452390836,-0.5884384054255641,-1.4482323581607772,-0.3464510738578897
1781555618003191552,2.3804714679718018,0.045928169041872025,0.06987885385751724,0.1683138608932495,-0.8245901465415955,0.5563187003135681,-0.10276597738265991,0.020909607410430908,-0.06005704402923584,0.011808320879936218,-0.7395800149799827,0.32347474808103027,0.586499018168032,-0.0663665070488651,-0.5899490677462197,-1.4468088681817644,-0.34530383728398373
1781555618013226496,2.3905065059661865,0.012483660131692886,0.07336080074310303,0.16831466555595398,-0.8235782980918884,0.5576807260513306,-0.10349415987730026,0.009170949459075928,-0.040300965309143066,0.01975393295288086,-0.7397731586495203,0.3238946180924218,0.585956649793004,-0.06695342352187572,-0.5915890146461906,-1.4457875786154697,-0.34473589376133357
1781555618023262464,2.4005424976348877,0.007072117179632187,0.08744733035564423,0.16636496782302856,-0.8225607872009277,0.5590487718582153,-0.1042025163769722,-0.0033211708068847656,-0.010861575603485107,0.0207521989941597,-0.7399650146328709,0.3243730887643257,0.5853894778138627,-0.06747585813520303,-0.5932381229675012,-1.4447868999533136,-0.3443580215727496
1781555618033297664,2.4105775356292725,0.010874046012759209,0.10747190564870834,0.14863203465938568,-0.8215708136558533,0.5603455305099487,-0.10504458844661713,-0.012962877750396729,0.01675713062286377,0.02287602424621582,-0.7402080704589517,0.3248410733677725,0.5847700262504879,-0.06792888189252179,-0.5948029009639701,-1.443628074354617,-0.3440215418178144
1781555618043332608,2.4206125736236572,0.03488164395093918,0.12441946566104889,0.13581451773643494,-0.8206473588943481,0.5614940524101257,-0.10612455010414124,-0.019730448722839355,0.030394375324249268,0.022262275218963623,-0.7405349062232138,0.32521012925871623,0.5841028137624352,-0.06833997769221901,-0.5961902387490527,-1.4421919545921995,-0.34351690600928025
1781555618053367552,2.430647611618042,0.04784298315644264,0.13186633586883545,0.12133409827947617,-0.819788932800293,0.5625028014183044,-0.10740800201892853,-0.02005469799041748,0.02863788604736328,0.02142471820116043,-0.7409319190910498,0.32547401675156884,0.5834060870721662,-0.06872966026109281,-0.597409779032604,-1.4405192973256138,-0.34281547213043134
1781555618063403520,2.440683603286743,0.04567303881049156,0.14624367654323578,0.09862292557954788,-0.8190121054649353,0.5633625984191895,-0.10881960391998291,-0.023501873016357422,0.02527564764022827,0.023873932659626007,-0.7413774547674361,0.3256648494619498,0.5826942613690308,-0.06905973210709022,-0.5984500582855324,-1.438703101976517,-0.342051198007686
1781555618073438464,2.450718402862549,0.03797170892357826,0.1784754991531372,0.07707928121089935,-0.8183386921882629,0.5640415549278259,-0.11035746335983276,-0.026952385902404785,0.02528327703475952,0.02762431651353836,-0.7418789091642884,0.32583010646185206,0.5819415864197571,-0.06924115359743696,-0.5992721234700311,-1.4367495242856878,-0.34143306121400235
1781555618083473408,2.4607534408569336,0.04717985540628433,0.2223990261554718,0.05722355470061302,-0.8177365064620972,0.5645442008972168,-0.1122361496090889,-0.03632843494415283,0.02024894952774048,0.022789180278778076,-0.742507692324,0.32593903468212737,0.5810728606755271,-0.06928537773618898,-0.5998809173608824,-1.4343963549486631,-0.34081949769679387
1781555618093508608,2.4707884788513184,0.049901340156793594,0.25113412737846375,0.029363960027694702,-0.8172154426574707,0.5648503303527832,-0.11446855962276459,-0.0394892692565918,0.007979869842529297,0.005581855773925781,-0.7432664186109035,0.3259661050175106,0.5800963872105651,-0.06920489593544626,-0.6002518777370502,-1.4316302975645763,-0.3401501825370581
1781555618103546112,2.4808261394500732,0.04735855385661125,0.2519986033439636,-0.004108511842787266,-0.8168537616729736,0.5648933053016663,-0.11681386828422546,-0.03142809867858887,-0.0024543404579162598,-0.005988895893096924,-0.7440759029716991,0.32590793995018386,0.5791175022462725,-0.068978061393157,-0.6003039337448568,-1.4287547417623505,-0.3395457884469432
1781555618113581056,2.490860939025879,0.0220651812851429,0.24399405717849731,-0.03513859957456589,-0.8166781067848206,0.5646836757659912,-0.11903426051139832,-0.014208674430847168,-0.008943378925323486,0.0037846639752388,-0.7448566708721907,0.3258041518587234,0.5782166770789996,-0.06859790989296037,-0.6000499556231246,-1.4260613263869186,-0.3391649703439377
1781555618123616000,2.5008959770202637,-0.000585003406740725,0.23105642199516296,-0.061359018087387085,-0.8166658282279968,0.564275860786438,-0.1210361123085022,-0.002715885639190674,-0.016897380352020264,0.018146097660064697,-0.7455773830663007,0.3257051922360758,0.5774063324261192,-0.06806215478118173,-0.599555902320352,-1.4236597605448642,-0.33911991389000595
1781555618133650944,2.5109310150146484,-0.020334739238023758,0.2157796025276184,-0.07830018550157547,-0.8167827725410461,0.5637269020080566,-0.1227923184633255,0.0036724209785461426,-0.01972055435180664,0.022252142429351807,-0.7462257140672689,0.3256278560041874,0.5766891189227087,-0.06740471585702167,-0.5988910750244023,-1.4215772370225486,-0.3393918518257153
1781555618143686144,2.520966053009033,-0.008890870958566666,0.20101983845233917,-0.08227255940437317,-0.8169856071472168,0.5630819797515869,-0.12439197301864624,0.007918834686279297,-0.02247828245162964,0.02376025915145874,-0.7468231740821103,0.3255230498406681,0.5760544752186003,-0.06671733348099874,-0.5981104479161178,-1.4196995461261623,-0.33973281018555185
1781555618153722112,2.5310020446777344,0.006359189283102751,0.19238239526748657,-0.07283324748277664,-0.8171822428703308,0.5624421834945679,-0.1259841024875641,0.00871056318283081,-0.02649247646331787,0.0273054838180542,-0.7474110862866705,0.32537099495286814,0.5754491006551159,-0.06609657685242512,-0.5973365208594353,-1.41783172181716,-0.3399062592334148
1781555618163757056,2.541037082672119,0.011166460812091827,0.18840231001377106,-0.05152209848165512,-0.8172942399978638,0.5619148015975952,-0.12760105729103088,0.0028562545776367188,-0.03228217363357544,0.024115964770317078,-0.747996908943331,0.3252117767633948,0.5748362978918642,-0.06558388089754157,-0.5966987932725091,-1.4159204167966897,-0.33989111514049386
1781555618173792000,2.551072120666504,0.007832449860870838,0.18493793904781342,-0.024893686175346375,-0.8172706365585327,0.561589777469635,-0.1291734129190445,0.0012153387069702148,-0.04512554407119751,0.0170975923538208,-0.7485590203149004,0.32512949240715927,0.5741986618480456,-0.0651625877363119,-0.5963059176546742,-1.414038432179699,-0.3398580305813304
1781555618183827200,2.5611071586608887,-0.003902236931025982,0.17253772914409637,0.0014095581136643887,-0.8171060085296631,0.5614884495735168,-0.13064579665660858,0.0033549070358276367,-0.05276048183441162,0.014648452401161194,-0.7490787372213814,0.32514193111715306,0.5735501983085618,-0.06483706796834943,-0.5961834580246761,-1.4122498623389999,-0.3398447476540758
1781555618193863168,2.57114315032959,-0.03583753481507301,0.15705981850624084,0.027476046234369278,-0.8168003559112549,0.5616418719291687,-0.13189157843589783,0.006635010242462158,-0.05323439836502075,0.01812209188938141,-0.7495175668089116,0.325314618411325,0.5729089015655138,-0.06456860604057167,-0.5963689233785485,-1.410704714040817,-0.3400512658690446
1781555618203897856,2.5811779499053955,-0.06145581230521202,0.14036047458648682,0.043397486209869385,-0.8164048790931702,0.5619931817054749,-0.13284040987491608,0.009260833263397217,-0.04150068759918213,0.016415849328041077,-0.7498555417877429,0.3256454591875893,0.5723065857592247,-0.06431784162452488,-0.5967935200563076,-1.4094960469191788,-0.34056272945864435
1781555618213933056,2.5912129878997803,-0.07222403585910797,0.13822795450687408,0.06459305435419083,-0.8159223794937134,0.5625175833702087,-0.1335838884115219,0.006092667579650879,-0.03048938512802124,0.018303751945495605,-0.750122219930976,0.32609639645997285,0.5717247559123693,-0.06409839586750239,-0.5974276857509635,-1.408514754538805,-0.34126946643440637
1781555618223968000,2.601248025894165,-0.10107139497995377,0.154823437333107,0.07671230286359787,-0.8153334856033325,0.5632058382034302,-0.13427786529064178,-0.0022019147872924805,-0.019260525703430176,0.01983696222305298,-0.7503727760929303,0.3266723822008743,0.5710921294855215,-0.06387211419399445,-0.5982603783480468,-1.4075707894263003,-0.34218094545444033
1781555618234003968,2.611284017562866,-0.11105505377054214,0.17313121259212494,0.09358076006174088,-0.8146397471427917,0.5640314221382141,-0.13502085208892822,-0.009945213794708252,-0.0006769299507141113,0.018138527870178223,-0.7506419644264792,0.32736086132242864,0.570372195787102,-0.0636161758782775,-0.5992597885430467,-1.4065464642608991,-0.3432788545794074
1781555618244039168,2.621319055557251,-0.12346059083938599,0.17441405355930328,0.10847635567188263,-0.8138250112533569,0.5650265216827393,-0.13577157258987427,-0.019594788551330566,0.013479948043823242,0.017836391925811768,-0.7509122850213454,0.3281542236399392,0.5695867118916531,-0.06337617179222887,-0.6004654036435647,-1.4054873703290724,-0.3444949536364696
1781555618254074112,2.6313540935516357,-0.12333648651838303,0.17501485347747803,0.10432848334312439,-0.8129847645759583,0.5660589933395386,-0.1365029662847519,-0.028995215892791748,0.030086636543273926,0.00634552538394928,-0.7511756869370209,0.3289726835192994,0.5687930096081492,-0.06313932027045291,-0.6017172782907662,-1.4044444992865208,-0.3457475475284992
1781555618264109056,2.6413891315460205,-0.10101599991321564,0.17424893379211426,0.0850362777709961,-0.8122044205665588,0.5669897794723511,-0.13728219270706177,-0.04384404420852661,0.05555349588394165,-0.015336200594902039,-0.7514564187035678,0.3297287228419729,0.5680122101017763,-0.06288267410187283,-0.6028468439036963,-1.4033547150223236,-0.3469249967027998
1781555618274145024,2.6514251232147217,-0.07016833871603012,0.15765851736068726,0.04308190196752548,-0.8115914463996887,0.5676527619361877,-0.13816510140895844,-0.0649343729019165,0.08562171459197998,-0.04126302897930145,-0.7517717338297889,0.33028610378262063,0.5672993387191172,-0.0626241095453079,-0.6036519011861564,-1.4021731975870435,-0.3477862361597273
1781555618284180224,2.6614601612091064,-0.05542481690645218,0.136198490858078,-0.03225759044289589,-0.8113433122634888,0.5678068995475769,-0.13898685574531555,-0.10088813304901123,0.1233857274055481,-0.07318657636642456,-0.7520773938483303,0.33059358102584907,0.5667578442699204,-0.06223381352172095,-0.6038391864170547,-1.4011384679936887,-0.3485304448090219
1781555618294214912,2.671494960784912,-0.01556954625993967,0.10563485324382782,-0.1330459862947464,-0.8116344213485718,0.5671951770782471,-0.1397830694913864,-0.14351999759674072,0.15999293327331543,-0.09508019685745239,-0.7523928948873235,0.3305399454325865,0.5664378232156473,-0.06161610282925878,-0.6030962342133956,-1.400245258945927,-0.349142733377805
1781555618304250112,2.681529998779297,0.06942258030176163,0.047477543354034424,-0.24791903793811798,-0.8126095533370972,0.5656061768531799,-0.1405540406703949,-0.19904816150665283,0.19092464447021484,-0.09075397253036499,-0.7527128096661809,0.32993333309499184,0.566451214739942,-0.06083141728458888,-0.6011680881784756,-1.3995246469008875,-0.3492587314177116
1781555618314286080,2.691565990447998,0.13384497165679932,0.04768766462802887,-0.37096107006073,-0.8142906427383423,0.5629497170448303,-0.14148540794849396,-0.28536438941955566,0.2258075475692749,-0.07485370337963104,-0.7530962014167835,0.3286724524521961,0.5667730716769402,-0.059905606073478446,-0.5979504470937632,-1.3987609029374157,-0.3486273526009069
1781555618324321024,2.701601028442383,0.15198110044002533,0.09678251296281815,-0.5381269454956055,-0.8167279958724976,0.5590497255325317,-0.14289525151252747,-0.4017016291618347,0.28282350301742554,-0.07840295135974884,-0.753674786372746,0.32685759126562064,0.5672005755022549,-0.058498766980816186,-0.5932392442242703,-1.3975888646763972,-0.34781980338079166
1781555618334355968,2.7116360664367676,0.10489535331726074,0.14914251863956451,-0.739597737789154,-0.8201084136962891,0.5536260008811951,-0.14463944733142853,-0.5291957855224609,0.36171823740005493,-0.054228365421295166,-0.7544228051545523,0.32457589180910706,0.5677418108690119,-0.05626773524623967,-0.5867121367506641,-1.396225312633012,-0.3475695040400869
1781555618344391168,2.7216711044311523,0.007694498170167208,0.32879137992858887,-0.9697155952453613,-0.8245106935501099,0.546480119228363,-0.14677037298679352,-0.6886575818061829,0.4355144500732422,-0.0020790547132492065,-0.7553782828406125,0.3219975789498778,0.5682713894130784,-0.05280943931000763,-0.5781554920743941,-1.394632516241332,-0.3487475600132491
1781555618354427136,2.7317070960998535,-0.007593910675495863,0.7001208662986755,-1.129841685295105,-0.8295116424560547,0.5377042293548584,-0.1509457528591156,-0.8613605499267578,0.4745180606842041,-0.02369105815887451,-0.7570812717248577,0.31912610131284996,0.5680542718075439,-0.047966752649675155,-0.5677118318505137,-1.3907964277533185,-0.35104031388438783
1781555618364462080,2.7417421340942383,-0.030057674273848534,1.0311328172683716,-1.2218972444534302,-0.8344893455505371,0.5278415679931641,-0.15814797580242157,-0.9210342764854431,0.46399492025375366,-0.08117084205150604,-0.7598068494910798,0.31599978695885245,0.5666305210214152,-0.042041460579270565,-0.5560572403330859,-1.3835028337867865,-0.35374471317135336
1781555618374497024,2.751776933670044,-0.1210767924785614,1.1951462030410767,-1.3295449018478394,-0.8393269777297974,0.5172744989395142,-0.1672041416168213,-0.8239572644233704,0.42458945512771606,-0.09869550168514252,-0.763127852545115,0.3128980908244702,0.5643515893338037,-0.03518376569486599,-0.5436632361556115,-1.3741584214578138,-0.3574873013516072
1781555618384531968,2.7618119716644287,-0.18985426425933838,1.1305134296417236,-1.4727656841278076,-0.8444992899894714,0.505698561668396,-0.1763235628604889,-0.6277602910995483,0.3667227625846863,-0.13579495251178741,-0.7664232940622389,0.3097282743032333,0.5620557040437971,-0.027517424669433393,-0.5301915232003463,-1.3649626824574088,-0.3625755424283913
1781555618394567936,2.77184796333313,-0.20209042727947235,0.9639275670051575,-1.5893703699111938,-0.8502839803695679,0.4930298328399658,-0.18422512710094452,-0.41910994052886963,0.3162200450897217,-0.1577700972557068,-0.7692430165038632,0.30630296011773767,0.5604158556413247,-0.01943825581417615,-0.5155688548319771,-1.357431126635761,-0.3685193765548476
1781555618404602880,2.7818830013275146,-0.1513201892375946,0.7385109663009644,-1.70181143283844,-0.8566761016845703,0.4793216586112976,-0.19067494571208954,-0.25147825479507446,0.2949855923652649,-0.14082229137420654,-0.7714988312494465,0.30246605866396253,0.5596220272239413,-0.011273006301160383,-0.49988164251562567,-1.351790937825021,-0.3746130158229316
1781555618414638080,2.7919180393218994,-0.12085175514221191,0.4968653619289398,-1.8485372066497803,-0.863905668258667,0.4642333984375,-0.19533155858516693,-0.1453869342803955,0.280242919921875,-0.07281112670898438,-0.7730822073823357,0.2979890866534593,0.5599435025393047,-0.0031193243418646435,-0.482768911410946,-1.3484323993271996,-0.38044022871115246
1781555618424673024,2.801953077316284,-0.2268330603837967,0.5059299468994141,-1.9584392309188843,-0.8716590404510498,0.4479745030403137,-0.19881993532180786,-0.1093590259552002,0.2532278895378113,0.06124669313430786,-0.7741963734809321,0.29328148939709836,0.5608707508431328,0.005474020179031718,-0.4644985020414496,-1.3465392171393766,-0.387046080355506
1781555618434708992,2.8119890689849854,-0.35932666063308716,0.6245772242546082,-2.028946876525879,-0.8793535232543945,0.4309658408164978,-0.20249907672405243,-0.09075450897216797,0.1856418251991272,0.17352259159088135,-0.7752597469613154,0.2887402239097761,0.5615866347012289,0.014896634326546001,-0.44556284763899445,-1.344460363546125,-0.39519707240998664
1781555618444744192,2.82202410697937,-0.5572870969772339,0.7889275550842285,-1.9647748470306396,-0.8863996863365173,0.4141503870487213,-0.20682163536548615,-0.034636080265045166,0.06523498892784119,0.30048006772994995,-0.7763933337048481,0.2847897711370099,0.5616795951906564,0.024985224495821117,-0.4270091679045003,-1.3415696895856428,-0.40509409074297037
1781555618454779136,2.832059144973755,-0.787337601184845,0.9364863634109497,-1.8755453824996948,-0.8923979997634888,0.39844849705696106,-0.211812362074852,0.07199400663375854,-0.039088815450668335,0.3180898427963257,-0.777585480227433,0.28188516440263617,0.5609229667686937,0.035594115964594567,-0.40982465314925276,-1.3377567290739005,-0.41712721348136916
1781555618464813824,2.8420939445495605,-0.9570496678352356,1.0150214433670044,-1.807411551475525,-0.8975102305412292,0.38380375504493713,-0.21718628704547882,0.2178838849067688,-0.08213755488395691,0.2595294415950775,-0.7787289757074578,0.27993149047698684,0.559504435923924,0.046628562521326224,-0.393912010358038,-1.3333729039600133,-0.43110021366384504
1781555618474849024,2.8521289825439453,-1.011030673980713,1.0237739086151123,-1.7466667890548706,-0.9019748568534851,0.36995014548301697,-0.2226615995168686,0.3684055805206299,-0.08639612793922424,0.20865406095981598,-0.7797369287248664,0.27857242785791714,0.5577334529557121,0.05780203679191145,-0.3789553734957321,-1.328775045276292,-0.4461469173974507
1781555618484884992,2.8621649742126465,-0.8930991888046265,0.9387201070785522,-1.7350047826766968,-0.9060735702514648,0.3563515543937683,-0.2281319797039032,0.5015478730201721,-0.07761925458908081,0.15313506126403809,-0.7806091354649944,0.2771606812784047,0.5559819838568341,0.06866838006711377,-0.36436018518929497,-1.3241422687408588,-0.46071109267345334
1781555618494919936,2.8722000122070312,-0.7208949327468872,0.8045021295547485,-1.702417016029358,-0.9101117253303528,0.34250006079673767,-0.23321740329265594,0.5947888493537903,-0.09028753638267517,0.17952173948287964,-0.7812717779823776,0.2751999174731097,0.5546677407847602,0.07888668756597315,-0.34957661041356297,-1.3199427001803885,-0.473654339059355
1781555618504955136,2.882235050201416,-0.5398825407028198,0.7703827619552612,-1.5972695350646973,-0.9138241410255432,0.32887762784957886,-0.238253653049469,0.6474363207817078,-0.13377878069877625,0.23385915160179138,-0.7818881058885773,0.2727527328998381,0.5536055616229006,0.08819149580255176,-0.3351148468744292,-1.315752516527542,-0.4845598809621238
1781555618514990080,2.892270088195801,-0.31336474418640137,0.7196272611618042,-1.476983904838562,-0.9169968962669373,0.31579506397247314,-0.24370068311691284,0.6786394119262695,-0.18916243314743042,0.23213453590869904,-0.7826589188320916,0.26981516684646845,0.5525843226666122,0.09641191018184336,-0.32129449094685963,-1.3110410154656265,-0.49306493599673745
1781555618525026048,2.902306079864502,-0.29699110984802246,0.6553233861923218,-1.3537282943725586,-0.9196944832801819,0.30346736311912537,-0.24913755059242249,0.7045150995254517,-0.22662413120269775,0.2370525747537613,-0.7834633531688998,0.2666871105901118,0.5516422819743075,0.10370108093524473,-0.3083295164223362,-1.3062536207150592,-0.4998888552576485
1781555618535061248,2.9123411178588867,-0.3743884265422821,0.5438436269760132,-1.2388211488723755,-0.9220544099807739,0.2923225164413452,-0.2536988854408264,0.7477380633354187,-0.22063672542572021,0.2359224259853363,-0.7839799985075084,0.264116439294371,0.5508112714794882,0.11056555474006902,-0.296654524235116,-1.302295072268012,-0.5069657861362279
1781555618545096192,2.9223761558532715,-0.4472557008266449,0.3753555417060852,-1.1115614175796509,-0.9242745637893677,0.2824588119983673,-0.2567753791809082,0.8154336214065552,-0.21356534957885742,0.2043461799621582,-0.7840416767439364,0.2621870205443121,0.5503365102256568,0.11690328831936475,-0.2863563266520124,-1.299816885721063,-0.5143026842429631
1781555618555130880,2.932410955429077,-0.6873748302459717,0.17662501335144043,-0.9766778945922852,-0.9264820218086243,0.27423036098480225,-0.25773805379867554,0.8919361233711243,-0.21656739711761475,0.1556262969970703,-0.7834310243249515,0.2613478986892178,0.5502983207398077,0.12290218745214457,-0.27778929945369024,-1.2994667862516625,-0.5228513264580561
1781555618565166848,2.9424469470977783,-1.029164433479309,-0.024460962042212486,-0.9119963645935059,-0.9288290143013,0.26763463020324707,-0.256219744682312,0.9535176157951355,-0.21662446856498718,0.10199913382530212,-0.7819491820027483,0.26204307103316427,0.5506573792265173,0.1290948817994353,-0.2709372685211627,-1.3016377723909764,-0.5340844219627146
1781555618575202048,2.952481985092163,-1.375623345375061,-0.3221917152404785,-0.8114732503890991,-0.9315600395202637,0.26262202858924866,-0.2514475882053375,1.0056565999984741,-0.23205861449241638,0.10818281769752502,-0.7793226012358718,0.26446357639764323,0.5516658646172433,0.13557379511934584,-0.2657386008359472,-1.3071581556024616,-0.5484959611159929
1781555618585236992,2.962517023086548,-1.7020014524459839,-0.6645463705062866,-0.7223281860351562,-0.9347823262214661,0.25931045413017273,-0.24277549982070923,1.0372605323791504,-0.23375204205513,0.11226710677146912,-0.7753546275296878,0.2687190809175046,0.5535361838193261,0.1421720140292712,-0.2623081701618027,-1.3166967442366941,-0.5660516477815605
1781555618595272192,2.9725520610809326,-1.8823834657669067,-0.9833542108535767,-0.6493879556655884,-0.9385197758674622,0.2571401000022888,-0.23034733533859253,1.0069552659988403,-0.19152727723121643,0.11549440026283264,-0.7701007587796703,0.2743969717131082,0.5563565699039378,0.14872344339240892,-0.26006162230915847,-1.3301169777453854,-0.5859410787469841
1781555618605308160,2.982588052749634,-1.9252164363861084,-1.1939688920974731,-0.6024153828620911,-0.9425894021987915,0.2555273175239563,-0.21501381695270538,0.8998801112174988,-0.11450561881065369,0.09044106304645538,-0.7638735347879869,0.2808431917260586,0.5600180277200834,0.1549325649066071,-0.25839307488147595,-1.3465239730326042,-0.6067264604669951
1781555618615343104,2.9926230907440186,-1.8904027938842773,-1.1633272171020508,-0.5950972437858582,-0.9465845227241516,0.25384318828582764,-0.1988498717546463,0.7408503293991089,-0.02467140555381775,0.006070315837860107,-0.7573204959213379,0.28740151758128674,0.5638931058442995,0.16090544646575575,-0.25665151642763656,-1.363736231252311,-0.627435618361171
1781555618625378048,3.0026581287384033,-1.7688318490982056,-1.0619038343429565,-0.6100485324859619,-0.9502394199371338,0.2516480088233948,-0.18362575769424438,0.6001722812652588,0.052673280239105225,-0.09991312026977539,-0.7510017253846402,0.29354818896134705,0.5674650522258434,0.16676127826580014,-0.2543826749608662,-1.379907627399758,-0.6473055381740033
1781555618635413248,3.012693166732788,-1.5052134990692139,-1.0692147016525269,-0.6168265342712402,-0.9536649584770203,0.2486678510904312,-0.16937343776226044,0.5189573764801025,0.0797470360994339,-0.20727448165416718,-0.7450042639993146,0.2988664660806092,0.5709571961653122,0.17220707284934486,-0.2513046585823511,-1.3950264562865695,-0.6652537153368655
1781555618645449216,3.0227291584014893,-1.27919340133667,-1.1483759880065918,-0.5687453150749207,-0.9569476246833801,0.24519874155521393,-0.1553346812725067,0.4955065846443176,0.03219076991081238,-0.2825925946235657,-0.7392160427232859,0.3032528693959309,0.5747785290119672,0.17671156254957623,-0.24772469364134014,-1.409876797130114,-0.6803512761552152
1781555618655483904,3.032763957977295,-1.185496211051941,-1.1945873498916626,-0.4910541772842407,-0.9599904417991638,0.24193482100963593,-0.14101757109165192,0.4967030882835388,-0.026969000697135925,-0.2737315893173218,-0.7334525291713007,0.30732395960101005,0.5788291624255038,0.1804334152103443,-0.24435942122768584,-1.424944660894924,-0.6937844002765472
1781555618665519104,3.0427989959716797,-1.0508114099502563,-1.2166005373001099,-0.4426823854446411,-0.9627302885055542,0.23894865810871124,-0.12670515477657318,0.49732184410095215,-0.041469380259513855,-0.2843360900878906,-0.7277804929850699,0.3111773297052624,0.582937468748069,0.18354364011909435,-0.24128299363412142,-1.4399381796654762,-0.7059348188816859
1781555618675554048,3.0528340339660645,-0.8098881840705872,-1.3381356000900269,-0.3853141665458679,-0.9652409553527832,0.23606182634830475,-0.11218200623989105,0.5178685188293457,0.011130556464195251,-0.31202757358551025,-0.7221941380113744,0.31455040977916854,0.5873389456454862,0.18581357163173792,-0.23831113510584565,-1.4550936522368911,-0.7160825698675557
1781555618685590016,3.0628700256347656,-0.4579046368598938,-1.5201200246810913,-0.2765592038631439,-0.9675214290618896,0.23350124061107635,-0.09684839844703674,0.5531994700431824,0.08693335950374603,-0.31426918506622314,-0.7166491422259048,0.31720566158679986,0.5924157056910827,0.18665025624493753,-0.23567691743498145,-1.4710291743781772,-0.7230185825825904
1781555618695624960,3.0729050636291504,-0.1111578494310379,-1.7460297346115112,-0.14670826494693756,-0.9694687724113464,0.23167726397514343,-0.08034946769475937,0.5511338114738464,0.10175780951976776,-0.3430056571960449,-0.7111367431706043,0.31908079490272734,0.5983416350038628,0.18563215757644955,-0.23380149703776615,-1.4881054233734976,-0.7260511434393324
1781555618705660160,3.082940101623535,0.08681568503379822,-2.0070247650146484,0.03856731206178665,-0.9709458351135254,0.23110270500183105,-0.062094829976558685,0.48821884393692017,0.03031088411808014,-0.3082360029220581,-0.7054181423100574,0.3206471322622222,0.6050933817699201,0.18284607763475297,-0.2332109179402627,-1.506930371605693,-0.7261332348321295
1781555618715695104,3.09297513961792,0.15896470844745636,-2.274519205093384,0.2918480634689331,-0.971680760383606,0.23262548446655273,-0.04149686172604561,0.35272324085235596,-0.11151646077632904,-0.206626296043396,-0.6992293884776796,0.32261919427088404,0.6125099386612533,0.17840050037315947,-0.23477635812542524,-1.5281159907843735,-0.7246668176979187
1781555618725731072,3.103011131286621,0.053161848336458206,-2.3905205726623535,0.5175847411155701,-0.9714295268058777,0.23657730221748352,-0.018868912011384964,0.09385067224502563,-0.27026867866516113,-0.06418466567993164,-0.6925169025218316,0.3255401825703482,0.6201525082519463,0.17278560353323844,-0.238841638734378,-1.5513749075520542,-0.7233130042913528
1781555618735766016,3.1130459308624268,-0.1480112075805664,-2.254141092300415,0.6775650978088379,-0.9701659679412842,0.242409348487854,0.004006626550108194,-0.33638328313827515,-0.38697105646133423,0.11115145683288574,-0.6856295113470043,0.32959938462688465,0.6271902095866557,0.16705998656280224,-0.24484850811347053,-1.574926139667738,-0.723855800862021
1781555618745800960,3.1230809688568115,-0.07104265689849854,-1.754486322402954,1.009310007095337,-0.9678444862365723,0.2503929138183594,0.024098480120301247,-0.9535881280899048,-0.4624747931957245,0.21319091320037842,-0.6796661456278006,0.3343147197979226,0.6326791510757356,0.1612601487724853,-0.2530860886520156,-1.5956903075449957,-0.7253080621242046
1781555618755835904,3.1331160068511963,0.28444966673851013,-0.6946508884429932,1.5782461166381836,-0.9641249775886536,0.2629792094230652,0.03612912446260452,-1.6380021572113037,-0.4518371820449829,0.15956485271453857,-0.6768178631647216,0.33914601879233514,0.6348578900239386,0.15444477663732523,-0.26610879579457636,-1.6082522878450443,-0.7248434155469313
1781555618765872128,3.1431519985198975,0.7261048555374146,0.6440461277961731,1.9931285381317139,-0.959175705909729,0.2806375324726105,0.03499458357691765,-2.070319652557373,-0.322492390871048,0.03698110580444336,-0.6789684738078988,0.34321222246895283,0.6322204215973521,0.14664428493536671,-0.28445827199285484,-1.6072641689971416,-0.7203031431553143
1781555618775907072,3.1531870365142822,0.9624995589256287,1.4465701580047607,2.0677056312561035,-0.9535223245620728,0.30052781105041504,0.021862603724002838,-1.9103538990020752,-0.18788745999336243,-0.12954390048980713,-0.6854233690953745,0.34589288555283587,0.6255313049144003,0.13879267079842153,-0.3052460005225065,-1.593720565189867,-0.7117927008280803
1781555618785942016,3.163222074508667,0.8982142806053162,1.5013595819473267,2.04502534866333,-0.9473196864128113,0.32025638222694397,0.004604968708008528,-1.2987587451934814,-0.14894598722457886,-0.2678802013397217,-0.6931343833796932,0.3480477188045403,0.6173858354404379,0.13138567154089953,-0.32600010552925923,-1.5756573389994581,-0.7022213581143539
1781555618795977216,3.1732571125030518,0.7588577270507812,1.2916735410690308,2.0064642429351807,-0.9405547976493835,0.33944937586784363,-0.011438317596912384,-0.7552154660224915,-0.16299676895141602,-0.2832394242286682,-0.7002133923481623,0.35047507755381435,0.6094653895984045,0.12417874933083635,-0.3463314651760713,-1.5586356804215091,-0.6932654749791551
1781555618806013184,3.183293104171753,0.5473684072494507,1.1238722801208496,1.884461760520935,-0.9335066676139832,0.3576909005641937,-0.02495010569691658,-0.46357274055480957,-0.08420762419700623,-0.1733531355857849,-0.7061761424043862,0.35339921727353646,0.6021909499899739,0.1174322501052307,-0.3657940421022269,-1.5440753963197853,-0.6859239544543486
1781555618816048128,3.1933281421661377,0.5899630188941956,1.304196834564209,1.5486855506896973,-0.9268045425415039,0.37359723448753357,-0.0381915345788002,-0.3204183578491211,0.09422200918197632,0.06693911552429199,-0.7117522014813582,0.35595341611803305,0.5951482155967446,0.1118242596241893,-0.3828840495791012,-1.5296118740052225,-0.6794588856170356
1781555618826083072,3.2033629417419434,0.9477360248565674,1.444142460823059,1.3181434869766235,-0.9207624197006226,0.3863723874092102,-0.05397133156657219,-0.17361313104629517,0.2500411868095398,0.2664652466773987,-0.7180121073321267,0.35667127248498753,0.5880475636145247,0.1069779158679106,-0.39669528615833366,-1.5122474053823816,-0.6704706880455661
1781555618836118016,3.213397979736328,1.2645381689071655,1.2928178310394287,1.3720277547836304,-0.9146639108657837,0.3979034423828125,-0.07115283608436584,0.10106527805328369,0.3502197265625,0.33296316862106323,-0.7247815927195286,0.35576358144745707,0.5812536930338449,0.10133127128709138,-0.4092304493242819,-1.4931614396148096,-0.6572072563497479
1781555618846153984,3.2234339714050293,1.1866140365600586,0.8467921614646912,1.3914648294448853,-0.9081470370292664,0.4096960723400116,-0.08612800389528275,0.43665051460266113,0.361116886138916,0.31214118003845215,-0.7308371108077409,0.35473996660891277,0.5754090321202225,0.09455724492453842,-0.4221208716745612,-1.476239871728286,-0.6422955457065053
1781555618856188928,3.233469009399414,0.7617440819740295,0.21533378958702087,1.130874514579773,-0.9023417234420776,0.4203720986843109,-0.09522082656621933,0.6848580837249756,0.34410855174064636,0.26967453956604004,-0.7347614237856221,0.3544849746354271,0.5716030014916811,0.0879558507439678,-0.43385538973205545,-1.465659093811938,-0.6299193900795659
1781555618866224128,3.243504047393799,0.26658570766448975,-0.5126242637634277,0.7627010345458984,-0.8984571695327759,0.4284517168998718,-0.09593624621629715,0.7712141871452332,0.3586118519306183,0.22874873876571655,-0.7356085930442808,0.3554247704394935,0.5707057989706018,0.0827530595983734,-0.4427785646907256,-1.4644205158887336,-0.6233094234854285
1781555618876259072,3.2535390853881836,-0.0214958768337965,-1.033491849899292,0.49526748061180115,-0.8965103030204773,0.4339156150817871,-0.08936680108308792,0.6945297718048096,0.339415043592453,0.15394198894500732,-0.7338169799343158,0.357072718257927,0.5725518941777517,0.07871465235260555,-0.448834314668881,-1.4714415818417117,-0.6212606168720662
1781555618886295040,3.2635750770568848,-0.24230895936489105,-1.2952784299850464,0.3583594262599945,-0.8956609964370728,0.4378238916397095,-0.0781126394867897,0.47488462924957275,0.23153340816497803,0.106234610080719,-0.7303182247750493,0.3592590650290131,0.5760873228301038,0.07544254971279817,-0.4531768193779954,-1.4838041492839575,-0.6223764310728145
1781555618896330240,3.2736101150512695,-0.31813979148864746,-1.2838019132614136,0.3075620234012604,-0.895145833492279,0.4409902095794678,-0.06512724608182907,0.17572450637817383,0.07582497596740723,0.14457976818084717,-0.7261373902898626,0.3617540602813542,0.580146857742375,0.07271958702074523,-0.4567016678443399,-1.4981682811196695,-0.6252995589807299
1781555618906365184,3.2836451530456543,-0.22215121984481812,-1.12605881690979,0.30431538820266724,-0.8945206999778748,0.4438740909099579,-0.0529954694211483,-0.14005565643310547,-0.047435462474823,0.1717546582221985,-0.7221937481786761,0.3641003882690965,0.5838948294568423,0.07024207434811046,-0.45991738736234916,-1.511620953423385,-0.6282377537570366
1781555618916399872,3.29367995262146,0.003850757610052824,-0.8423885703086853,0.35938048362731934,-0.8935245275497437,0.446893572807312,-0.04358779266476631,-0.4187770485877991,-0.0806368887424469,0.1631861925125122,-0.719187050061705,0.3658177289818369,0.5868419651075549,0.06755582226320635,-0.4632898346205897,-1.5220530994713517,-0.6292858352999586
1781555618926435840,3.303715944290161,0.27644872665405273,-0.45138779282569885,0.38148233294487,-0.8921069502830505,0.45019593834877014,-0.03832502290606499,-0.619382917881012,-0.03894105553627014,0.1423441767692566,-0.7176277965068861,0.3666492995504278,0.588562468919429,0.06459765271891908,-0.4669847729585078,-1.527862604790887,-0.6275646009426447
1781555618936471040,3.313750982284546,0.5231938362121582,-0.02785356156527996,0.38685232400894165,-0.8904532194137573,0.453479140996933,-0.038075510412454605,-0.7165414094924927,0.018475204706192017,0.1186571717262268,-0.7178058100735237,0.3663967282727783,0.588825680016078,0.06158381382474841,-0.4706650678555143,-1.5280626584590922,-0.6228160308410788
1781555618946505984,3.3237860202789307,0.5816981196403503,0.2762637138366699,0.38860228657722473,-0.8886275291442871,0.456714391708374,-0.041870322078466415,-0.6619858741760254,0.03770086169242859,0.1147005558013916,-0.7193627490060752,0.3654548362132776,0.587798946402656,0.058757155853357654,-0.4742983951973784,-1.5237131810778561,-0.6162299863353958
1781555618956541184,3.3338210582733154,0.47996482253074646,0.3883504271507263,0.3736840486526489,-0.8867200613021851,0.4598729908466339,-0.047373585402965546,-0.48330551385879517,0.0190698504447937,0.12227898836135864,-0.7214578480173077,0.3645539932059281,0.5860150117453773,0.05643856447719533,-0.47785215787258944,-1.517421434175725,-0.6100093191598813
1781555618966577152,3.3438570499420166,0.3064265847206116,0.394425630569458,0.3379300534725189,-0.8848613500595093,0.46286118030548096,-0.05272453650832176,-0.2813678979873657,-0.0006420016288757324,0.11331719160079956,-0.7234442268190425,0.36405046412123854,0.5840419428805428,0.054687185011844705,-0.4812202573080878,-1.5112816093880417,-0.605273703216587
1781555618976612096,3.3538920879364014,0.14800871908664703,0.4094489514827728,0.2782565951347351,-0.8832125663757324,0.46546080708503723,-0.05728502199053764,-0.13758504390716553,0.026345163583755493,0.09759873896837234,-0.7250952196786693,0.36404172970307946,0.5820920096001257,0.05365907569603374,-0.4841551748663441,-1.5060272110040152,-0.6025762030842401
1781555618986647040,3.363927125930786,0.05756671354174614,0.4071162939071655,0.24385656416416168,-0.8817480206489563,0.46770787239074707,-0.0613982155919075,-0.0413629412651062,0.05374598503112793,0.0642668604850769,-0.7265484778962282,0.3643208855903294,0.5801475543657925,0.05316381059440294,-0.4866957323741777,-1.5012761598139643,-0.6012259703146493
1781555618996682240,3.373962163925171,-0.04406643658876419,0.36847832798957825,0.21736370027065277,-0.8804189562797546,0.4697320759296417,-0.0649166852235794,0.050188302993774414,0.055002361536026,0.06006438285112381,-0.7277700020744936,0.36483610936265687,0.5783046531860252,0.05300102763576207,-0.4889872567454236,-1.4971956592535747,-0.6008875592216226
1781555619006718208,3.383998155593872,-0.2241043895483017,0.30789780616760254,0.14858117699623108,-0.8793233036994934,0.47145047783851624,-0.06726767867803574,0.13730370998382568,0.054840415716171265,0.12316066771745682,-0.7285526613978747,0.3657724374835235,0.5766946196887206,0.053337139697806825,-0.49093479481091096,-1.4944456638268235,-0.6022574663401055
1781555619016752896,3.3940329551696777,-0.30792471766471863,0.2791915833950043,0.07579004764556885,-0.8785922527313232,0.47262832522392273,-0.06854218244552612,0.19986611604690552,0.0899326503276825,0.21748322248458862,-0.7289215852724185,0.36702661753882054,0.5753436980951364,0.05426227019146804,-0.49227087135558056,-1.4929403776353491,-0.6052903895803408
1781555619026788096,3.4040679931640625,-0.22870951890945435,0.22375071048736572,-0.0267294030636549,-0.8782880306243896,0.4730582535266876,-0.06946954876184464,0.22684460878372192,0.15430685877799988,0.20783621072769165,-0.7291525293389713,0.36803883889361577,0.5742931656661752,0.05542000605108188,-0.4927587603901809,-1.491864120670402,-0.6083801262908658
1781555619036823040,3.4141030311584473,-0.0694788470864296,0.18661998212337494,-0.1434062123298645,-0.8785527348518372,0.472410649061203,-0.07051962614059448,0.20036077499389648,0.2198042869567871,0.13463705778121948,-0.7294253372626802,0.36830165552860505,0.5736672199058446,0.05655411388185712,-0.4920238540313637,-1.4907001077360054,-0.6102160920606613
1781555619046859008,3.4241390228271484,0.1309991180896759,0.1646917760372162,-0.24302974343299866,-0.8793540596961975,0.4706582725048065,-0.07222998887300491,0.1271873116493225,0.24690154194831848,0.05120342969894409,-0.7299372290112193,0.3675673152293889,0.5733927741071249,0.05750322708083119,-0.4900366952909892,-1.4888404880024884,-0.6100255680994906
1781555619056893952,3.434174060821533,0.20790322124958038,0.15061578154563904,-0.28415215015411377,-0.8805040121078491,0.46815887093544006,-0.07443182915449142,0.034419357776641846,0.1966361105442047,-0.0069890692830085754,-0.7306318996061026,0.36609201311380973,0.5733765987535862,0.05824979900697896,-0.48720605235264286,-1.4864636177673438,-0.6082399002161555
1781555619066929152,3.444209098815918,0.17021389305591583,0.21544350683689117,-0.2493654042482376,-0.8816405534744263,0.4656165540218353,-0.07688478380441666,-0.06089484691619873,0.11221855878829956,-0.013599812984466553,-0.731408272754291,0.36456801349943346,0.5732780920723812,0.059028563025719086,-0.48433117006847126,-1.4838098906956891,-0.6063729026414407
1781555619076964096,3.4542441368103027,0.15768691897392273,0.31942927837371826,-0.15039967000484467,-0.8823761940002441,0.46369361877441406,-0.08000227808952332,-0.14609664678573608,0.04451560974121094,-0.024276316165924072,-0.7324107776224161,0.3633109979874399,0.5727163165679812,0.05979589647735634,-0.48215955316917863,-1.480376692693719,-0.6047501236704279
1781555619087000064,3.464280128479004,0.1484111249446869,0.4042317867279053,-0.06265464425086975,-0.8825606107711792,0.4626544117927551,-0.08389167487621307,-0.1793595552444458,0.03275269269943237,-0.03312796354293823,-0.733687511863645,0.3623547258388196,0.5716233151986295,0.060403294459286036,-0.48098699673708284,-1.4760262109265214,-0.6031710029208508
