time,seconds_elapsed,rotationRateX,rotationRateY,rotationRateZ,gravityX,gravityY,gravityZ,accelerationX,accelerationY,accelerationZ,quaternionW,quaternionX,quaternionY,quaternionZ,pitch,roll,yaw
1780771634426487296,0.2043921947479248,-0.1634082943201065,-0.2588699758052826,-0.03619108349084854,-0.04552825167775154,-0.3524963855743408,-0.9347050189971924,0.005275554955005646,-0.03689265251159668,0.07496380805969238,-0.5317790468153012,-0.1163585542707086,-0.13823230115363747,-0.8273836658594579,0.3602373711941043,-0.048670217144558235,2.0079709394102347
1780771634436522240,0.21442723274230957,-0.1528102457523346,-0.2568386495113373,-0.01235153153538704,-0.047847602516412735,-0.3510245382785797,-0.935142993927002,0.005214545875787735,-0.04080590605735779,0.07404375076293945,-0.5321509335213104,-0.11698424911319275,-0.1369058065335805,-0.827276793245033,0.35866505391749315,-0.05112150320094756,2.0076223358622114
1780771634446556928,0.22446203231811523,-0.11625676602125168,-0.2838449478149414,0.007487952709197998,-0.05037824809551239,-0.34970489144325256,-0.9355044364929199,0.00551740825176239,-0.034175723791122437,0.05202054977416992,-0.5324319888594,-0.11773013381788633,-0.13560015291347477,-0.8272052378135326,0.35725608826037647,-0.05379946148951225,2.0075097925559886
1780771634456592128,0.2344970703125,-0.0023997067473828793,-0.29673054814338684,0.0435468852519989,-0.053181372582912445,-0.3491257429122925,-0.9355655908584595,0.010090555995702744,-0.01259911060333252,0.03296244144439697,-0.532562366275421,-0.11878680173271822,-0.1345618901165829,-0.8271397489246612,0.3566379714432881,-0.0567829816106508,2.007735741514534
1780771634466626048,0.24453115463256836,0.10549906641244888,-0.3026358187198639,0.09499064087867737,-0.05627661943435669,-0.34961482882499695,-0.9352018237113953,0.013567276298999786,-0.0028784573078155518,0.006017863750457764,-0.5324454692393908,-0.12024457387426501,-0.1339415638418888,-0.8271050031767302,0.35715996058844623,-0.060103432646154364,2.0085124102180867
1780771634476661248,0.2545661926269531,0.10746581107378006,-0.2992912828922272,0.16628025472164154,-0.059545841068029404,-0.3506462275981903,-0.934613049030304,0.025381416082382202,-0.009369641542434692,-0.014880359172821045,-0.5320406404497223,-0.1218918894961699,-0.1335509422004559,-0.8271875218276469,0.35826105005853937,-0.06362576498359436,2.0099679694851105
1780771634486696192,0.2646012306213379,-0.12777572870254517,-0.33738115429878235,0.24820281565189362,-0.06320871412754059,-0.3505941927433014,-0.934391975402832,0.042822979390621185,-0.05002531409263611,-0.01682567596435547,-0.5313902962392643,-0.12335143797862906,-0.1326214008689657,-0.8275386483618804,0.358205482757017,-0.06754398867703043,2.012174817931856
1780771634496731392,0.27463626861572266,-0.5375105142593384,-0.4275093376636505,0.35112521052360535,-0.06783920526504517,-0.34733495116233826,-0.9352840781211853,0.05535750836133957,-0.10223475098609924,-0.0036349892616271973,-0.5306051641439996,-0.12426584293247102,-0.1300613997415037,-0.8283116973875521,0.3547276171719501,-0.07240645863853484,2.015118786491778
1780771634506765056,0.2846701145172119,-0.9824640154838562,-0.5231972336769104,0.4735853374004364,-0.07369416952133179,-0.339912474155426,-0.9375653266906738,0.053110070526599884,-0.15792077779769897,0.018925189971923828,-0.5296707465785054,-0.12447485161611643,-0.12539282893472986,-0.8295972790842746,0.3468238290594918,-0.07844036435501764,2.0188898502577137
1780771634516800256,0.2947051525115967,-1.438326120376587,-0.6428653001785278,0.6164072155952454,-0.08100821822881699,-0.32805922627449036,-0.9411773681640625,0.033644936978816986,-0.19810959696769714,0.0407562255859375,-0.5285192108579603,-0.12401614082240538,-0.11845388711768493,-0.8314180975915687,0.33424837716726574,-0.08585954578437831,2.0235948509797366
1780771634526835200,0.30474019050598145,-1.754549503326416,-0.7165725827217102,0.731336772441864,-0.08964066952466965,-0.3122864365577698,-0.9457492828369141,0.02512650191783905,-0.20072931051254272,0.04459571838378906,-0.5270681423031047,-0.12300176581215191,-0.10952585020212377,-0.8337109757785927,0.3175988836222231,-0.09450038382353114,2.0292243741055063
1780771634536870144,0.3147752285003662,-1.9818010330200195,-0.8047972321510315,0.8372696042060852,-0.09929439425468445,-0.2937854826450348,-0.9507001042366028,0.024205893278121948,-0.2052074372768402,0.027543365955352783,-0.5253375126701005,-0.1216869711951478,-0.09920794514149718,-0.8362838770323557,0.29818467192660203,-0.10406613702659409,2.0354712678043425
1780771634546905344,0.324810266494751,-2.2427818775177,-0.8384388089179993,0.9272066354751587,-0.10964059829711914,-0.2726203203201294,-0.9558541178703308,0.01962900161743164,-0.1905297040939331,0.03014916181564331,-0.5232880076346386,-0.11997768871661883,-0.08762585231005991,-0.8391048142521652,0.2761154660519613,-0.11420519552924376,2.04225553135279
1780771634556939008,0.33484411239624023,-2.4187257289886475,-0.8846177458763123,0.9562601447105408,-0.12042161822319031,-0.2491355538368225,-0.9609526991844177,0.008895128965377808,-0.1722206473350525,0.042602479457855225,-0.5210380041330098,-0.11790511288130379,-0.07498018608430326,-0.8420189211445076,0.25178756828755816,-0.12466496194112743,2.0491396314717667
1780771634566974208,0.344879150390625,-2.7522358894348145,-0.8775709867477417,0.9958147406578064,-0.13126564025878906,-0.22305969893932343,-0.9659263491630554,0.018899917602539062,-0.14424987137317657,0.04292219877243042,-0.5187331780614676,-0.11527215534381824,-0.06123034263548142,-0.8449137297724046,0.2249521287972281,-0.13506869323554824,2.0556473502547057
1780771634577009152,0.35491418838500977,-3.2485179901123047,-0.8757397532463074,1.0528450012207031,-0.14190497994422913,-0.19256006181240082,-0.9709704518318176,0.034742504358291626,-0.10050024092197418,0.06914550065994263,-0.5163117119140628,-0.11148822154346606,-0.04566350106551886,-0.8478840697557013,0.19377036608490547,-0.14512017982849032,2.0617850767832335
1780771634587044352,0.36494922637939453,-3.745018720626831,-0.9234377145767212,1.0255545377731323,-0.15251415967941284,-0.15689575672149658,-0.975767970085144,0.031832411885261536,-0.13614927232265472,0.10742086172103882,-0.5139355439218991,-0.10648205357580079,-0.0278851788121115,-0.8507374151533319,0.1575466890901285,-0.1550471805585065,2.066989662061818
1780771634597079296,0.3749842643737793,-4.446323871612549,-0.9714426398277283,0.9555131196975708,-0.16318021714687347,-0.1152823194861412,-0.9798378348350525,0.040652140974998474,-0.2194497287273407,0.1357216238975525,-0.5119066973749946,-0.10012513295256571,-0.0074856826134755226,-0.853153234342343,0.11553921085132421,-0.16502347065888368,2.070293810050234
1780771634607113216,0.38501811027526855,-5.135412216186523,-1.002159595489502,0.880929708480835,-0.1737077534198761,-0.06644918024539948,-0.9825528860092163,0.0745561420917511,-0.21770000457763672,0.1896451711654663,-0.5102551331233147,-0.09201021071963829,0.01605276746833018,-0.8549363138294584,0.0664981753482268,-0.17498415265235676,2.0712509768701035
1780771634617148160,0.3950531482696533,-5.699592590332031,-1.0360016822814941,0.7564032077789307,-0.1841895580291748,-0.01153247058391571,-0.9828230738639832,0.0960090160369873,-0.1743195801973343,0.23048847913742065,-0.5089306572100389,-0.08245791962950827,0.04229837008814727,-0.8558043215653995,0.011532726272873793,-0.18525971684319792,2.0696651940183437
1780771634627183104,0.4050881862640381,-6.225577354431152,-0.9762219786643982,0.5590949654579163,-0.19396279752254486,0.04845069348812103,-0.9798116683959961,0.09273602068424225,-0.10197852551937103,0.22358614206314087,-0.5081456923587767,-0.07136740832225731,0.07071664696798163,-0.8553910552280637,-0.04846966845700954,-0.19543254775164023,2.0647732447805818
1780771634637218304,0.41512322425842285,-6.608180046081543,-0.9600878357887268,0.4481146037578583,-0.20305994153022766,0.11247327923774719,-0.9726851582527161,0.06512050330638885,-0.01580885797739029,0.26338040828704834,-0.5076872049472736,-0.05891784593676163,0.10092623871591257,-0.8535785872877656,-0.11271177528651719,-0.2058064290359744,2.0568035779841054
1780771634647253248,0.4251582622528076,-6.740015983581543,-0.909331202507019,0.30601099133491516,-0.211640402674675,0.1781061291694641,-0.960982084274292,0.04739479720592499,0.03789728879928589,0.2711780071258545,-0.5072752104168567,-0.04570568535347398,0.13198466171885803,-0.8503899416823224,-0.17906147748156395,-0.2167729723597113,2.046342448850399
1780771634657284864,0.43518996238708496,-6.939693927764893,-0.7968528866767883,0.1789262741804123,-0.21928547322750092,0.24395222961902618,-0.9446699023246765,0.02563619613647461,0.059819743037223816,0.274336040019989,-0.5069530064606175,-0.03177590151619276,0.16326465183980615,-0.8457740480340044,-0.24643913670766596,-0.22808968133064578,2.033273840818612
1780771634667320064,0.4452250003814697,-7.022036075592041,-0.7234916090965271,0.05342135578393936,-0.22610189020633698,0.30983173847198486,-0.9235162138938904,0.006268501281738281,0.07191264629364014,0.3087853789329529,-0.5066352172321559,-0.017095652411270923,0.19480662693973705,-0.8396897902542291,-0.3150160718917892,-0.2401042425434328,2.0175060951782076
1780771634677355008,0.4552600383758545,-7.033287048339844,-0.6441874504089355,-0.07837928086519241,-0.2324320375919342,0.3739188313484192,-0.8978641629219055,0.006846100091934204,0.03518456220626831,0.2501285672187805,-0.5063099224078325,-0.0021680589613357277,0.22597172622624542,-0.8322152736870415,-0.3832307637632531,-0.2533113474706248,1.9990679885640548
1780771634687389952,0.46529483795166016,-7.096020698547363,-0.5878991484642029,-0.1522311419248581,-0.238325297832489,0.43631666898727417,-0.8676570653915405,0.0017530471086502075,0.030052930116653442,0.1919369101524353,-0.5058704530966951,0.013113709698653178,0.25690366076664184,-0.823361179582086,-0.45150107129869727,-0.26806574552637824,1.9777993685459703
1780771634697424896,0.4753298759460449,-7.005683898925781,-0.583708643913269,-0.2164391577243805,-0.24417243897914886,0.496236652135849,-0.8331440687179565,-0.0018144994974136353,0.036264568567276,0.12901198863983154,-0.505076580604937,0.02839390807755721,0.2874399887025796,-0.8133079372841597,-0.5192586511538969,-0.2850901346995695,1.9539282226417787
1780771634707459072,0.4853639602661133,-6.732321739196777,-0.5524945259094238,-0.3026789724826813,-0.25019463896751404,0.5516980886459351,-0.7956330180168152,0.011623471975326538,0.0022875070571899414,0.040734946727752686,-0.5040333783630122,0.043065792788530934,0.31674726216348087,-0.802350854563489,-0.5843988145755858,-0.30466935031929854,1.9275071044640546
1780771634717494016,0.49539899826049805,-6.460012435913086,-0.5719367265701294,-0.30983754992485046,-0.25638818740844727,0.6024109721183777,-0.7558876276016235,0.027933597564697266,-0.030908286571502686,0.009976983070373535,-0.5026793032747221,0.056999760894351145,0.34468423702576334,-0.7907320772127497,-0.6465182340576997,-0.32701068036083597,1.8986329577949983
1780771634727528960,0.5054340362548828,-6.061139106750488,-0.563534677028656,-0.29935240745544434,-0.2624910771846771,0.6477364301681519,-0.7152174711227417,0.046396106481552124,-0.07751548290252686,0.0535506010055542,-0.5008602933402901,0.06993901553699587,0.37080967111475316,-0.7789401607040757,-0.7046095924971557,-0.3517463097384101,1.868230953408898
1780771634737563904,0.5154688358306885,-5.8316426277160645,-0.5310618281364441,-0.34183916449546814,-0.2684413492679596,0.6883671283721924,-0.6738620400428772,0.05266684293746948,-0.14115643501281738,0.1262851357460022,-0.49877850071613533,0.08212880307283296,0.39537809700389015,-0.7669101463610339,-0.7592355059228725,-0.379093938877266,1.8355297929500314
1780771634747597824,0.5255029201507568,-5.541752815246582,-0.48001888394355774,-0.39698123931884766,-0.2743585705757141,0.7246469855308533,-0.6321503520011902,0.0470026433467865,-0.15749311447143555,0.22608345746994019,-0.4966449327802409,0.09365663425922818,0.41851316423858576,-0.7545984533236916,-0.8105219487096951,-0.4094760699254417,1.7997187748220362
1780771634757633024,0.5355379581451416,-5.113710880279541,-0.4285699129104614,-0.4488111436367035,-0.2802964746952057,0.7562147378921509,-0.5912470817565918,0.04558578133583069,-0.13216078281402588,0.2561335563659668,-0.49461794892305005,0.10430781778827071,0.43988218859327644,-0.7422779331732118,-0.8575085869821704,-0.44269474395812425,1.7610118972118163
1780771634767667968,0.5455729961395264,-4.601241588592529,-0.4442135989665985,-0.44874030351638794,-0.28629061579704285,0.7828337550163269,-0.552457332611084,0.04744479060173035,-0.057324111461639404,0.265622615814209,-0.4926572679386966,0.1137264674386208,0.4591705752700332,-0.7304229142528337,-0.8992070550597606,-0.47811165914266734,1.7206624357932219
1780771634777703168,0.5556080341339111,-4.080422878265381,-0.38569343090057373,-0.43689242005348206,-0.2920492887496948,0.8047851324081421,-0.5167475938796997,0.056423068046569824,0.040216028690338135,0.2578365206718445,-0.4907431588836704,0.1218665625963872,0.4762087197671868,-0.7194059713771566,-0.9353134265116109,-0.5144139880420738,1.6801728178296345
1780771634787737856,0.5656428337097168,-3.6688058376312256,-0.3597968518733978,-0.394863486289978,-0.2973206043243408,0.8230043053627014,-0.4840087294578552,0.04881599545478821,0.12528365850448608,0.24523919820785522,-0.48890329095174717,0.12904702315308597,0.4912662202751117,-0.7092094275327897,-0.9666798628118798,-0.5508589781528487,1.6399709433567031
1780771634797772032,0.5756769180297852,-3.1996047496795654,-0.36358535289764404,-0.35076260566711426,-0.302087664604187,0.8380677103996277,-0.4542969763278961,0.038797229528427124,0.17891544103622437,0.22021186351776123,-0.48703474028557825,0.1352669906281346,0.5045338040469923,-0.6999612638512869,-0.9937316758782735,-0.5868176372586726,1.6010188002208277
1780771634807806976,0.5857119560241699,-2.8171162605285645,-0.36556434631347656,-0.3472011685371399,-0.3066806197166443,0.8502856492996216,-0.42773985862731934,0.028589189052581787,0.17815673351287842,0.16060423851013184,-0.48524085051584553,0.14041119813133454,0.516153813146053,-0.6916728183583998,-1.016527735262878,-0.6220307703599092,1.5636773956716419
1780771634817841920,0.5957469940185547,-2.448126792907715,-0.34241336584091187,-0.317049115896225,-0.31100186705589294,0.8602551817893982,-0.40402817726135254,0.0035220682621002197,0.17700672149658203,0.11405017971992493,-0.48358108632800284,0.14473213704907079,0.5263444821341403,-0.6842246545103439,-1.0357699696167544,-0.6560235885110777,1.5280690395235565
1780771634827877120,0.6057820320129395,-2.1655354499816895,-0.32855746150016785,-0.2888145446777344,-0.31494569778442383,0.8683546781539917,-0.38310495018959045,-0.015788555145263672,0.1532212495803833,0.055224061012268066,-0.4820301705378025,0.14832752884048175,0.5352069439917987,-0.6776425323628396,-1.0518750398819237,-0.6880644543457644,1.4949103093018536
1780771634837911808,0.6158168315887451,-2.0231144428253174,-0.3277445137500763,-0.2492426335811615,-0.3185407221317291,0.8753410577774048,-0.3637441098690033,-0.023851215839385986,0.12421637773513794,0.025380462408065796,-0.4804874640892415,0.15154501440435994,0.5432881900187535,-0.6715681716910743,-1.066140781551186,-0.7192418856464013,1.462914036646625
1780771634847945984,0.6258509159088135,-1.964806079864502,-0.3307730555534363,-0.19578421115875244,-0.32166609168052673,0.881687581539154,-0.3451923727989197,-0.024662643671035767,0.08463621139526367,0.015648335218429565,-0.4788026016785468,0.1546068060265425,0.5509088362681946,-0.6658409157733033,-1.0794269556228804,-0.7501335105680927,1.431515195683462
1780771634857980928,0.6358859539031982,-1.9966548681259155,-0.3399631083011627,-0.16882343590259552,-0.3244137465953827,0.8877903819084167,-0.3264719247817993,-0.018374890089035034,0.026455163955688477,0.011774688959121704,-0.4769173858932848,0.15774473088558877,0.5584627453106157,-0.6601406757533971,-1.092521730380239,-0.7822360745499549,1.3990413804100446
1780771634868016128,0.645920991897583,-1.8871089220046997,-0.3213220238685608,-0.12185618281364441,-0.3267771601676941,0.8935285210609436,-0.30793434381484985,-0.016957610845565796,-0.0062146782875061035,0.028439104557037354,-0.4748968913652803,0.1608955320791136,0.5658139704776635,-0.6545534080184742,-1.1051432074818863,-0.815076629169604,1.3659284061146804
1780771634878051072,0.6559560298919678,-1.6922177076339722,-0.2820192575454712,-0.07299969345331192,-0.3285526633262634,0.8985944986343384,-0.290828138589859,-0.011306315660476685,-0.007557570934295654,0.006572157144546509,-0.47288717854721046,0.16388988844161853,0.5724736162337393,-0.6494549565822401,-1.1165557546152334,-0.846229876356338,1.3345543533062079
1780771634888085760,0.6659908294677734,-1.5565158128738403,-0.21133626997470856,-0.0451025553047657,-0.3297621011734009,0.9029956459999084,-0.27541977167129517,-0.02282276749610901,0.008045732975006104,0.02322247624397278,-0.4710071781356935,0.1667391607592285,0.5783495145351665,-0.6448738479590536,-1.1266914975250726,-0.8749529936703704,1.305453322877388
1780771634898119936,0.6760249137878418,-1.4281362295150757,-0.11548551917076111,-0.07104893028736115,-0.33071690797805786,0.9068538546562195,-0.2612324357032776,-0.04394739866256714,0.04215127229690552,0.06805616617202759,-0.46946067629622124,0.16960595546827156,0.5836245372438472,-0.6404864333130924,-1.13575790342608,-0.9022459184807482,1.2770584048681557
1780771634908154880,0.6860599517822266,-1.0865947008132935,-0.15467233955860138,-0.07102203369140625,-0.3316415548324585,0.9098953008651733,-0.2492077797651291,-0.050148606300354004,0.12809908390045166,0.04344302415847778,-0.4682261873229559,0.17201739285147066,0.5880528291029694,-0.6366853365323065,-1.1430316592359249,-0.926376112700821,1.2518388697941996
1780771634918190080,0.6960949897766113,-0.6754904985427856,-0.3063986301422119,-0.22866520285606384,-0.33349981904029846,0.9115670919418335,-0.2404651790857315,-0.04717645049095154,0.28218913078308105,-0.10758784413337708,-0.4672233631216302,0.17289644080352254,0.5915016773224112,-0.6339834887937864,-1.1470796103251575,-0.9460917247973374,1.2327827801658793
1780771634928225024,0.7061300277709961,-0.35748323798179626,-0.38167980313301086,-0.37231558561325073,-0.33712825179100037,0.9117815494537354,-0.23451846837997437,-0.05184882879257202,0.46688055992126465,-0.26429128646850586,-0.4667293534250838,0.17212415619453159,0.5942339919138548,-0.6319991399248825,-1.1476014446458644,-0.9630053826211135,1.2179927699501867
1780771634938259968,0.7161648273468018,-0.21521823108196259,-0.612818717956543,-0.5252893567085266,-0.3423382043838501,0.910859227180481,-0.2305212765932083,-0.017753958702087402,0.501799464225769,-0.3879479765892029,-0.4664479296674309,0.16983177779724717,0.5965706390354248,-0.6306242809658942,-1.1453611708544453,-0.9781652697424652,1.2067785658101475
1780771634948293888,0.7261989116668701,-0.3254997432231903,-0.7831318378448486,-0.6238268613815308,-0.3493349254131317,0.9094400405883789,-0.22557462751865387,0.013748407363891602,0.3483266830444336,-0.3843802213668823,-0.46591494552170637,0.16642864505360422,0.5995950213355385,-0.6290552803144878,-1.1419354201576724,-0.9974315708639143,1.1935392491181627
1780771634958329088,0.7362339496612549,-0.39663252234458923,-0.8269180059432983,-0.5368757247924805,-0.3563961088657379,0.9082461595535278,-0.21925024688243866,-0.0015140175819396973,0.1729305386543274,-0.3121066093444824,-0.46496552443554806,0.16301547531184513,0.60315904481179,-0.6272417144106176,-1.1390734371999172,-1.0192847145680592,1.17846202501231
1780771634968364032,0.7462689876556396,-0.3462287187576294,-0.8812581896781921,-0.5798215866088867,-0.36325544118881226,0.9070567488670349,-0.21282249689102173,-0.041422873735427856,0.08705323934555054,-0.2529977858066559,-0.46378784887244145,0.15950207457433924,0.6067518773711832,-0.6255493784829953,-1.1362396345465373,-1.0408271747854332,1.1642219846903024
1780771634978398976,0.7563040256500244,-0.31135836243629456,-0.82234787940979,-0.6262918710708618,-0.3705846667289734,0.9055208563804626,-0.20663756132125854,-0.1136225163936615,0.10348182916641235,-0.17634278535842896,-0.46280658284254356,0.15572990531948333,0.6102699505937322,-0.6238019612821922,-1.132605628319365,-1.0621378169342106,1.150215245346032
1780771634988433920,0.7663388252258301,-0.20414027571678162,-0.7342254519462585,-0.6183910965919495,-0.37783655524253845,0.903719961643219,-0.20131996273994446,-0.15768587589263916,0.06988227367401123,-0.03567950427532196,-0.4621565238182506,0.15199019401672267,0.6133832405618809,-0.6221505644196039,-1.1283803832106702,-1.081236503010259,1.1377545004827685
1780771634998467840,0.7763729095458984,-0.040177978575229645,-0.6345310807228088,-0.5680482983589172,-0.38462647795677185,0.9016720056533813,-0.1976112723350525,-0.16307252645492554,-0.006332039833068848,0.07352679967880249,-0.46183042089350435,0.148298934312816,0.6157936273426793,-0.6209012663003303,-1.1236206774447108,-1.0961899438536338,1.1287684111731122
1780771635008503040,0.7864079475402832,0.21469053626060486,-0.5348678231239319,-0.47711867094039917,-0.3904753029346466,0.8994892835617065,-0.19608204066753387,-0.1572389304637909,-0.03520095348358154,0.12158864736557007,-0.46168673197646193,0.14466770049828226,0.6172764678303728,-0.6203921425595581,-1.1185992029530183,-1.1054202472627848,1.1250756887735256
1780771635018537984,0.796442985534668,0.2740579843521118,-0.43575647473335266,-0.4521792531013489,-0.3956051170825958,0.8971301317214966,-0.19660723209381104,-0.14373210072517395,-0.03227710723876953,0.11945876479148865,-0.46184419386103975,0.1411211490515395,0.6178844583277212,-0.6204866840682558,-1.1132296751509794,-1.1095688380111763,1.1257957298009784
1780771635028572928,0.8064780235290527,0.4083092510700226,-0.4152756929397583,-0.41134604811668396,-0.4003220796585083,0.8947570323944092,-0.1978689730167389,-0.11325821280479431,0.01680302619934082,0.123299241065979,-0.4621286654663909,0.1377276668558078,0.6181396292987763,-0.6207830789461442,-1.107886850638131,-1.111739631560341,1.1280366914968682
1780771635038608128,0.8165130615234375,0.42747893929481506,-0.4257395267486572,-0.4808199405670166,-0.4050581753253937,0.8921319842338562,-0.20007085800170898,-0.040956199169158936,0.06991934776306152,-0.019030079245567322,-0.46247335035920123,0.13405788684996683,0.6180558676220133,-0.6214127279551002,-1.1020424891068763,-1.112015570676297,1.1324576244178217
1780771635048642048,0.8265469074249268,-0.027477629482746124,-0.5259917974472046,-0.5746241807937622,-0.41077232360839844,0.8894934058189392,-0.2001684010028839,0.015859633684158325,0.13299793004989624,-0.11283507943153381,-0.4628230837685905,0.13040655948193697,0.6187971615213156,-0.6211915091699209,-1.0962353481863947,-1.1173621085236074,1.1317675657268156
1780771635058676992,0.8365819454193115,-0.28285375237464905,-0.5872661471366882,-0.5846778750419617,-0.4170987606048584,0.8874056339263916,-0.1963157057762146,0.0696408748626709,0.1254575252532959,-0.1185188889503479,-0.46280000432441454,0.12725188843828827,0.6210065224837011,-0.6196563572860321,-1.0916864857754152,-1.130887121948676,1.1228396447997508
1780771635068711936,0.8466169834136963,-0.3868059813976288,-0.6254377365112305,-0.5705364942550659,-0.4233979284763336,0.8856087923049927,-0.19086964428424835,0.11146250367164612,-0.002338588237762451,-0.16971080005168915,-0.46250327272909453,0.12434073255049684,0.6237824625105585,-0.6176774955847738,-1.0878031610900365,-1.1472736627286941,1.1111708851245836
1780771635078747136,0.856652021408081,-0.49005967378616333,-0.622403085231781,-0.5608335137367249,-0.42961689829826355,0.8840339183807373,-0.18415622413158417,0.10019493103027344,-0.0679481029510498,-0.10846155881881714,-0.4619983555837887,0.12165995165369088,0.6269934163332453,-0.6153338267429977,-1.084423113432913,-1.1658363042999957,1.097345460498454
1780771635088782080,0.8666870594024658,-0.376745343208313,-0.5371792316436768,-0.4933839440345764,-0.43537718057632446,0.8825258612632751,-0.17774908244609833,0.05303773283958435,-0.0611453652381897,0.02517642080783844,-0.46153911922342067,0.11921305328053339,0.6300108769653436,-0.6130710562187258,-1.0812065430651892,-1.1831856740724056,1.08429742209444
1780771635098816000,0.8767209053039551,-0.2500406801700592,-0.47327759861946106,-0.4212445020675659,-0.4402516186237335,0.8810924887657166,-0.17278523743152618,0.009358644485473633,-0.025440514087677002,0.1027473658323288,-0.46113834273757054,0.11695179810710753,0.6323999192780112,-0.611346192703817,-1.0781672150671684,-1.1967987632328723,1.074611949416907
1780771635108850944,0.8867559432983398,-0.10806141793727875,-0.40119463205337524,-0.4148539900779724,-0.4446805417537689,0.8795813918113708,-0.16910335421562195,-0.01869833469390869,0.01455312967300415,0.10051512718200684,-0.4608917678748465,0.11472513385224169,0.6342605685987813,-0.6100250219218993,-1.0749815521541164,-1.207404214207874,1.0676098809604058
1780771635118885888,0.8967909812927246,0.2591879367828369,-0.40450799465179443,-0.39155104756355286,-0.4489169120788574,0.8776331543922424,-0.16802947223186493,-0.0012784302234649658,0.08893489837646484,-0.05017119646072388,-0.46090924370342745,0.11203673245052222,0.6351637860562465,-0.6095715897844514,-1.0709018111907882,-1.2126397417442056,1.066188302321366
1780771635128921088,0.9068260192871094,0.6451050639152527,-0.46400168538093567,-0.4030330181121826,-0.45312756299972534,0.8750719428062439,-0.17007197439670563,0.02664443850517273,0.15344667434692383,-0.21725712716579437,-0.46101278679406993,0.10842224792019126,0.634987110885178,-0.6103304080533984,-1.0655844977396143,-1.211737144338404,1.0721041955378565
1780771635138956032,0.9168610572814941,0.5840073227882385,-0.5056422352790833,-0.4163624048233032,-0.4575957953929901,0.8720540404319763,-0.17357389628887177,0.012359559535980225,0.15322977304458618,-0.3047586679458618,-0.46108538865179827,0.10410605876979317,0.6343303428480859,-0.611708443415323,-1.0593836868794433,-1.2082462233829905,1.0816748012804012
1780771635148989952,0.9268949031829834,0.19431841373443604,-0.4800633192062378,-0.31078270077705383,-0.4616760313510895,0.8696966767311096,-0.17459340393543243,-0.05191954970359802,0.027443766593933105,-0.22738413512706757,-0.4608384318143977,0.10054577285070573,0.6345028338107338,-0.6123108870095992,-1.0545875025859863,-1.2092467730081555,1.086213759049594
1780771635159024896,0.9369299411773682,-0.151825949549675,-0.4091096818447113,-0.21493953466415405,-0.46472904086112976,0.8684259057044983,-0.17280980944633484,-0.10317254066467285,-0.19726812839508057,-0.12281398475170135,-0.4602612386300244,0.09829460900879275,0.6355574434024704,-0.6120166987716209,-1.0520187597412922,-1.2147895459077298,1.0849011201366792
1780771635169060096,0.9469649791717529,-0.5386537909507751,-0.3467874526977539,-0.17335639894008636,-0.4670206904411316,0.8681477308273315,-0.16796138882637024,-0.10416150093078613,-0.3034811019897461,-0.07189147174358368,-0.45945931209337265,0.09734772793788124,0.6376070283748712,-0.6106371379155854,-1.0514578793311087,-1.225555553283772,1.0768710861565263
1780771635179095040,0.9570000171661377,-0.59767746925354,-0.29057663679122925,-0.16782155632972717,-0.46905025839805603,0.86831134557724,-0.16132912039756775,-0.06433594226837158,-0.19739776849746704,-0.02031145989894867,-0.45868436096400866,0.09718471796829554,0.6402269706678294,-0.6085007249811321,-1.0517877510560287,-1.2395227729270388,1.0644456278927774
1780771635189129984,0.9670350551605225,-0.37469151616096497,-0.2726929783821106,-0.16251467168331146,-0.4709293246269226,0.8683243989944458,-0.15568631887435913,-0.004076778888702393,-0.005378901958465576,-0.044158026576042175,-0.45804612813772233,0.09694540167912043,0.6424627852225067,-0.6066604019256514,-1.0518140059675791,-1.2515133613691583,1.0538635096456888
1780771635199163904,0.9770689010620117,-0.03262818232178688,-0.25299984216690063,-0.17089004814624786,-0.47278857231140137,0.8678543567657471,-0.15264251828193665,0.030833005905151367,0.13017725944519043,-0.05557894706726074,-0.4575987418012182,0.09607548404702644,0.6437765483175841,-0.6057430506093373,-1.050867177510911,-1.2585050336122456,1.048869244471799
1780771635209198848,0.9871039390563965,0.18162739276885986,-0.23302532732486725,-0.1893303096294403,-0.47471025586128235,0.866852879524231,-0.15236906707286835,0.02341631054878235,0.16754043102264404,-0.04355376958847046,-0.45741551296489613,0.09454207332991185,0.6441096644843816,-0.6057686497032995,-1.0488549340246507,-1.2602112073939586,1.0496734150208287
1780771635219234048,0.9971389770507812,0.2413615584373474,-0.21564394235610962,-0.18873269855976105,-0.47671735286712646,0.8656495809555054,-0.15294258296489716,-0.0011726319789886475,0.15371382236480713,-0.01536184549331665,-0.45735331650630456,0.0927991436566152,0.6441405345563457,-0.6060522143069689,-1.0464464058375367,-1.2603457036406291,1.052142720803802
1780771635229268992,1.007174015045166,0.21032801270484924,-0.20562511682510376,-0.14349250495433807,-0.47848355770111084,0.8644400835037231,-0.1542622596025467,-0.0068069398403167725,0.06915366649627686,-0.0420573353767395,-0.45731685941652955,0.09102221338522713,0.6438818423869285,-0.6066238023292325,-1.0440355739282836,-1.2589194249382583,1.0561846029776987
1780771635239302912,1.0172078609466553,-0.07012522220611572,-0.2316185086965561,-0.13324813544750214,-0.48005300760269165,0.8636254668235779,-0.15394806861877441,-0.012988924980163574,-0.04026132822036743,-0.03902982175350189,-0.4570923159822076,0.08971457749407988,0.6441872892545758,-0.6066634752728381,-1.0424174877267158,-1.2604678580974387,1.0568946438390527
1780771635249337856,1.02724289894104,-0.3404478132724762,-0.2188587784767151,-0.09661661088466644,-0.481361985206604,0.8634416460990906,-0.1508619785308838,-0.03551429510116577,-0.13410192728042603,-0.031022801995277405,-0.4565990850875278,0.08919883341778263,0.6454553241601689,-0.6057626359315352,-1.0420529390820346,-1.26708579871621,1.0518473282391525
1780771635259373056,1.0372779369354248,-0.5248687267303467,-0.20164796710014343,-0.09120959043502808,-0.48246586322784424,0.8636379241943359,-0.1461370289325714,-0.046617329120635986,-0.178564190864563,-0.07008002698421478,-0.4560031662478127,0.0892450748929856,0.6472764487147757,-0.604259458107797,-1.0424421215405433,-1.276684674563255,1.0431719627834835
1780771635269408000,1.0473129749298096,-0.5302451252937317,-0.18262767791748047,-0.08188720047473907,-0.48348870873451233,0.8639970421791077,-0.14052613079547882,-0.04773074388504028,-0.09715145826339722,-0.03739134967327118,-0.4554054408262458,0.08962721210004988,0.6493873268604436,-0.6023859440332359,-1.0431549575544206,-1.2879391759530454,1.032345920788995
1780771635279442944,1.0573480129241943,-0.34036365151405334,-0.16241468489170074,-0.07399225234985352,-0.4844178855419159,0.864224374294281,-0.13585121929645538,-0.017260581254959106,0.04147624969482422,-0.009687051177024841,-0.45488708090830793,0.08986125878906354,0.6511523201916347,-0.6008355411711728,-1.0436066325712667,-1.2973776110091246,1.0234152267399357
1780771635289476864,1.0673818588256836,-0.050457246601581573,-0.15386301279067993,-0.05105764791369438,-0.4851701557636261,0.8641822338104248,-0.13341328501701355,0.014131367206573486,0.1259605884552002,-0.0032901763916015625,-0.4544772269704947,0.08962794665856456,0.6521197660531408,-0.6001309740329592,-1.0435229531770926,-1.30244641914692,1.019364307151282
1780771635299511808,1.0774168968200684,0.15075868368148804,-0.1575167328119278,-0.030919089913368225,-0.48574399948120117,0.8638991713523865,-0.1331576704978943,0.012156963348388672,0.13861852884292603,0.020410478115081787,-0.4541205832212951,0.08888878245678411,0.6523189023471642,-0.6002943563656907,-1.042960603024855,-1.3032378600988903,1.0202564199158497
1780771635309547008,1.0874519348144531,0.2023310661315918,-0.14188742637634277,-0.01154565904289484,-0.4861154556274414,0.8635360598564148,-0.13415464758872986,-0.010268300771713257,0.10400861501693726,0.04775939881801605,-0.45378549524387557,0.08792703396208242,0.6520671060009453,-0.6009627328704824,-1.0422401770929952,-1.3015259162805521,1.023954950479725
1780771635319581952,1.097486972808838,-0.08353317528963089,-0.15321877598762512,0.011666452512145042,-0.48634856939315796,0.8634089827537537,-0.13412734866142273,-0.02529388666152954,0.07311445474624634,0.04042309522628784,-0.4533599279100252,0.08729798883261844,0.652162087146086,-0.6012724471011789,-1.0419882371792044,-1.3017010120589456,1.0254332449134278
1780771635329616896,1.1075220108032227,-0.20298659801483154,-0.16289590299129486,-0.0011244438355788589,-0.48650896549224854,0.8636332750320435,-0.13208633661270142,-0.016588568687438965,0.019652247428894043,0.029425203800201416,-0.45276636433511475,0.08717972207173215,0.6529598196724962,-0.6008709720793084,-1.0424329748945829,-1.3056885533458564,1.0226333163356958
1780771635339650816,1.117555856704712,-0.29057636857032776,-0.16351522505283356,-0.006784992758184671,-0.48676633834838867,0.8639370799064636,-0.12911711633205414,-5.0067901611328125e-05,-0.04576081037521362,-0.022402644157409668,-0.45213511766502296,0.08723878698953338,0.6540877877421846,-0.6001102865351239,-1.0430358467319714,-1.3115125032785826,1.017791392697281
1780771635349686016,1.1275908946990967,-0.2806342840194702,-0.09699451923370361,0.010966041125357151,-0.4869231879711151,0.8643253445625305,-0.1258872151374817,-0.017089873552322388,-0.028052151203155518,-0.0064827799797058105,-0.4515685923806802,0.08752416567601684,0.6552830809936504,-0.59919066257249,-1.0438073617539425,-1.317799990800854,1.012042030182244
1780771635359720960,1.1376259326934814,-0.12677597999572754,-0.08885257691144943,0.03654197230935097,-0.48681676387786865,0.8646888732910156,-0.12378428876399994,-0.027297616004943848,-0.0210762619972229,-0.0010325834155082703,-0.45112238128115245,0.0877820570447279,0.6560504281995583,-0.5986491003494581,-1.0445306966667853,-1.3218002063797998,1.0084256535318454
1780771635369755904,1.1476609706878662,-0.10578548163175583,-0.08269774168729782,0.041583605110645294,-0.48660096526145935,0.8650181293487549,-0.1223243772983551,0.0015240609645843506,-0.029019594192504883,-0.03075176477432251,-0.45066546531030305,0.08790664386009073,0.6565898522197737,-0.5983835660581944,-1.0451865078055234,-1.3245141858129053,1.006317392948512
1780771635379791104,1.157696008682251,0.010087056085467339,-0.04978200048208237,0.06389104574918747,-0.48620226979255676,0.8653415441513062,-0.1216207891702652,0.011653870344161987,0.0185391902923584,-0.02168978750705719,-0.45027977771384536,0.08800839163383643,0.6568440674323928,-0.5983800132386642,-1.0458314026703228,-1.32568174016244,1.005676902682695
1780771635389826048,1.1677310466766357,0.09899535775184631,-0.07595022767782211,0.0787741169333458,-0.48565804958343506,0.8656169772148132,-0.12183409929275513,0.004716277122497559,0.04272347688674927,0.011345207691192627,-0.44987894583109006,0.08791422725321305,0.6567754858617025,-0.5987703964639282,-1.0463812323856418,-1.3250046956280384,1.0072053594612245
1780771635399859968,1.177764892578125,0.01917828992009163,-0.01698956824839115,0.06436668336391449,-0.4850962460041046,0.8658793568611145,-0.12220755964517593,-0.027965277433395386,0.048503577709198,-0.0016328096389770508,-0.44953411350122896,0.08784453298105467,0.6566426418180716,-0.599185223078992,-1.0469055457891263,-1.3240073283438465,1.0089234411987478
1780771635409894912,1.1877999305725098,-0.03165240213274956,0.030281007289886475,0.06846848875284195,-0.48450833559036255,0.8662124276161194,-0.12217948585748672,-0.06474700570106506,0.042662084102630615,-0.00617748498916626,-0.44936982253218877,0.08811910616112106,0.6566165409241523,-0.5992967184557072,-1.0475716862877436,-1.3237743844546013,1.0090570624931279
1780771635419929856,1.1978349685668945,-0.08978281170129776,0.02635803632438183,0.04081368446350098,-0.48401913046836853,0.866543710231781,-0.12176812440156937,-0.03896060585975647,-0.012097299098968506,-0.0042542219161987305,-0.4492810063609959,0.08852220912243883,0.6567189324895357,-0.5991916701942593,-1.0482351209600247,-1.3243339023990035,1.0080729117882918
1780771635429965056,1.2078700065612793,-0.08143965899944305,0.0005954164080321789,0.03492650017142296,-0.4836524724960327,0.8668403029441833,-0.1211131364107132,0.015741705894470215,-0.02658456563949585,-0.022044837474822998,-0.4491747368292109,0.0888900749031853,0.6569185548201679,-0.5989981053823387,-1.0488296340955587,-1.3254284720089975,1.0066301542511207
1780771635440000000,1.217905044555664,-0.1033010184764862,-0.01733231730759144,0.026117296889424324,-0.4834153950214386,0.867091715335846,-0.1202557310461998,0.031816303730010986,-0.03829538822174072,-0.01232784241437912,-0.44901652498000255,0.08916655938066873,0.6572073174087332,-0.5987587106972349,-1.0493341574122885,-1.3269824862924653,1.0049449580525225
1780771635450033920,1.2279388904571533,-0.11639311909675598,-0.0004963469691574574,0.022189665585756302,-0.48320046067237854,0.8673505783081055,-0.1192488744854927,0.01507607102394104,-0.06563854217529297,0.0011153221130371094,-0.448849337544337,0.08946341988973297,0.6575498911302283,-0.5984636448906845,-1.0498540635208278,-1.328841439365367,1.0029391567113062
1780771635460068864,1.237973928451538,-0.0767596885561943,0.046650927513837814,0.022193128243088722,-0.4829927682876587,0.8675693273544312,-0.11849626153707504,-0.0008023679256439209,-0.07135051488876343,-0.004733733832836151,-0.44882142084986104,0.08982766232085189,0.6577863328228731,-0.5981700374217366,-1.0502936676511887,-1.3302106385400625,1.0010842436525091
1780771635470104064,1.2480089664459229,0.033167872577905655,0.04939451441168785,0.026543669402599335,-0.48269227147102356,0.8677244186401367,-0.11858686059713364,0.013942182064056396,-0.04286462068557739,-0.006321623921394348,-0.44890559426169324,0.09011939739380614,0.6577119905579557,-0.5981449319984923,-1.050605590904306,-1.3298895589443573,1.000843218018603
1780771635480139008,1.2580440044403076,0.1485043168067932,0.011622900143265724,0.011447806842625141,-0.48253342509269714,0.8676820397377014,-0.11953753978013992,0.05907154083251953,-0.021765410900115967,-0.03500346839427948,-0.44901031421861803,0.09005470655209474,0.6573594002860801,-0.5984633955642281,-1.0505204355541147,-1.3279561796931396,1.002702224304391
1780771635490173952,1.2680790424346924,0.18238265812397003,0.004874982871115208,0.030218563973903656,-0.48230692744255066,0.8675963282585144,-0.12106440961360931,0.05689191818237305,-0.01803278923034668,-0.033720724284648895,-0.4490390749514362,0.08977586690139952,0.6568166326847483,-0.5990793602286985,-1.0503479856304216,-1.324866233916726,1.0061708697247165
1780771635500207872,1.2781128883361816,0.24887940287590027,0.0028520459309220314,0.022217096760869026,-0.48206570744514465,0.8674632906913757,-0.12296447902917862,0.018045872449874878,-0.011521399021148682,-0.011145010590553284,-0.449073342661294,0.08939671238627689,0.6561447928521073,-0.5998462036732239,-1.0500805196186114,-1.3210438773682691,1.0105123895115482
1780771635510242816,1.2881479263305664,0.19497542083263397,0.01545492373406887,0.018545662984251976,-0.48188596963882446,0.8672588467597961,-0.12509198486804962,-0.014573991298675537,0.015507876873016357,-0.012633860111236572,-0.4491678502858641,0.08896556242580173,0.655392352770849,-0.6006614876690483,-1.0496697030737177,-1.3168138907335545,1.015231075392312
1780771635520278016,1.2981829643249512,0.04958732798695564,0.0109714912250638,0.0010713323717936873,-0.481789767742157,0.8671628832817078,-0.12612339854240417,-0.02507665753364563,0.031335651874542236,-0.005453169345855713,-0.4492173550389348,0.08876748357997265,0.6550256762094192,-0.6010535968190881,-1.0494769768052374,-1.3147607920855615,1.0174986237883856
1780771635530312960,1.308218002319336,-0.04400574043393135,0.0408036895096302,0.003459655214101076,-0.48174118995666504,0.8671604990959167,-0.12632475793361664,-0.017343223094940186,-0.0384405255317688,-0.028078898787498474,-0.4493285577342123,0.08886196956269349,0.6549360051655713,-0.6010541991096787,-1.0494722533321847,-1.314344940857316,1.0175862695144486
1780771635540348160,1.3182530403137207,-0.10995172709226608,-0.006686598528176546,-0.011764837428927422,-0.48175379633903503,0.8672405481338501,-0.12572690844535828,0.013522595167160034,-0.0784374475479126,-0.034230947494506836,-0.4493517803577485,0.08906605865719071,0.6551364595257205,-0.6007882595707643,-1.0496330241948855,-1.3155128522124004,1.016075440858163
1780771635550381824,1.32828688621521,-0.11786584556102753,0.01240613590925932,-0.04395712912082672,-0.4819793999195099,0.8672712445259094,-0.12464524060487747,0.018569976091384888,-0.059379398822784424,-0.018115997314453125,-0.4493681664030437,0.08925436609356172,0.655523483722375,-0.6003256233862313,-1.0496946055104939,-1.317729631015301,1.0135392777102312
1780771635560417024,1.3383219242095947,-0.05357074737548828,0.031773973256349564,-0.08025974035263062,-0.48251616954803467,0.867056131362915,-0.124063640832901,-0.007535070180892944,-0.019689857959747314,-0.01234995573759079,-0.44961547691340675,0.0893021689278614,0.6557387455772864,-0.5998981098707501,-1.0492627238901848,-1.3191295792973794,1.0116199478630985
1780771635570451968,1.3483569622039795,0.0082015385851264,0.04613400250673294,-0.10154318809509277,-0.48324334621429443,0.8666490912437439,-0.12407682090997696,-0.02411136031150818,-0.004085123538970947,0.01633448898792267,-0.45000771220826963,0.08917679784307549,0.6557507820999159,-0.5996093287164753,-1.0484462264086192,-1.319466933939667,1.010763387904185
1780771635580486912,1.3583920001983643,0.02845354564487934,0.05148083344101906,-0.1377379596233368,-0.4842298924922943,0.8660362958908081,-0.12450960278511047,-0.010994136333465576,-0.019249677658081055,-0.0005057007074356079,-0.45054946727119033,0.08888584332557448,0.6556252794511315,-0.599383057260454,-1.0472193591313788,-1.3191192584773355,1.0105711232835586
1780771635590522112,1.368427038192749,0.010959241539239883,0.04637422412633896,-0.1431441754102707,-0.4853915274143219,0.8653275966644287,-0.12491236627101898,0.011529862880706787,-0.048097431659698486,-0.012874476611614227,-0.45114285631612044,0.08852789115241728,0.6555201223827608,-0.5991045089857747,-1.0458035729295108,-1.3189181464814739,1.0102330065241536
1780771635600555776,1.3784608840942383,0.006596983876079321,0.02125435508787632,-0.14994694292545319,-0.486611932516098,0.8646070957183838,-0.12515409290790558,0.03786623477935791,-0.05184769630432129,-0.01313626766204834,-0.4516967116088566,0.08813255787611968,0.6554812024150254,-0.5987881359336271,-1.0443678897461897,-1.3190575792251105,1.009675378475406
1780771635610590976,1.388495922088623,0.06632024049758911,0.024059996008872986,-0.14599081873893738,-0.4878902733325958,0.8638193011283875,-0.12561550736427307,0.036031752824783325,-0.011982142925262451,-0.010691225528717041,-0.4522490062708129,0.08762138502113484,0.6553737373596644,-0.5985637368246877,-1.042802011938796,-1.3188025916940114,1.0096822834783448
1780771635620625920,1.3985309600830078,0.12914766371250153,-0.0036260937340557575,-0.14633330702781677,-0.4891203045845032,0.8629896640777588,-0.12653140723705292,0.01615890860557556,0.04435896873474121,-0.00014704465866088867,-0.45275670146250724,0.08695297117110878,0.6551133297021559,-0.5985625364597655,-1.0411576466224297,-1.3176540301864752,1.0108958541994695
1780771635630661120,1.4085659980773926,0.18714013695716858,-0.019039137288928032,-0.14313697814941406,-0.4904101490974426,0.8620598316192627,-0.1278706043958664,-0.0029828250408172607,0.056626081466674805,-0.011930406093597412,-0.4532246573819459,0.08606039440332251,0.6547200222059167,-0.5987677122009685,-1.039320013979517,-1.3157332240054824,1.0132793568007206
1780771635640696064,1.4186010360717773,0.09058962762355804,0.003863114630803466,-0.13944503664970398,-0.4916410744190216,0.8611730933189392,-0.12911146879196167,-0.026104837656021118,0.03579944372177124,-0.011193081736564636,-0.453703620988294,0.08525488764229952,0.654351486370755,-0.5989229086826399,-1.0375730030146453,-1.313982022471639,1.0153460831692798
1780771635650729984,1.4286348819732666,0.013353955931961536,-0.05334211885929108,-0.1288033127784729,-0.4928221106529236,0.8604410886764526,-0.12949015200138092,-0.018683046102523804,0.006181955337524414,0.025303170084953308,-0.4540596153089609,0.0846258231052711,0.6542884635842949,-0.5988113837576794,-1.0361347025723395,-1.3138519630222192,1.0157437246336427
1780771635660765440,1.4386703968048096,-0.0382317416369915,-0.08462879806756973,-0.12751248478889465,-0.494027316570282,0.8598241806030273,-0.12899383902549744,0.008797824382781982,-0.029303550720214844,0.02242642641067505,-0.454205255459625,0.08402570098284828,0.6545553948550492,-0.5984935548466804,-1.034925265520437,-1.3153919424441125,1.014786248532315
1780771635670800384,1.4487054347991943,-0.0005978118861094117,-0.04880209639668465,-0.13225476443767548,-0.4952419102191925,0.8592127561569214,-0.12840895354747772,-0.012616336345672607,-0.015493333339691162,0.01196916401386261,-0.4543639234582908,0.08345990704150087,0.6548511007959327,-0.5981286532780047,-1.033728945279718,-1.3170978057500389,1.0135888342305082
1780771635680835584,1.458740472793579,0.05858588218688965,-0.054665710777044296,-0.12002286314964294,-0.4964087903499603,0.8585280776023865,-0.12848277390003204,-0.017324060201644897,0.00649261474609375,0.0058478862047195435,-0.45460879765003315,0.08281488185875062,0.6549048088635522,-0.5979733978933802,-1.0323921430282939,-1.3175296163250565,1.0136376237893183
1780771635690870528,1.4687755107879639,0.06281392276287079,-0.11287255585193634,-0.10826687514781952,-0.4974808096885681,0.8578827381134033,-0.1286466121673584,0.015425175428390503,0.0033842921257019043,0.006179586052894592,-0.45468361157056514,0.08202670321829089,0.6549414574440704,-0.5979850278720004,-1.0311350203217287,-1.3177436921020642,1.0144134906222992
1780771635700904448,1.4788093566894531,0.07511239498853683,-0.09617666155099869,-0.09589595347642899,-0.4985155165195465,0.857275664806366,-0.12868854403495789,0.02154099941253662,-0.008230865001678467,0.003322303295135498,-0.45467761214831415,0.08121656931872172,0.6550264068819341,-0.5980071428167602,-1.029954670267726,-1.318167977166096,1.0151521195205355
1780771635710939392,1.488844394683838,0.11285018920898438,-0.13070401549339294,-0.06851626187562943,-0.4993523061275482,0.8567342162132263,-0.12904997169971466,0.020790934562683105,0.01930338144302368,0.006292998790740967,-0.454617994304948,0.08039718314185769,0.6549895472750148,-0.5982035871709076,-1.028903947314966,-1.3178949943537028,1.016703681910996
1780771635720974336,1.4988794326782227,0.04860595241189003,-0.20172706246376038,-0.05076763033866882,-0.5000701546669006,0.8563421368598938,-0.12887291610240936,0.04075002670288086,0.017498314380645752,0.014050468802452087,-0.45425706407815086,0.07950900807254137,0.6551655211415991,-0.5984038127043765,-1.028144269901903,-1.3185747637945557,1.0179273494380334
1780771635731009536,1.5089144706726074,-0.0370682068169117,-0.2037702351808548,-0.059621576219797134,-0.5007970929145813,0.856051504611969,-0.12797695398330688,0.0235784649848938,-0.018221914768218994,-0.0015549063682556152,-0.4537585610634372,0.07868947257791113,0.6556061975465467,-0.5984075909736477,-1.0275816944373644,-1.3206042482256561,1.0179332074507383
1780771635741044480,1.5189495086669922,-0.10506775975227356,-0.20769506692886353,-0.058005571365356445,-0.5015671849250793,0.855853259563446,-0.12627503275871277,-0.015659987926483154,-0.007037460803985596,-0.007391974329948425,-0.45323149650132155,0.0780577045181629,0.6563303140788707,-0.5980958353699847,-1.0271983328563679,-1.3241609845739786,1.0161787296725857
1780771635751079680,1.528984546661377,-0.1366693675518036,-0.2208351045846939,-0.06260138005018234,-0.5023472905158997,0.8557043671607971,-0.12416554242372513,-0.014238953590393066,-0.023779988288879395,8.106976747512817e-05,-0.4526668781135039,0.07750234677319869,0.6571990689174185,-0.5976415032503729,-1.02691050434602,-1.3284822730855088,1.0136088234613114
1780771635761113344,1.5390183925628662,-0.09901998937129974,-0.21626833081245422,-0.07752148061990738,-0.5032221674919128,0.8555023670196533,-0.12199654430150986,-0.018384277820587158,-0.02835392951965332,0.0005213618278503418,-0.4520896649425512,0.07687552772435338,0.6580971661015067,-0.597171000208006,-1.0265202256851331,-1.3329542245508932,1.0110099888964554
1780771635771148544,1.549053430557251,-0.019017033278942108,-0.15990225970745087,-0.07742080837488174,-0.504130482673645,0.8551682829856873,-0.12058161944150925,-0.036961495876312256,0.019190967082977295,-0.032021597027778625,-0.4516890054684883,0.07617807110420263,0.6587154860331529,-0.5968818834138679,-1.0258753867632304,-1.3360198970278292,1.0096184148476484
1780771635781183488,1.5590884685516357,0.02430913597345352,-0.14278903603553772,-0.07024358958005905,-0.5049402713775635,0.8547922372817993,-0.11985725164413452,-0.0331762433052063,0.034596920013427734,-0.03454644978046417,-0.451417255666524,0.07548075450700616,0.6590705808695485,-0.5967840517310032,-1.0251504020944542,-1.3377403677184971,1.0093561989910846
1780771635791218432,1.5691235065460205,0.049124203622341156,-0.12863726913928986,-0.05019185692071915,-0.5056247115135193,0.8544317483901978,-0.11954063922166824,-0.0040187835693359375,0.01449519395828247,-0.019924692809581757,-0.4511738528382277,0.0747829736231658,0.659270194077839,-0.5968353475718959,-1.0244561584055314,-1.338637527483562,1.0098757005013215
1780771635801253632,1.5791585445404053,0.0325193926692009,-0.10824957489967346,-0.0379844568669796,-0.506152868270874,0.8541491031646729,-0.11932487040758133,0.008960545063018799,0.005347847938537598,-0.005980297923088074,-0.45092418769174664,0.0741669027124915,0.6594215911781042,-0.5969335812316682,-1.0239123471542395,-1.3392749823215644,1.0105525147628938
1780771635811287296,1.5891923904418945,0.018177207559347153,-0.10555925220251083,-0.017016325145959854,-0.5065186023712158,0.8539780974388123,-0.11899720877408981,0.00896000862121582,0.010615408420562744,-0.00815427303314209,-0.4506723506196588,0.07370839431452855,0.6595972023911888,-0.5969866247056325,-1.0235836096023005,-1.3400492192956763,1.0108708584357249
1780771635821322496,1.5992274284362793,-0.037766218185424805,-0.10449612140655518,-0.008679032325744629,-0.5067403316497803,0.853928804397583,-0.11840542405843735,0.016597509384155273,-0.016785860061645508,-0.03282445669174194,-0.45034518455082934,0.07335979086587911,0.6598603102672753,-0.5969857092120465,-1.0234889079094365,-1.341253721941327,1.0107307846890785
1780771635831357440,1.609262466430664,-0.10846062749624252,-0.07993564754724503,0.003969117999076843,-0.5068566203117371,0.8540076017379761,-0.11733340471982956,0.002629995346069336,-0.045932769775390625,-0.047080084681510925,-0.45001212331047213,0.07323504242337611,0.6602801870375213,-0.5967877631374966,-1.023640309171054,-1.3433110766039722,1.009418941599174
1780771635841392640,1.6192975044250488,-0.11852524429559708,-0.07716582715511322,0.0252981074154377,-0.5068268775939941,0.8542155027389526,-0.1159404069185257,0.001181185245513916,-0.04006767272949219,-0.029674217104911804,-0.44968833671886466,0.07333255296918754,0.6607965888442844,-0.5964482270224275,-1.0240400662687608,-1.3459084149325136,1.00722839720768
1780771635851427584,1.6293325424194336,-0.08240105956792831,-0.1010836809873581,0.02963266894221306,-0.5066868662834167,0.8544781804084778,-0.11461012810468674,0.023120582103729248,-0.010285675525665283,-0.01750051975250244,-0.4492571114481189,0.07337610913787335,0.66129485358987,-0.5962156679768607,-1.0245455243466302,-1.3483445845765205,1.0054682423042771
1780771635861461504,1.6393663883209229,-0.009503423236310482,-0.08984339982271194,0.04997149482369423,-0.5064542293548584,0.8547356128692627,-0.11371603608131409,0.0162808895111084,0.026337385177612305,-0.0169297456741333,-0.44880402997812907,0.07333092737249819,0.6616377843821739,-0.5961820750839064,-1.0250412584216888,-1.3499257775733644,1.004737418277081
1780771635871496448,1.6494014263153076,0.08199027925729752,-0.05920826271176338,0.059098150581121445,-0.5060541033744812,0.8549746870994568,-0.11370018869638443,-0.015827059745788574,0.040807902812957764,-0.019310668110847473,-0.4484157848586916,0.07321478994387687,0.6616566335510823,-0.596467484954454,-1.0255020035061644,-1.3497865644240907,1.005731911017298
1780771635881531392,1.6594364643096924,0.16106991469860077,-0.09966979920864105,0.09137672930955887,-0.5055211782455444,0.8551987409591675,-0.1143830418586731,-0.014361023902893066,0.04517662525177002,-0.026272475719451904,-0.4479886504471012,0.07294228165694525,0.6614286822554316,-0.5970742980981977,-1.0259342046748008,-1.3482757235027114,1.008404616704607
1780771635891566592,1.6694715023040771,0.2025212198495865,-0.10748405009508133,0.10778819769620895,-0.5047726631164551,0.855498731136322,-0.11544003337621689,-0.010455548763275146,0.030930042266845703,-0.02765684574842453,-0.4473929314195919,0.07253531086762162,0.6610738326100842,-0.597962820075052,-1.0265132118053937,-1.345965758935083,1.0123742734951484
1780771635901601536,1.679506540298462,0.16194263100624084,-0.07560095191001892,0.11095628887414932,-0.5039381384849548,0.8558385372161865,-0.11656254529953003,-0.037275850772857666,0.009762048721313477,-0.01960688829421997,-0.44682904218704017,0.07221138470699175,0.6606846763918686,-0.5988531889510168,-1.0271698407527932,-1.3434904954599478,1.0163355127964315
1780771635911635456,1.6895403861999512,0.15920037031173706,-0.1192227378487587,0.11431373655796051,-0.503089189529419,0.8562099933624268,-0.117497518658638,-0.031822919845581055,0.019674956798553467,0.012730665504932404,-0.4462604872383341,0.0719525486665372,0.660359047856537,-0.5996668500860185,-1.0278884617880177,-1.341356966868048,1.0198647387447883
1780771635921670400,1.699575424194336,0.10347799211740494,-0.18477590382099152,0.10931871086359024,-0.5023036599159241,0.8566231727600098,-0.11784642934799194,0.005614817142486572,0.0011343955993652344,0.03535741567611694,-0.44545110821850276,0.07156062583068393,0.6602695388083449,-0.600413609235208,-1.0286886680690814,-1.3403521632509237,1.022867170577517
1780771635931705600,1.7096104621887207,0.03507309779524803,-0.20841917395591736,0.0986892357468605,-0.5016335844993591,0.8570615649223328,-0.11751294881105423,0.01171964406967163,-0.023992717266082764,0.024861574172973633,-0.4445201616007147,0.07115546093153317,0.6604395710446594,-0.6009645148236455,-1.029539000267921,-1.3406852615267044,1.0247500672786802
1780771635941740544,1.7196455001831055,-0.2577960789203644,-0.014192450791597366,0.048194900155067444,-0.5012108683586121,0.8575357794761658,-0.11584430932998657,0.003255605697631836,-0.024116098880767822,0.012267664074897766,-0.4437944559886375,0.07119169033476999,0.6610670068344754,-0.6008065797067853,-1.0304601059160547,-1.3436560341348467,1.0229760429601853
1780771635951775488,1.7296805381774902,0.3212342858314514,-0.2640555500984192,0.200949028134346,-0.5002146363258362,0.858169436454773,-0.11545731127262115,0.05484116077423096,0.017547667026519775,0.08429891616106033,-0.4432387065863172,0.07146578600062674,0.6611837774563933,-0.6010557426555027,-1.031693135234634,-1.3439535211293643,1.023264005214251
1780771635961810432,1.739715337753296,-0.02787870168685913,-0.4707801043987274,0.12507690489292145,-0.49930158257484436,0.8587119579315186,-0.11537639796733856,0.11049237847328186,-0.08399271965026855,0.12532514333724976,-0.44132274613229217,0.0700881256655741,0.6613618191088243,-0.6024304344399467,-1.0327508715378257,-1.3437066507837512,1.0288452941694621
1780771635971844352,1.7497494220733643,-0.07126318663358688,-0.06474630534648895,0.19227378070354462,-0.4981909692287445,0.8596874475479126,-0.11288680881261826,-0.08826535940170288,-0.016181588172912598,-0.11904674768447876,-0.43999891061482804,0.07023927795036665,0.662286220461646,-0.6023657249670633,-1.0346574986263581,-1.3479657290439448,1.0266538130023366
1780771635981879552,1.759784460067749,0.3875158131122589,-0.17448759078979492,0.13799722492694855,-0.49696463346481323,0.8602615594863892,-0.11391342431306839,-0.043455928564071655,0.09014737606048584,-0.2277003526687622,-0.4393076067246951,0.07011573597770289,0.6619116789568922,-0.6032955863862077,-1.0357824246675462,-1.3454704241702047,1.0305615951557947
1780771635991914496,1.7698194980621338,0.3209719657897949,-0.3593365252017975,0.17948368191719055,-0.4959033727645874,0.8606046438217163,-0.11592935025691986,0.0819782018661499,0.0002351999282836914,-0.018821001052856445,-0.43794951688644157,0.06884171285106527,0.66128370982326,-0.6051156786621444,-1.0364558054943578,-1.3411464544840295,1.0391186494430777
1780771636001949440,1.7798545360565186,0.10312512516975403,-0.31812024116516113,0.21360915899276733,-0.49447932839393616,0.8614088892936707,-0.11603919416666031,-0.05099186301231384,-0.06288594007492065,0.1012076735496521,-0.43627906852808623,0.06807913478812906,0.661321127648584,-0.6063664656244272,-1.0380371116668259,-1.340297631682688,1.0439804975621543
1780771636011984384,1.7898893356323242,0.008934972807765007,-0.0380377322435379,0.17744210362434387,-0.49312469363212585,0.8622661828994751,-0.11543528735637665,-0.15352758765220642,0.10903215408325195,-0.07438404858112335,-0.43511216570933675,0.06802515801097753,0.6615549375034985,-0.6069556823904565,-1.0397274101730725,-1.3408474426576473,1.0455392668392833
1780771636022018560,1.7999234199523926,0.3832574188709259,-0.07243166118860245,0.2512689232826233,-0.4912181496620178,0.8631544709205627,-0.11691456288099289,-0.06084483861923218,0.24518287181854248,-0.11245559900999069,-0.434415867666848,0.06829227435546986,0.6609681415735578,-0.6080625824650122,-1.0414839548673267,-1.337134329591581,1.0501172250557442
1780771636032053504,1.8099584579467773,0.11929290741682053,-0.14328399300575256,0.270796000957489,-0.48917093873023987,0.8640530109405518,-0.11884395778179169,0.036869972944259644,0.029013216495513916,0.10726256668567657,-0.4333329554447236,0.06811596172805719,0.6602561894680425,-0.6096264358529903,-1.0432661925843922,-1.3324641209383143,1.0569615929601004
1780771636042088448,1.819993495941162,0.07838995009660721,-0.010655773803591728,0.34451818466186523,-0.48656949400901794,0.8655071258544922,-0.11894393712282181,-0.056078821420669556,-0.05369377136230469,0.1961839199066162,-0.43212391361812524,0.06876431820857211,0.6601511201669928,-0.6105251274272205,-1.0461618845969207,-1.3310440503383683,1.0595727729657896
1780771636052123648,1.8300285339355469,0.3676294684410095,0.04826293885707855,0.36057305335998535,-0.4834451973438263,0.8669665455818176,-0.12103653699159622,-0.057417869567871094,0.13272827863693237,-0.017131805419921875,-0.4312016764665902,0.06953689058598098,0.6592771428028574,-0.6120321974715839,-1.049082871971667,-1.325476527735288,1.0656838880219415
1780771636062158336,1.8400633335113525,0.5049875974655151,-0.00020006997510790825,0.424076110124588,-0.4799993932247162,0.8683043122291565,-0.1250924915075302,0.03154364228248596,0.18275153636932373,-0.0946187824010849,-0.4302478687340555,0.06994597502482089,0.6576939372641305,-0.6143557598227856,-1.05177355493254,-1.3158572782224962,1.076441566012943
1780771636072193280,1.8500983715057373,0.23151478171348572,-0.02134982869029045,0.427929162979126,-0.4762575924396515,0.8698558211326599,-0.1285676211118698,0.030136406421661377,-0.06179612874984741,-0.006259024143218994,-0.42899534034781117,0.07042894959251048,0.6563200048926324,-0.6166416105049063,-1.054909996691259,-1.3071274011027239,1.0867073110380154
1780771636082227456,1.8601324558258057,-0.17875316739082336,0.141759991645813,0.397585391998291,-0.47264164686203003,0.8718123435974121,-0.1286589503288269,-0.08032158017158508,-0.20094448328018188,0.021740630269050598,-0.42790800242771215,0.07197094890460828,0.6561179071379926,-0.6174335653579579,-1.058890061907974,-1.3050235051661137,1.0885071393636467
1780771636092262400,1.8701674938201904,0.09562858939170837,0.09374213963747025,0.43939408659935,-0.46875935792922974,0.8738725185394287,-0.12888582050800323,-0.04547712206840515,-0.008790731430053711,-0.09030669927597046,-0.4270305051146364,0.07389125688046277,0.6558179429564057,-0.6181325964311477,-1.0631118181670605,-1.3024757412274586,1.089849915349389
1780771636102297600,1.8802025318145752,0.033706631511449814,0.023389944806694984,0.3712911903858185,-0.46514636278152466,0.8756310939788818,-0.13003584742546082,0.05058026313781738,0.034159064292907715,-0.1334071308374405,-0.4259474372904367,0.0751190583931953,0.6552398031678973,-0.6193438846495709,-1.066740890664568,-1.2981966087433416,1.0942710318444229
1780771636112332288,1.8902373313903809,-0.3037334680557251,0.21265840530395508,0.3382709324359894,-0.4618850350379944,0.8774831295013428,-0.1291721612215042,-0.04429474472999573,-0.12318027019500732,-0.10303609073162079,-0.4251521812294301,0.07696518687925061,0.6553550762959878,-0.6195414859567234,-1.0705890093549209,-1.2981001200766513,1.0931063269074017
1780771636122367488,1.9002723693847656,-0.2944371700286865,0.29350292682647705,0.2678934335708618,-0.4588461220264435,0.87928706407547,-0.1277279108762741,-0.11850064992904663,-0.15635621547698975,-0.089328333735466,-0.4249671214569418,0.07945456009513054,0.6556088879341238,-0.6190855074352061,-1.0743633001346578,-1.2993019331537423,1.088668519733874
1780771636132401408,1.910306453704834,-0.21700148284435272,0.2765287458896637,0.22956416010856628,-0.4563540518283844,0.8807279467582703,-0.1267242580652237,-0.08394435048103333,-0.049612343311309814,-0.045227035880088806,-0.42505083326185106,0.0816910564847368,0.6557167412170645,-0.6186224949667597,-1.077397007399518,-1.2999323951126647,1.0847008138658745
1780771636142436608,1.9203414916992188,-0.03532623127102852,0.2954214811325073,0.20126886665821075,-0.45402804017066956,0.8818915486335754,-0.1269873082637787,-0.059445470571517944,0.01656121015548706,-0.0665094256401062,-0.42524187117511775,0.08354715794358554,0.6553825004934802,-0.6185975580441851,-1.079859397732902,-1.2980746964592387,1.083591924184849
1780771636152471552,1.9303765296936035,-0.021408285945653915,0.3602377474308014,0.14074933528900146,-0.4521258473396301,0.8826749920845032,-0.12832391262054443,-0.08106198906898499,-0.010680973529815674,-0.13344067335128784,-0.4258045317924313,0.08516510453688891,0.6546639993462923,-0.618750690403251,-1.08152376861551,-1.294245703131056,1.084163586246816
1780771636162506240,1.9404113292694092,0.000448544102255255,0.36319053173065186,0.13038431107997894,-0.45046156644821167,0.8832986950874329,-0.1298760324716568,-0.08626630902290344,-0.0006540417671203613,-0.14670473337173462,-0.42658772680168655,0.08677188948030566,0.6538597870658374,-0.6188383533057136,-1.0828524849056356,-1.2900914144784161,1.0846964819183522
1780771636172541440,1.950446367263794,-0.007048787083476782,0.3364720940589905,0.1091994047164917,-0.448967844247818,0.8838191032409668,-0.13149762153625488,-0.06799986958503723,-0.030761301517486572,-0.11212418973445892,-0.42737033970850674,0.08822631423231014,0.653044646094231,-0.6189534757168955,-1.083963804119447,-1.2858763548933154,1.0855069884826354
1780771636182576384,1.9604814052581787,-0.0896294116973877,0.3774356544017792,0.12267126888036728,-0.4474709928035736,0.8844070434570312,-0.1326417177915573,-0.09343782067298889,-0.051551878452301025,-0.09646902978420258,-0.42813947206911307,0.08980504366148359,0.6523911394854498,-0.6188840197322335,-1.0852220479623171,-1.2826223120350155,1.085195089963331
1780771636192610560,1.970515489578247,-0.11879129707813263,0.45242467522621155,0.10974588245153427,-0.44587960839271545,0.8850659132003784,-0.1336020529270172,-0.10596969723701477,-0.01948070526123047,-0.14163599908351898,-0.42910104340053457,0.09170678361912807,0.6517582674615211,-0.6186058641120372,-1.0866356255075917,-1.2796725345141915,1.0837811265654194
1780771636202645504,1.9805505275726318,-0.19184818863868713,0.4646584391593933,0.14212724566459656,-0.4441697299480438,0.8858131170272827,-0.13434439897537231,-0.08598166704177856,-0.006983160972595215,-0.16529244184494019,-0.43017176506650134,0.09387172670078302,0.6511650339525468,-0.6181621520039505,-1.0882432813905758,-1.2770824922769826,1.0814384775018622
1780771636212680448,1.9905853271484375,-0.2444717288017273,0.472378134727478,0.15986444056034088,-0.44217512011528015,0.8867993354797363,-0.1344180703163147,-0.06511855125427246,-0.03996700048446655,-0.1393703818321228,-0.43110769195446996,0.09630075588012532,0.6507819355390898,-0.617539663845775,-1.090372889240011,-1.275680409745846,1.0777533309913285
1780771636222715392,2.0006203651428223,-0.08039490133523941,0.5299739241600037,0.11075229197740555,-0.44027405977249146,0.8876336216926575,-0.1351495385169983,-0.09202879667282104,-0.09097224473953247,-0.11227172613143921,-0.4322384217998455,0.09866573387252467,0.6501463704018545,-0.6170452095086696,-1.0921813547098496,-1.2729602390356625,1.0751433784691953
1780771636232750336,2.010655403137207,0.021726401522755623,0.5607435703277588,0.13020454347133636,-0.43850380182266235,0.8881691098213196,-0.13736848533153534,-0.12057819962501526,-0.03428727388381958,-0.11603420972824097,-0.43364589192931424,0.10077035830296793,0.6489692516285437,-0.6169566535809706,-1.0933452926116907,-1.2672134384509453,1.0754633783954892
1780771636242784512,2.0206894874572754,0.227157860994339,0.6052678823471069,0.198879212141037,-0.43623191118240356,0.8887305855751038,-0.14092381298542023,-0.11078035831451416,0.12413245439529419,-0.10405604541301727,-0.4350995434556735,0.10287119497080327,0.6472678049930667,-0.6173736591390607,-1.0945686904804344,-1.2583310352266768,1.078852946864345
1780771636252819456,2.03072452545166,0.5516619086265564,0.6003420948982239,0.2573566436767578,-0.43332064151763916,0.8891503214836121,-0.14712195098400116,-0.09464871883392334,0.18641120195388794,-0.14514487981796265,-0.4365868930568368,0.10464342505355807,0.6445841905942687,-0.6188318438375479,-1.0954850987258016,-1.2434862362537202,1.0886353698501305
1780771636262854400,2.040759325027466,0.8439038991928101,0.5675219893455505,0.26162809133529663,-0.4300861358642578,0.8892253637313843,-0.1558978110551834,-0.0910167396068573,0.15386545658111572,-0.173753023147583,-0.4379912067604587,0.10574130297770849,0.6409913173888757,-0.6213796030824215,-1.0956491066373832,-1.2230466247634741,1.1051294507815157
1780771636272889344,2.0507943630218506,1.1503427028656006,0.5963475108146667,0.35412633419036865,-0.42649921774864197,0.8888636231422424,-0.16739104688167572,-0.12492287158966064,0.1258305311203003,-0.1947457641363144,-0.4394659120348112,0.10629144195925029,0.6364012912569489,-0.6249521342249754,-1.0948589255876136,-1.196792239065629,1.128091579768125
1780771636282924288,2.0608294010162354,1.2000961303710938,0.680357038974762,0.4364110827445984,-0.4217919409275055,0.8885135054588318,-0.18065224587917328,-0.15228942036628723,0.09497642517089844,-0.21101032197475433,-0.4408553203879973,0.10696425941636258,0.6310566698398943,-0.6292636036599122,-1.094095351431538,-1.1661363553072583,1.1553960324541817
1780771636292959488,2.07086443901062,1.1060649156570435,0.7674429416656494,0.49693113565444946,-0.41627296805381775,0.8882542848587036,-0.19421884417533875,-0.15403947234153748,0.005254507064819336,-0.23018911480903625,-0.4423333600508951,0.10814892137679107,0.6254553466460638,-0.6336012150897806,-1.093530710719211,-1.134251768881902,1.182992846674313
1780771636302993408,2.0808985233306885,0.9456177353858948,0.6867324709892273,0.5576360821723938,-0.41007092595100403,0.8883703351020813,-0.20649459958076477,-0.12273550033569336,-0.1262090802192688,-0.15803784132003784,-0.4435218441926672,0.10986356368859412,0.6202279388954868,-0.6376015259025466,-1.0937834206220465,-1.104306163342168,1.2083522032781948
1780771636313028608,2.0909335613250732,0.7760292291641235,0.5990654826164246,0.550674319267273,-0.40374094247817993,0.8888419270515442,-0.21668732166290283,-0.061270684003829956,-0.10222083330154419,-0.06173980236053467,-0.44422018387954487,0.11178079136512277,0.6157608258501185,-0.6411023020296751,-1.0948115916813137,-1.078222397917926,1.2303858522714402
1780771636323063296,2.100968360900879,1.040579915046692,0.407941073179245,0.5735487341880798,-0.3976733088493347,0.8890542387962341,-0.22680127620697021,0.007536500692367554,0.0698082447052002,-0.05998769402503967,-0.4445105288011611,0.11310761175647621,0.6113967881271163,-0.6448342358953161,-1.0952750699599567,-1.0524858566571906,1.2535985994499221
1780771636333098496,2.1110033988952637,1.3524526357650757,0.34646013379096985,0.732612133026123,-0.3909629285335541,0.8888676166534424,-0.23887774348258972,0.025698035955429077,0.17589068412780762,-0.09330612421035767,-0.44415463907121266,0.11362646137202058,0.6063416180015766,-0.6497427685471312,-1.0948676159745827,-1.0223289788607914,1.2834520433214127
1780771636343133440,2.1210384368896484,1.9443321228027344,-0.011529956944286823,0.7276474833488464,-0.3840978145599365,0.8876274228096008,-0.2541384994983673,-0.0039942264556884766,0.1571265459060669,-0.12345549464225769,-0.44322644296264624,0.11272185086570642,0.6001870882901217,-0.6562160526527099,-1.0921678167474336,-0.986274525595913,1.322132454827497
1780771636353167616,2.131072521209717,2.6376147270202637,-0.09857484698295593,0.8191220164299011,-0.377471923828125,0.884446918964386,-0.2743511199951172,-0.05146786570549011,0.13995182514190674,-0.24725523591041565,-0.4418136089771982,0.10971266942041796,0.592273216294191,-0.6648129686555656,-1.085307463422648,-0.9423014275210965,1.3723999364547887
1780771636363202560,2.1411075592041016,3.080939292907715,-0.2710728645324707,1.082216501235962,-0.3696335256099701,0.8796381950378418,-0.2993454039096832,-0.047816455364227295,0.0925145149230957,-0.2771926522254944,-0.4397047443425003,0.10550301888301908,0.5824057160193565,-0.6755237872585206,-1.0751009810772674,-0.890081856750716,1.4335544535300921
1780771636373237248,2.1511423587799072,3.068263530731201,-0.4611397385597229,1.3054276704788208,-0.3602310121059418,0.8742697834968567,-0.32540133595466614,0.015718072652816772,-0.08944922685623169,-0.18553918600082397,-0.43614256043127303,0.10087020469344168,0.5719480115935184,-0.6873720963380212,-1.0639295430437792,-0.8361538639850237,1.4992753063838857
1780771636383272448,2.161177396774292,2.685676097869873,-0.5839313864707947,1.4437466859817505,-0.3499741852283478,0.86934894323349,-0.34892764687538147,0.04978799819946289,-0.3335365653038025,-0.10186278820037842,-0.4313155662796811,0.09665042182760784,0.5623120808676968,-0.698878153712218,-1.0538833457313543,-0.7868955558888419,1.561779499273522
1780771636393307392,2.1712124347686768,2.1126391887664795,-0.724293053150177,1.5934464931488037,-0.3391249477863312,0.8659077882766724,-0.36769264936447144,0.05865320563316345,-0.5308400988578796,-0.013609200716018677,-0.42529272134538154,0.09340916131198265,0.55446226216408,-0.7092054571713917,-1.0469623856605008,-0.7450027897272142,1.6175849637122264
1780771636403342592,2.1812474727630615,1.4464110136032104,-0.8439759016036987,1.7763265371322632,-0.3274787664413452,0.8647667765617371,-0.380704790353775,0.07717359066009521,-0.6072747111320496,0.029996752738952637,-0.4179174801663087,0.0914256626297991,0.5488979428643542,-0.7181207523530871,-1.0446857498387638,-0.7103806753041281,1.6667512435458764
1780771636413376512,2.19128155708313,0.3924109935760498,-0.9857473969459534,1.978312373161316,-0.3146592676639557,0.8671964406967163,-0.38595324754714966,0.10388961434364319,-0.6079190969467163,0.05819439888000488,-0.409056637695746,0.09134450125018512,0.5465158404557746,-0.7250167625258925,-1.0495443950462195,-0.6839877617195919,1.7077518917515921
1780771636423411456,2.2013163566589355,-0.671963095664978,-1.1754781007766724,2.142657995223999,-0.3008480668067932,0.8741205334663391,-0.3813185691833496,0.1322689652442932,-0.6111353039741516,0.14856106042861938,-0.39850369607769015,0.09334323919019735,0.5482953147589189,-0.729283350791161,-1.0636221840367066,-0.6679776987128524,1.7386260752095801
1780771636433446400,2.2113513946533203,-1.5466411113739014,-1.3559032678604126,2.325134038925171,-0.2858838438987732,0.8848997950553894,-0.3677264451980591,0.16048714518547058,-0.6552398204803467,0.1278124749660492,-0.38628332112478037,0.09708429605806924,0.553815332009911,-0.7311965315612043,-1.086278819814294,-0.6608303181735439,1.7611909766251201
1780771636443481344,2.221386432647705,-2.135051727294922,-1.4856457710266113,2.387251377105713,-0.26985523104667664,0.8981418609619141,-0.34715908765792847,0.18628284335136414,-0.6263980865478516,0.05864590406417847,-0.37268597987784374,0.10199311558337189,0.5621546599294808,-0.7312213936388048,-1.1155251796145507,-0.6607606113847166,1.7773412011300218
1780771636453516544,2.23142147064209,-2.511512517929077,-1.5922718048095703,2.3376097679138184,-0.25348737835884094,0.9122074842453003,-0.3219030201435089,0.18453291058540344,-0.5166539549827576,0.02753046154975891,-0.3583939732257397,0.10738493065148698,0.5722909835271766,-0.7297295432004426,-1.1486398694436348,-0.6670507956977467,1.7874428170169687
1780771636463551488,2.2414565086364746,-2.597207546234131,-1.7025730609893799,2.167442798614502,-0.23775924742221832,0.9257226586341858,-0.2941230237483978,0.18192732334136963,-0.33217090368270874,0.04126963019371033,-0.34396466442369056,0.11245355401985668,0.5833461092329154,-0.7271519646218719,-1.18294185849695,-0.6798217848796595,1.791490908567931
1780771636473585408,2.251490354537964,-2.4492897987365723,-1.8198580741882324,2.0594756603240967,-0.2230534702539444,0.937711238861084,-0.2663550078868866,0.1793675422668457,-0.11842095851898193,0.009274929761886597,-0.3296211290416597,0.11651119596721403,0.594346389534414,-0.7242427568561858,-1.215982657470016,-0.6971506543780943,1.7919419727239636
1780771636483620352,2.2615253925323486,-2.0004053115844727,-1.8108773231506348,2.022016763687134,-0.20842814445495605,0.9478174448013306,-0.24124687910079956,0.16930457949638367,0.08033514022827148,0.0015617907047271729,-0.31540536069244046,0.11962317510930492,0.6042076243484379,-0.7219023792251856,-1.2463187911024667,-0.7125440778738408,1.7950757481936186
1780771636493655552,2.2715604305267334,-2.127380132675171,-1.7296158075332642,1.855245590209961,-0.19374892115592957,0.9564064741134644,-0.2185133844614029,0.13907666504383087,0.19828712940216064,0.0731734037399292,-0.30173975931696034,0.12237224093341101,0.6129994646634176,-0.7198679394516261,-1.2744384247306793,-0.7254005745873466,1.8000624608528932
1780771636503690496,2.281595468521118,-2.5156798362731934,-1.8823119401931763,1.5033237934112549,-0.18135960400104523,0.9643198251724243,-0.1928628385066986,0.10830052196979523,0.2704061269760132,0.170981764793396,-0.2886674621489643,0.12445497473807181,0.6229603064396699,-0.7163118019046549,-1.302862086545842,-0.7546688362007224,1.7885097954805258
1780771636513725440,2.291630506515503,-3.1721351146698,-1.872310996055603,1.3613868951797485,-0.17087329924106598,0.9719114303588867,-0.16183455288410187,0.10799181461334229,0.20719623565673828,0.07806384563446045,-0.27586895100721004,0.12627815269527973,0.6349303505441032,-0.7105023326637322,-1.3332208432493153,-0.8125586780813612,1.748142808437491
1780771636523759360,2.301664352416992,-3.4312779903411865,-1.928707480430603,1.2198883295059204,-0.1609017550945282,0.9788547158241272,-0.1263090819120407,0.11363004148006439,0.12339437007904053,0.011563017964363098,-0.2630488627978747,0.12820745796631414,0.6483890095081798,-0.7028227402085055,-1.364785595723578,-0.9052642421321244,1.6726258760626422
1780771636533794304,2.311699390411377,-3.5567359924316406,-2.07234787940979,0.9355002641677856,-0.1523909568786621,0.984347403049469,-0.08852855861186981,0.11763143539428711,0.097256600856781,-0.103793203830719,-0.25042242325754305,0.12930523864310817,0.6625827321031492,-0.6939401531301439,-1.3936318958556322,-1.044516518808235,1.5511942397108602
1780771636543829504,2.3217344284057617,-3.374194383621216,-2.3393661975860596,0.5800907611846924,-0.1463930457830429,0.9879128336906433,-0.05096485838294029,0.1413118690252304,0.1634238362312317,-0.18890327215194702,-0.23814254609938948,0.1284851628337584,0.6767637205998378,-0.6846682634268689,-1.4151584241932116,-1.2357820154872499,1.3797011051865866
1780771636553864448,2.3317694664001465,-3.425584554672241,-2.473691463470459,0.3411538004875183,-0.14271607995033264,0.9896655678749084,-0.013940004631876945,0.16432255506515503,0.21542781591415405,-0.18504983186721802,-0.2260774318294151,0.1256316276995748,0.6908304362655258,-0.6751733553021596,-1.4269054609233265,-1.4734287149253333,1.1641655916146365
1780771636563899392,2.3418045043945312,-3.6297404766082764,-2.289252758026123,0.1466415822505951,-0.14008508622646332,0.9898338317871094,0.0245974138379097,0.1648043543100357,0.24583810567855835,0.0606687068939209,-0.21470429843134758,0.12244227839235404,0.7051996845907883,-0.6645324018881278,-1.4280838565973926,-1.7446135273407155,0.9142927080818344
1780771636573934592,2.351839542388916,-3.5278804302215576,-2.294363498687744,-0.05893101915717125,-0.13873432576656342,0.9883021116256714,0.06333798170089722,0.10464617609977722,0.1433659791946411,0.08659493923187256,-0.20426317095853533,0.11878257311647092,0.7194162159331545,-0.6531520207551772,-1.4176901044310264,-1.9990768826236116,0.6802121976220926
1780771636583968512,2.3618733882904053,-3.362208843231201,-2.352478504180908,-0.19509951770305634,-0.1380702257156372,0.9852744936943054,0.10085128247737885,0.125252828001976,0.01968473196029663,0.031900182366371155,-0.1941703775843688,0.11422068589827516,0.7330615766312458,-0.6417727759524648,-1.3989719431656287,-2.2016575642130403,0.4986177133757357
1780771636594003456,2.37190842628479,-2.6045966148376465,-2.276552677154541,-0.3040670156478882,-0.1378316432237625,0.9813644886016846,0.133888378739357,0.1298055499792099,0.09099262952804565,0.1123732179403305,-0.18466243223577672,0.10871884124825791,0.7450667082795444,-0.6316293109498898,-1.3774383419364546,-2.34168323614515,0.3799803255298173
1780771636604038400,2.381943464279175,-1.3874166011810303,-2.037975311279297,-0.35287928581237793,-0.13794443011283875,0.9779641032218933,0.15670861303806305,0.09988901019096375,0.2501090168952942,0.15228188037872314,-0.17651767103260185,0.10248874949347932,0.7535584654180298,-0.6248897620224214,-1.3604760082825609,-2.419790898618137,0.3223855765139953
1780771636614073600,2.3919785022735596,-0.06151069700717926,-1.8442243337631226,-0.38333839178085327,-0.13838103413581848,0.9763169288635254,0.16630151867866516,0.09861661493778229,0.39138948917388916,0.13165690004825592,-0.16992719299778986,0.09560842831167489,0.7576343347538107,-0.6228756510549985,-1.3527267338318767,-2.4475772226437638,0.31396527597091933
1780771636624108544,2.4020135402679443,1.1615209579467773,-1.7220038175582886,-0.3304283022880554,-0.1389705091714859,0.9767211079597473,0.16341127455234528,0.1273890882730484,0.37798482179641724,0.005122080445289612,-0.16457056736453557,0.08823671884724432,0.7575750227035136,-0.6254686042864733,-1.3546030583097088,-2.436846647450734,0.3431572189165396
1780771636634143232,2.41204833984375,2.349052906036377,-1.7703684568405151,-0.280171275138855,-0.13922521471977234,0.9790455102920532,0.14861370623111725,0.19067786633968353,0.2561075687408447,-0.10422588884830475,-0.1596236342203388,0.08010649943902831,0.7535846338478854,-0.6326241869387289,-1.3657203420054063,-2.3888000815213806,0.4103009201231195
1780771636644177408,2.4220824241638184,3.586900234222412,-1.7568928003311157,-0.15216509997844696,-0.1389854997396469,0.9827790260314941,0.12177188694477081,0.2226952314376831,0.15857833623886108,-0.07977975159883499,-0.15481482380294248,0.0712774097167967,0.7455236249886465,-0.6443185826029837,-1.3849436693165085,-2.290276244638366,0.5287921697924904
1780771636654212352,2.432117462158203,4.780893325805664,-1.5089991092681885,-0.010804501362144947,-0.13811592757701874,0.986966609954834,0.08258722722530365,0.14157967269420624,0.17460858821868896,0.06964968889951706,-0.15040664929588501,0.06239198598642773,0.733076295031415,-0.660366647939718,-1.4091683590693598,-2.1097114364843788,0.7287932454012385
1780771636664249344,2.4421544075012207,5.765974521636963,-1.2191098928451538,0.16164129972457886,-0.13660408556461334,0.990107536315918,0.032036781311035156,-0.006233423948287964,0.17609113454818726,0.20963191986083984,-0.14672348263057935,0.05410933273013033,0.7163034066267263,-0.6800395684317485,-1.4300212239076604,-1.8011560664220163,1.0547402271827957
1780771636674284288,2.4521892070770264,6.543665409088135,-0.910043478012085,0.3644231855869293,-0.13391970098018646,0.990600049495697,-0.02787385880947113,-0.13135433197021484,0.0952610969543457,0.3042258024215698,-0.14359553870289565,0.046878495218246836,0.6956043971186924,-0.7023654474130089,-1.433576133629015,-1.3655875868994427,1.5051714450232698
1780771636684319232,2.462224245071411,7.1911773681640625,-0.6669620275497437,0.5431897640228271,-0.12990528345108032,0.9869487881660461,-0.09516650438308716,-0.17375987768173218,0.018819034099578857,0.29789477586746216,-0.14078645183413918,0.040702844749247756,0.671386645218238,-0.726472584779842,-1.4090577295243796,-0.9385351073680962,1.9448344286496333
1780771636694354176,2.472259283065796,7.677824974060059,-0.5613498091697693,0.7064558863639832,-0.12451060861349106,0.977910041809082,-0.16789557039737701,-0.13382068276405334,-0.03183466196060181,0.2767517566680908,-0.13786807044590885,0.035309060174414264,0.6440539457679991,-0.7516249498398917,-1.3602171394704141,-0.6381005282425652,2.2565914536786456
1780771636704388352,2.4822933673858643,8.01119613647461,-0.4961310029029846,0.7494686245918274,-0.11845260858535767,0.9625547528266907,-0.2438390851020813,-0.032945096492767334,-0.039459049701690674,0.2573584318161011,-0.13469166207423436,0.030234374749110483,0.6141386971721303,-0.7770314202341257,-1.2962738746614981,-0.4522085377872554,2.453382096743378
1780771636714423296,2.492328405380249,8.28620719909668,-0.42424270510673523,0.7266679406166077,-0.11266753077507019,0.9403269290924072,-0.32107821106910706,0.02212187647819519,0.0364338755607605,0.18591591715812683,-0.13148985763035737,0.025192228716628455,0.5820878367758869,-0.8020283555081736,-1.22358987014626,-0.33747967131252765,2.5786723801806106
1780771636724458240,2.5023632049560547,8.275543212890625,-0.3337290287017822,0.6804759502410889,-0.10750013589859009,0.9111179709434509,-0.3978789448738098,0.035799093544483185,0.1505732536315918,0.1211455762386322,-0.12850241105858654,0.020227752055582332,0.5483168414491,-0.8260911225028168,-1.1459885649321868,-0.2638824128722147,2.6621210758542593
1780771636734493184,2.5123982429504395,7.9621992111206055,-0.2648056149482727,0.6564867496490479,-0.10276755690574646,0.8762500882148743,-0.4707702696323395,0.01733359694480896,0.22265738248825073,0.14449161291122437,-0.1256588459206014,0.015591786078906097,0.5141709387230663,-0.848289491973248,-1.0680240697605312,-0.2149249731749437,2.720059474457251
1780771636744528384,2.522433280944824,7.295575141906738,-0.2630383372306824,0.5333155393600464,-0.09905318170785904,0.8380938172340393,-0.5364580750465393,-0.020423129200935364,0.19245421886444092,0.1901445984840393,-0.12294338501742105,0.011114926806032684,0.48129765306874706,-0.867821392280314,-0.9937795666962207,-0.1825864827693102,2.760921840431171
1780771636754563328,2.532468318939209,5.922365665435791,-0.1587260663509369,0.4513828456401825,-0.0961632952094078,0.8010703325271606,-0.5907951593399048,-0.0699438825249672,0.12933433055877686,0.21297228336334229,-0.12056707711835607,0.007296174098594788,0.4522711411550678,-0.8836634883744676,-0.9290812544661116,-0.16135423034027987,2.7893983203997346
1780771636764597504,2.5425024032592773,4.077855110168457,-0.03925585746765137,0.30229082703590393,-0.09380119293928146,0.77061927318573,-0.6303548216819763,-0.11930304765701294,0.052683889865875244,0.2382192611694336,-0.11882049738715057,0.0046686221195263375,0.42988461400679795,-0.895019043316118,-0.8798123249197197,-0.14772296850792252,2.807994456727889
1780771636774632192,2.552537202835083,2.180359125137329,0.05885286629199982,0.14976359903812408,-0.09198564291000366,0.7507304549217224,-0.6541730165481567,-0.14798933267593384,0.06653022766113281,0.231062114238739,-0.11788574836232851,0.003355463863960113,0.4158151273184996,-0.9017701677145467,-0.8491671488735346,-0.13969771649955884,2.8183762484416577
1780771636784667136,2.5625722408294678,0.5311151146888733,0.08747491985559464,0.00319706741720438,-0.09090379625558853,0.7419813871383667,-0.6642289757728577,-0.08902784436941147,0.2203294038772583,0.17222458124160767,-0.11773163151933665,0.0030797985939750748,0.4097267848421339,-0.9045737850272042,-0.8360209984580673,-0.13601117253127504,2.8222552486205448
1780771636794702336,2.5726072788238525,-1.0561672449111938,0.0023429826833307743,-0.10254640132188797,-0.09096492826938629,0.7435499429702759,-0.6624642610549927,0.03066219389438629,0.3164170980453491,0.06689846515655518,-0.11807493974215653,0.0033435749103237406,0.41080007608709207,-0.9040411540568879,-0.8383636706932043,-0.13645959540419017,2.8209661155608035
1780771636804737280,2.5826423168182373,-2.8915417194366455,-0.14181379973888397,-0.16262492537498474,-0.09242113679647446,0.7563104033470154,-0.6476518511772156,0.09968432039022446,0.2774725556373596,0.06490343809127808,-0.11849468695880455,0.003915135299029565,0.41971268208541657,-0.8998805207554578,-0.857654792988949,-0.1417448906544013,2.8148505874261303
1780771636814771456,2.5926764011383057,-4.8705973625183105,-0.3448241651058197,-0.22899968922138214,-0.09545692801475525,0.7808489799499512,-0.6173837780952454,0.06405434012413025,0.09222835302352905,0.10684007406234741,-0.1187803904841047,0.004735938926691832,0.4373621813465276,-0.8913938595096625,-0.8960236730469013,-0.15340052198610102,2.8028120520171522
1780771636824806144,2.6027112007141113,-6.443695545196533,-0.5316543579101562,-0.254429429769516,-0.10001887381076813,0.8145760893821716,-0.5713685154914856,0.0069707781076431274,-0.0869302749633789,0.03782975673675537,-0.11871437743541144,0.005628888548423107,0.4629082627879786,-0.878402578422534,-0.9519979999328273,-0.17329556266668023,2.7834198328924282
1780771636834841344,2.612746238708496,-7.321316719055176,-0.703833281993866,-0.2845947742462158,-0.10564938187599182,0.8519964814186096,-0.5127769708633423,0.009457983076572418,-0.10372072458267212,-0.07871472835540771,-0.11819464278577936,0.0063922089899356264,0.49352877117604493,-0.8616371155641431,-1.0197868810642692,-0.20319049060921937,2.75504805259697
1780771636844876288,2.622781276702881,-7.801009654998779,-0.8480362892150879,-0.3322831988334656,-0.1120382621884346,0.8880952596664429,-0.44579631090164185,0.027489319443702698,-0.07896745204925537,-0.17056721448898315,-0.1172686424701874,0.006776456588133186,0.5263610184046917,-0.8421082512366463,-1.093184596224048,-0.2462221784351657,2.714574392019933
1780771636854911232,2.6328163146972656,-8.005605697631836,-0.9994165301322937,-0.39796340465545654,-0.1191738173365593,0.9202306270599365,-0.3727913796901703,0.0500820130109787,-0.07536661624908447,-0.2260551154613495,-0.11599636421865903,0.006542575832976253,0.5599656305558313,-0.820329619015155,-1.1686693177362006,-0.30941232629293086,2.6550902173828552
1780771636864946432,2.6428513526916504,-8.166329383850098,-1.1126117706298828,-0.4628947377204895,-0.12674356997013092,0.9468212723731995,-0.2957453429698944,0.06061197817325592,-0.10502451658248901,-0.2857060730457306,-0.11446231522188521,0.005707582451974544,0.5933757248909178,-0.7967251196941871,-1.2432086824572837,-0.40487911664219445,2.5642481208594994
1780771636874980096,2.6528851985931396,-8.3238525390625,-1.2263407707214355,-0.4935533106327057,-0.1343969851732254,0.9673398733139038,-0.21492153406143188,0.0585150271654129,-0.11945462226867676,-0.2445206344127655,-0.1125804850792293,0.0043240657743092705,0.6265145954207246,-0.7712240757875399,-1.3145173585876813,-0.5588369432055192,2.4158682746609816
1780771636885015296,2.6629202365875244,-8.392487525939941,-1.2648805379867554,-0.4201885461807251,-0.14104235172271729,0.9812503457069397,-0.131356880068779,0.033452630043029785,-0.17938584089279175,-0.20967702567577362,-0.11012429027635436,0.002760025060038401,0.6590249964253003,-0.7440100452708829,-1.3768449927509812,-0.8209393667682356,2.1600836496936227
1780771636895050240,2.672955274581909,-8.207879066467285,-1.2502219676971436,-0.37802883982658386,-0.14609463512897491,0.9881389141082764,-0.04730519652366638,-0.0033957064151763916,-0.30945855379104614,-0.1948365569114685,-0.10725683049689809,0.0013679641658631842,0.6901778978354111,-0.7156455228983218,-1.4166235022471454,-1.2576516936155933,1.7297112242266446
1780771636905085440,2.682990312576294,-7.809175968170166,-1.1554431915283203,-0.2699638903141022,-0.14954903721809387,0.9881625175476074,0.03420627489686012,-0.04204031825065613,-0.4093661308288574,-0.10776889324188232,-0.10406383403634571,8.392771491429088e-05,0.7190988322339712,-0.6870717979888631,-1.4167774614233994,-1.795657708512555,1.198076223410095
1780771636915120384,2.6930253505706787,-6.934428691864014,-0.8330692052841187,-0.012581362389028072,-0.15020743012428284,0.9826449155807495,0.1088416650891304,-0.08044441044330597,-0.38335609436035156,0.103530153632164,-0.10088679431982325,2.428545507975279e-05,0.7445944084541644,-0.6598491840340245,-1.3842192246471938,-2.1978482140348077,0.8002877749176833
1780771636925155328,2.7030603885650635,-5.652744293212891,-0.4969102144241333,0.18217560648918152,-0.1484207957983017,0.9738704562187195,0.1718948781490326,-0.183930903673172,-0.30982309579849243,0.1938277631998062,-0.09806354104221464,0.001343477355093804,0.7654708585754144,-0.6359529744684396,-1.3416930271402627,-2.429347961602915,0.5706166039123812
1780771636935189248,2.7130942344665527,-4.057093620300293,-0.10559573769569397,0.3074280619621277,-0.1454046070575714,0.9646834135055542,0.21964424848556519,-0.2661859691143036,-0.1910017728805542,0.2592223882675171,-0.09604726085028828,0.003728386969296338,0.780902184436358,-0.617213789208296,-1.3042387828635211,-2.556827409004754,0.4422783168689498
1780771636945224192,2.7231292724609375,-2.478010654449463,0.19637556374073029,0.35088446736335754,-0.14233684539794922,0.9574475288391113,0.2510668635368347,-0.2697725296020508,-0.12678945064544678,0.2781842052936554,-0.09516683484630072,0.006777434816166866,0.790877676152877,-0.6044914485649273,-1.2780244059107133,-2.6258458181440014,0.3698881922147978
1780771636955259392,2.7331643104553223,-1.0729401111602783,0.31162574887275696,0.3603823482990265,-0.13960227370262146,0.9533771872520447,0.267550528049469,-0.20648232102394104,-0.10259288549423218,0.21056842803955078,-0.09505796807251662,0.009819682232282982,0.7960394706303716,-0.5976527025803494,-1.2642357478398314,-2.66067397059294,0.3306985829768227
1780771636965294336,2.743199348449707,-0.00966933835297823,0.31300991773605347,0.37638023495674133,-0.1369813084602356,0.9524773359298706,0.2720709443092346,-0.1277128905057907,-0.08306223154067993,0.14753037691116333,-0.09521252232657373,0.01247836010756169,0.7974206951016788,-0.5957339248338445,-1.2612678727036069,-2.6751677799119054,0.312131180868984
1780771636975329280,2.753234386444092,0.7757413387298584,0.1946374624967575,0.425640732049942,-0.133800208568573,0.954114556312561,0.2678854465484619,-0.11493328213691711,-0.03391820192337036,0.1400277018547058,-0.09504346869104735,0.014662676862831089,0.7960701793547937,-0.5975147472081669,-1.2666886364350196,-2.6783707305948443,0.3061010971933595
1780771636985364480,2.7632694244384766,1.2897144556045532,0.13429422676563263,0.42212775349617004,-0.13014629483222961,0.9574321508407593,0.2576541304588318,-0.13521930575370789,0.07889902591705322,0.13583946228027344,-0.09450761419445858,0.016372629773671564,0.7928171293619053,-0.6018648165972926,-1.2779710178202224,-2.673857320082796,0.30906475217238255
1780771636995398400,2.773303270339966,1.5270414352416992,0.10854385048151016,0.40664759278297424,-0.12646830081939697,0.9615688920021057,0.24370330572128296,-0.19292867183685303,0.18017011880874634,0.0872599184513092,-0.09382985862218071,0.017670822430418523,0.7883776987892004,-0.6077371367614871,-1.2926603883035537,-2.662905160058017,0.3192961999797951
1780771637005433344,2.7833383083343506,1.4832638502120972,0.08942728489637375,0.44597554206848145,-0.122616246342659,0.9657019376754761,0.22887767851352692,-0.2106814831495285,0.06135183572769165,0.08833728730678558,-0.09307803067438358,0.018945222276506187,0.783632516753996,-0.6139198907374577,-1.3081333239558688,-2.6497726159287436,0.33184855629017723
1780771637015468288,2.7933733463287354,1.2221976518630981,-0.00028848694637417793,0.4938908815383911,-0.11816009134054184,0.9692975282669067,0.21564044058322906,-0.16281525790691376,-0.1323680877685547,0.07510057091712952,-0.09194539821477273,0.02030630436388643,0.7793637627824809,-0.6194561577560427,-1.3223576025562733,-2.6403250130964575,0.34111632646748746
1780771637025503488,2.80340838432312,0.8290631771087646,-0.12843526899814606,0.5317165851593018,-0.1130228266119957,0.9720641374588013,0.20571208000183105,-0.1186666339635849,-0.2509183883666992,0.019706040620803833,-0.09018837027869912,0.021624115636810198,0.7761368663385982,-0.6237067720293618,-1.333870515742824,-2.6391930008059856,0.3429885376961818
1780771637035538432,2.813443422317505,0.5032597780227661,-0.22740419209003448,0.5631618499755859,-0.10736184567213058,0.9740273356437683,0.1993597000837326,-0.09680074453353882,-0.2866036295890808,-0.019366979598999023,-0.08788261748066857,0.02289388660266915,0.7740514964753442,-0.6265754903612861,-1.3423849707162707,-2.647595614275189,0.3361444982091449
1780771637045573120,2.8234782218933105,0.263398140668869,-0.3612140715122223,0.6086488962173462,-0.10104657709598541,0.9753495454788208,0.19617119431495667,-0.057232849299907684,-0.25914764404296875,-0.06430467963218689,-0.08493530149190574,0.02408335412432295,0.7729848581955986,-0.6282519502832855,-1.3482995766014094,-2.665943015305001,0.32035940470177965
1780771637055607296,2.833512306213379,0.3580663204193115,-0.539342999458313,0.6651287078857422,-0.09395025670528412,0.9765386581420898,0.1937674880027771,0.012392021715641022,-0.1501072645187378,-0.12014374136924744,-0.08121639102313663,0.02499353436037062,0.7721781324178068,-0.6296985323841425,-1.3537540508772854,-2.690129597989999,0.300226931788848
1780771637065642240,2.8435473442077637,0.44787663221359253,-0.5580343008041382,0.6644980907440186,-0.08650781214237213,0.9780161380767822,0.1897387057542801,0.08243372291326523,-0.027546226978302002,-0.09270812571048737,-0.07710643531921096,0.025614881005050508,0.7708522760809401,-0.6318110556845768,-1.3607253909576809,-2.7138172310001734,0.28157020373657804
1780771637075677440,2.8535823822021484,1.0703223943710327,-0.7429636716842651,0.8097540736198425,-0.07784347981214523,0.9800057411193848,0.18310950696468353,0.13607102632522583,0.15456146001815796,0.11442159116268158,-0.07226689641631624,0.026186500694685234,0.7686800511269722,-0.6349982061227971,-1.3704903379535147,-2.739620520034839,0.26192227751731284
1780771637085712384,2.863617420196533,1.2035653591156006,-0.7255231738090515,0.8753559589385986,-0.06835193186998367,0.9826462864875793,0.17243731021881104,0.20046252012252808,0.1683242917060852,0.01896895468235016,-0.06694394676087861,0.02664813386161237,0.7651852921717938,-0.6397655631910356,-1.3842264239480415,-2.7642046932054187,0.24435309837429217
1780771637095747328,2.873652219772339,1.455379843711853,-0.6367924809455872,0.9185096025466919,-0.058265555649995804,0.9854450821876526,0.15969760715961456,0.1828688234090805,0.06171995401382446,0.05229271948337555,-0.0615711603034355,0.027464597979327845,0.7609825861799268,-0.6452598518162055,-1.3999726199843763,-2.791750794970466,0.22338162744380555
1780771637105782272,2.8836872577667236,1.4758774042129517,0.27918535470962524,0.24299980700016022,-0.05130963400006294,0.9882860779762268,0.14372915029525757,0.18035322427749634,-0.1444292664527893,-0.013708949089050293,-0.05880107914054838,0.028817017607837277,0.755668016342227,-0.651673175730999,-1.4175850642535637,-2.798705715801862,0.21853189605755105
1780771637115817216,2.8937222957611084,0.23273718357086182,-0.08173075318336487,-0.17762491106987,-0.0520033985376358,0.9893234968185425,0.13614292442798615,0.2686171531677246,-0.05394434928894043,0.2524985074996948,-0.05980721667889516,0.02909415383751761,0.7531434059605907,-0.6544858417581942,-1.42453915904336,-2.776719657225262,0.23872725037829098
1780771637125851392,2.9037563800811768,0.5579930543899536,0.27921268343925476,0.03192778304219246,-0.052658747881650925,0.9898175597190857,0.13224244117736816,0.47084110975265503,0.44923871755599976,0.6224114894866943,-0.06028970975407386,0.028965900334097325,0.7518525126117938,-0.6559297481901731,-1.4279693163086196,-2.7626402343798757,0.25231836871556435
1780771637135886336,2.9137914180755615,0.8270423412322998,0.044331975281238556,-0.32325881719589233,-0.0541924349963665,0.9906237125396729,0.12541045248508453,0.4768608808517456,0.3182904124259949,0.34393465518951416,-0.06153968712142781,0.02890690022430159,0.7495796275874247,-0.6584129703976276,-1.4337492719008946,-2.7337063213228046,0.27958667215748867
1780771637145921280,2.923826217651367,1.5598734617233276,-0.10108353942632675,-0.41937071084976196,-0.05813077092170715,0.9917756915092468,0.11402499675750732,0.30231717228889465,0.2121884822845459,-0.04372776299715042,-0.06285944312154935,0.0268914314199496,0.7458480728533143,-0.6625980355464031,-1.4424561429176663,-2.6701300528051526,0.3441878021093387
1780771637155956224,2.933861255645752,2.3457891941070557,-0.13954225182533264,-0.4352945387363434,-0.06218181923031807,0.9935954809188843,0.09434536099433899,0.17317426204681396,0.2620805501937866,-0.27944985032081604,-0.06408874378597129,0.024319246949959097,0.7393113379729719,-0.669865505081795,-1.4575590331507537,-2.558855737052032,0.4574251079073647
1780771637165991424,2.9438962936401367,2.6328518390655518,-0.21540425717830658,-0.4387452006340027,-0.06648567318916321,0.9953803420066833,0.06926324963569641,0.017718583345413208,0.1630820631980896,-0.426074743270874,-0.06524337698991703,0.021267833676008957,0.7308757105060423,-0.6790519780873849,-1.4746381577603775,-2.376652792343817,0.6423751069340706
1780771637176026368,2.9539313316345215,2.6652231216430664,-0.3774690628051758,-0.35120683908462524,-0.07033931463956833,0.9965925812721252,0.04307620972394943,-0.012515902519226074,-0.10558617115020752,-0.5065618753433228,-0.06581354038340188,0.01792791874937889,0.7219533876936955,-0.6885713013809366,-1.4882206663406037,-2.120287870751398,0.902705240676902
1780771637186060544,2.96396541595459,2.9950060844421387,-0.567167341709137,-0.22087198495864868,-0.07304324954748154,0.9972119331359863,0.015261996537446976,0.0002740919589996338,-0.2529798150062561,-0.49238908290863037,-0.0653248207907614,0.014330266506994618,0.7123381513958498,-0.6986426875805849,-1.496105347064866,-1.7767775338597318,1.2520257748234869
1780771637196095232,2.9740002155303955,3.372089385986328,-0.6510676145553589,-0.12805390357971191,-0.07474815100431442,0.9970700144767761,-0.01625279150903225,-0.03336036950349808,-0.18954437971115112,-0.4351326823234558,-0.06392954366856216,0.010503519068495875,0.7012583546715486,-0.7099573359537714,-1.4942269467420466,-1.3566948437812354,1.6795078455549903
1780771637206130176,2.9840352535247803,3.7371411323547363,-0.5445440411567688,-0.0556340254843235,-0.07590166479349136,0.9957982897758484,-0.05123288556933403,-0.07932599633932114,-0.05146235227584839,-0.2653259038925171,-0.062297642887103814,0.006859714782047173,0.6887209168538926,-0.7223126211299272,-1.4790942419183306,-0.9770533223010971,2.066595434026178
1780771637216165376,2.994070291519165,3.959872007369995,-0.34699851274490356,0.021618152037262917,-0.07637002319097519,0.9930599331855774,-0.08944163471460342,-0.10453817993402481,0.004895508289337158,-0.10434503108263016,-0.06091814518235189,0.003967755394956801,0.6747321250245805,-0.7355337559800892,-1.4529140352345289,-0.7067267878963044,2.342912608535816
1780771637226200320,3.00410532951355,4.0137152671813965,-0.1255694329738617,0.06781334429979324,-0.07616613060235977,0.9887184500694275,-0.12897562980651855,-0.08154870569705963,0.02708965539932251,0.08084940910339355,-0.06003753576703636,0.002052984127991886,0.659930277843296,-0.7489215082668733,-1.4204446994908457,-0.5334395256362435,2.5200675476265486
1780771637236235264,3.0141403675079346,3.9554286003112793,0.042344726622104645,0.1375569999217987,-0.07522071152925491,0.9828352332115173,-0.16845330595970154,-0.07341515272855759,0.07900851964950562,0.17890562117099762,-0.05955257154112903,0.0010359033902334733,0.6448040564499179,-0.7620236321146902,-1.3852479976248209,-0.4199707465034964,2.635539577410746
1780771637246269184,3.024174213409424,3.947380781173706,0.14332953095436096,0.181392639875412,-0.0734407901763916,0.9755141139030457,-0.2073126584291458,-0.0847165584564209,0.15577244758605957,0.1457129269838333,-0.059263742539499044,0.0007610276659170277,0.6295578557550274,-0.7746896632290455,-1.3490466717523462,-0.3404571868399052,2.715696969208707
1780771637256304384,3.0342092514038086,4.043534278869629,0.12696999311447144,0.2422455996274948,-0.07109908759593964,0.9665883183479309,-0.2462766021490097,-0.08351822197437286,0.19022637605667114,0.04754611849784851,-0.058928606918560056,0.00079542035312269,0.6138901099490268,-0.7871885712017965,-1.311568899304003,-0.28105422511798606,2.775335973676012
1780771637266339328,3.0442442893981934,4.5637712478637695,0.0550360232591629,0.46869364380836487,-0.06749121099710464,0.9553871750831604,-0.2875421941280365,-0.044203124940395355,0.13033682107925415,-0.035318523645401,-0.05783054585399682,0.0009627562139648837,0.5968483722180226,-0.800266739269486,-1.2709678199885033,-0.23054431846552423,2.8269343425717515
1780771637276374272,3.054279327392578,4.950491905212402,-0.17243841290473938,0.38482537865638733,-0.06331053376197815,0.9407293200492859,-0.3331969380378723,0.021135248243808746,0.04294377565383911,-0.2738587260246277,-0.0558787645018521,0.0007484267562147974,0.5774088383629947,-0.8145404394275315,-1.2247743739425991,-0.18777097669300527,2.8725027677190624
1780771637286409472,3.064314365386963,4.822300434112549,-0.27984195947647095,0.1661982387304306,-0.061695508658885956,0.923351526260376,-0.3789665699005127,0.0034679770469665527,0.13283133506774902,-0.2801215648651123,-0.05409783023135133,-0.0008475883177694709,0.5572396178213727,-0.8285872210078744,-1.1767198431228578,-0.1613835324524602,2.9033972030098263
1780771637296444416,3.0743494033813477,4.584475040435791,-0.21620601415634155,0.0968918725848198,-0.06155497953295708,0.9045494794845581,-0.42190179228782654,-0.06700031459331512,0.2685309052467346,-0.1457403600215912,-0.05283417953848921,-0.0028192820447228793,0.5376254755287994,-0.8415220635315956,-1.1303219139073364,-0.14487662799148393,2.924217578748856
1780771637306478336,3.084383249282837,4.405035972595215,-0.21739456057548523,0.00016319449059665203,-0.06205908581614494,0.8846070170402527,-0.4621894955635071,-0.11530907452106476,0.3076232075691223,-0.058730363845825195,-0.051952254142590845,-0.00479259597280766,0.5185386105131201,-0.853461051234674,-1.0856506906542314,-0.13347364979073387,2.939400229246518
1780771637316513280,3.0944182872772217,4.281095504760742,-0.1836102455854416,-0.08320466428995132,-0.06350001692771912,0.8636446595191956,-0.5000856518745422,-0.10921420902013779,0.38258641958236694,-0.02931797504425049,-0.05150281987060729,-0.006944092878931233,0.4999089357332078,-0.8645173987177216,-1.0424555293387527,-0.1263023620609754,2.9499985581343537
1780771637326548224,3.1044533252716064,4.717175483703613,-0.16972078382968903,-0.13747936487197876,-0.06526214629411697,0.8404625058174133,-0.5379254221916199,-0.05268828570842743,0.47882771492004395,-0.06655144691467285,-0.051422276601467,-0.009045785655517488,0.4805782470086229,-0.8753962458612624,-0.9981361415730379,-0.12073187784763897,2.958377801940312
1780771637336583424,3.114488363265991,5.967285633087158,-0.3304827809333801,-0.23844298720359802,-0.06824574619531631,0.8103911280632019,-0.581900954246521,0.025475360453128815,0.5076935887336731,-0.2218252420425415,-0.051328695336597466,-0.01200905681328644,0.45706159811580094,-0.8878714841553977,-0.9448193404246231,-0.11674736808810561,2.9663911272604517
1780771637346618368,3.124523401260376,6.558809280395508,-0.14314138889312744,-0.41330376267433167,-0.07235714048147202,0.7716139554977417,-0.631962239742279,0.057205162942409515,0.555122435092926,-0.31519651412963867,-0.05182705425794579,-0.015480302549680526,0.4286948103953841,-0.9018286954394571,-0.8813745808516337,-0.11399956414035461,2.9729713740841746
1780771637356653312,3.1345582008361816,6.801046848297119,0.03945346549153328,-0.47594767808914185,-0.07612486183643341,0.727085530757904,-0.6823135018348694,-0.04493837058544159,0.644984781742096,-0.06426858901977539,-0.05325624027301769,-0.018413906447924823,0.39812584736056134,-0.9155984922641036,-0.814067252793093,-0.11110925632328,2.977452264973902
1780771637366688256,3.1445932388305664,6.380739688873291,0.08004443347454071,-0.42319393157958984,-0.07894209027290344,0.679809033870697,-0.7291282415390015,-0.11891862750053406,0.5525518655776978,0.1836569905281067,-0.054815657534712736,-0.020825547666250877,0.3674264321382557,-0.9282023273091324,-0.7475021776096091,-0.10784904033287673,2.9812868164921
1780771637376722432,3.1546273231506348,5.989298343658447,0.2945668399333954,-0.27857524156570435,-0.07993973046541214,0.6332100629806519,-0.769840657711029,-0.14895737171173096,0.36457741260528564,0.44699519872665405,-0.05611851165292682,-0.022335756494448515,0.338497824976047,-0.9390266838755106,-0.6856937098342609,-0.10346849539152544,2.985248663409708
1780771637386757376,3.1646623611450195,5.642085075378418,0.40309959650039673,-0.23808053135871887,-0.07859677821397781,0.5869065523147583,-0.8058307766914368,-0.17482119798660278,0.1119459867477417,0.41384774446487427,-0.05720026316963978,-0.022691756659448795,0.31075666145067465,-0.9484953929833094,-0.6272328532637622,-0.09722756024091617,2.989570865162326
1780771637396792320,3.1746973991394043,5.117502212524414,0.38176846504211426,-0.31306955218315125,-0.07686319202184677,0.5424887537956238,-0.8365393280982971,-0.19327840209007263,-0.04929417371749878,0.3055334687232971,-0.05850589120621337,-0.022748778982988275,0.28497864866905115,-0.9564762363448877,-0.5733968430843983,-0.09162507608099349,2.992378344494092
1780771637406827264,3.18473219871521,4.9648027420043945,0.44899052381515503,-0.27828654646873474,-0.07506253570318222,0.4996083080768585,-0.8629931211471558,-0.11487887054681778,-0.01726272702217102,0.21339595317840576,-0.05997835607043205,-0.022726972631979724,0.2607430020167592,-0.963275251359154,-0.5231465484667699,-0.08676093937287979,2.993983141052641
1780771637416862208,3.1947672367095947,4.898560523986816,0.4255232810974121,-0.19344781339168549,-0.07238201797008514,0.45613589882850647,-0.8869616389274597,0.00037579983472824097,0.12552914023399353,0.19763058423995972,-0.061105990755230676,-0.022414279713076482,0.23667867010932703,-0.9694054945714334,-0.47364823279375634,-0.08142627498009075,2.996027532524738
1780771637426897408,3.2048022747039795,4.350210189819336,0.5686858892440796,-0.0996885672211647,-0.06879489868879318,0.41423192620277405,-0.9075677394866943,0.006889991462230682,0.18746790289878845,0.25870299339294434,-0.061860816498155016,-0.02171704593069948,0.21387966614608453,-0.9746574031227528,-0.4270987684486611,-0.07565671421287135,2.9984100321654736
1780771637436931328,3.214836359024048,3.709115982055664,0.6828734278678894,-0.012407192029058933,-0.0631292387843132,0.37743234634399414,-0.9238828420639038,-0.0568048432469368,0.02434682846069336,0.3469938039779663,-0.062352662581521154,-0.019885367104299643,0.19406993368907902,-0.9788021708453143,-0.3870219778008029,-0.06822429651833346,3.0009841017010808
1780771637446966528,3.2248713970184326,3.3043317794799805,0.6904515624046326,-0.045598167926073074,-0.056871816515922546,0.3447900712490082,-0.9369553923606873,-0.058377813547849655,-0.24365481734275818,0.26927655935287476,-0.06278713418890318,-0.017659604743347924,0.176664763331276,-0.9821077157825967,-0.35201512393315887,-0.060624151456680535,3.003119354549489
1780771637457001472,3.2349064350128174,2.7041842937469482,0.7082103490829468,-0.023087000474333763,-0.05031396448612213,0.31617048382759094,-0.947367250919342,0.015127204358577728,-0.33457261323928833,0.20983374118804932,-0.06334911140813161,-0.015156858901964637,0.16151358412471292,-0.9847185489952296,-0.3216901884952291,-0.05305940056086158,3.0044946480494255
1780771637467036160,3.244941234588623,2.0807127952575684,0.6169657707214355,0.1338759809732437,-0.04385998472571373,0.2934635281562805,-0.9549635648727417,0.10684826970100403,-0.2634037435054779,0.3174208998680115,-0.06489241568071082,-0.01239219272371399,0.14954811753312028,-0.9865448617415101,-0.29784789057876054,-0.045896184016015015,3.0033397677661466
1780771637477071360,3.254976272583008,1.8130332231521606,0.5060054659843445,0.1931941658258438,-0.03800681605935097,0.2751137912273407,-0.9606601595878601,0.17207053303718567,-0.2708260715007782,0.2969333529472351,-0.06434153086550333,-0.010124334856965681,0.13988363669064957,-0.9880234553255552,-0.27870806563035094,-0.03954260467780174,3.0059863144483923
1780771637487106304,3.2650113105773926,1.769137978553772,0.44433289766311646,0.16671834886074066,-0.03293248265981674,0.2578738331794739,-0.9656171798706055,0.19426366686820984,-0.2514041066169739,0.17299938201904297,-0.06368524333790644,-0.008220311619527122,0.13085807104638952,-0.9893194262945391,-0.26082096597107524,-0.03409190002433508,3.0085527619210506
1780771637497140480,3.275045394897461,1.7384048700332642,0.37171462178230286,0.2375352680683136,-0.028649404644966125,0.24091358482837677,-0.9701236486434937,0.22097118198871613,-0.08947010338306427,0.18708837032318115,-0.06291997143753568,-0.0067098034961591245,0.12203754606253112,-0.990506393503988,-0.24330704377699905,-0.029523123835774448,3.0111073865869753
1780771637507175424,3.2850804328918457,1.5753178596496582,0.36032015085220337,0.4078473448753357,-0.024201348423957825,0.22479605674743652,-0.9741052389144897,0.23436065018177032,-0.021457433700561523,0.19308412075042725,-0.06147885840525857,-0.005155693779723836,0.11366968423686075,-0.9916011955161185,-0.22673373150555257,-0.02483958646457386,3.014923747550916
1780771637517210368,3.2951152324676514,1.2376642227172852,0.29386284947395325,0.43708565831184387,-0.02002420835196972,0.21083283424377441,-0.9773170351982117,0.16327372193336487,-0.20268464088439941,0.21547621488571167,-0.05947301701690794,-0.0037099863156845724,0.10643180422094836,-0.9925328624745127,-0.2124268709466257,-0.02048609208903609,3.0197106797563498
1780771637527245312,3.305150270462036,0.7654842138290405,0.27448514103889465,0.5055321455001831,-0.016245601698756218,0.20119602978229523,-0.9794162511825562,0.11246752738952637,-0.3684018552303314,0.23811382055282593,-0.05728357676678305,-0.0023288401580586655,0.10142208448543757,-0.9931901794913286,-0.2025787641797708,-0.01658550369342705,3.02468188148286
1780771637537280256,3.315185308456421,0.35598185658454895,0.26152995228767395,0.5438486337661743,-0.012665028683841228,0.195734903216362,-0.9805750846862793,0.121963731944561,-0.3499249815940857,0.2080836296081543,-0.0548105110275199,-0.0009370572120436764,0.09854741572484725,-0.9936212738538429,-0.19700678612579542,-0.012915201241180597,3.0301032471346474
1780771637547315456,3.3252203464508057,0.22472532093524933,0.24168886244297028,0.6491638422012329,-0.009083708748221397,0.1931840032339096,-0.9811205267906189,0.16632552444934845,-0.2536851167678833,0.2694811224937439,-0.051941591847393324,0.0005077285357637103,0.09715705435204122,-0.9939126652934644,-0.1944062442468547,-0.00925823990054583,3.0362654457019147
1780771637557349376,3.335254430770874,0.21853214502334595,0.3286655843257904,0.6619028449058533,-0.004975910764187574,0.1910989135503769,-0.9815581440925598,0.16224825382232666,-0.22916960716247559,0.3309234380722046,-0.04882594470276431,0.0022122140847768376,0.09600010526788035,-0.9941806206535954,-0.1922815725305826,-0.005069356496158697,3.0429591400483154
1780771637567384320,3.3452892303466797,0.31857138872146606,0.47987106442451477,0.679931640625,2.2961723516345955e-05,0.18841490149497986,-0.9820895195007324,0.11025230586528778,-0.23257383704185486,0.3944888114929199,-0.04566516271232983,0.0043523931866375635,0.09453199596359402,-0.9944643448605068,-0.18954789264692054,2.338047912587682e-05,3.0498206206565333
1780771637577419264,3.3553242683410645,0.36208078265190125,0.7606683373451233,0.6422945261001587,0.007337686140090227,0.18494103848934174,-0.9827222228050232,0.08952511101961136,-0.15433190762996674,0.3640851378440857,-0.04269416421440001,0.0076637588368767915,0.09262912066621821,-0.9947554478161631,-0.1860118674380731,0.007466555025333475,3.0565032422399883
1780771637587454208,3.365359306335449,0.035821180790662766,0.8453471660614014,0.6248646378517151,0.016545066609978676,0.18266825377941132,-0.9830353856086731,0.07047580927610397,-0.13730388879776,0.4012787938117981,-0.03988659385413606,0.011975347479689709,0.09131756865075684,-0.9949506555562794,-0.18369969476507342,0.016829001664788845,3.063007673402993
1780771637597489408,3.375394344329834,-0.6799888014793396,0.8470094799995422,0.5691129565238953,0.026080863550305367,0.18549327552318573,-0.9822993874549866,0.15018866956233978,-0.14304332435131073,0.4288020730018616,-0.037253173104582885,0.01657530723453217,0.0926044197502554,-0.9948678231910588,-0.18657383094897673,0.026544592999826724,3.0692205515838538
1780771637607524352,3.3854293823242188,-1.7419309616088867,0.5286632180213928,0.3662967085838318,0.034271880984306335,0.1974768042564392,-0.9797083139419556,0.26855406165122986,-0.12156432867050171,0.35356390476226807,-0.03504651258847254,0.020708751281874316,0.09857482669143926,-0.9942967692555543,-0.19878336672432312,0.034967460843004255,3.074614078031881
1780771637617559552,3.3954644203186035,-2.3143370151519775,-0.335342139005661,-0.0629233568906784,0.03518012911081314,0.21731825172901154,-0.9754666090011597,0.28693291544914246,-0.20079298317432404,0.47641265392303467,-0.03413101539090089,0.021443218540997667,0.10865945596461263,-0.9932614517656732,-0.2190662210778793,0.03604929994078682,3.0768594250225445
1780771637627593216,3.4054982662200928,-2.788602590560913,-0.3826354444026947,-0.33973926305770874,0.031083477661013603,0.24272793531417847,-0.969596266746521,0.26249563694000244,-0.017874419689178467,0.006186842918395996,-0.03470493200002524,0.019928599578034233,0.12167458245839494,-0.9917629674413293,-0.2451768928083645,0.03204718934673213,3.075583606216797
1780771637637628416,3.4155333042144775,-1.6219112873077393,-0.5934614539146423,-0.17166262865066528,0.02563014253973961,0.2650955021381378,-0.9638814330101013,0.07725986838340759,0.6086532473564148,-0.3852090835571289,-0.035588132035209004,0.017727917038369692,0.1332103255721898,-0.9902899280412287,-0.26830295868173665,0.026584289690338284,3.07333747709551
1780771637647663360,3.4255683422088623,-0.542759358882904,-0.3792617619037628,-0.24277062714099884,0.020474687218666077,0.27491843700408936,-0.9612495303153992,-0.14797712862491608,0.9000998735427856,-0.5905235409736633,-0.03608360927624808,0.015389143880734526,0.1383416604827559,-0.9896073667033798,-0.27850487726365825,0.02129685528781639,3.0716849130054027
1780771637657697792,3.4356026649475098,-0.1105237752199173,-0.005097489804029465,0.035507600754499435,0.01823943667113781,0.2776793837547302,-0.9605006575584412,-0.35333770513534546,0.8874817490577698,-0.43145185708999634,-0.03670795043504717,0.014403999746480515,0.13979342565986067,-0.9893952374533667,-0.28137764776020585,0.018987228568246094,3.0701130098165046
1780771637667732736,3.4456377029418945,-0.4826206564903259,0.10375655442476273,0.3061404228210449,0.019258329644799232,0.280236154794693,-0.9597378969192505,-0.4373796582221985,0.3704749047756195,-0.128747820854187,-0.035659920018798946,0.014820513095325463,0.14110777812029637,-0.9892408577010969,-0.28404011338559826,0.02006354643801897,3.072397175001628
1780771637677767680,3.4556727409362793,-1.1214485168457031,0.08379003405570984,0.22333768010139465,0.021056944504380226,0.28774550557136536,-0.9574754238128662,-0.4303892254829407,-0.37966445088386536,0.11898970603942871,-0.034384281969954085,0.015690218808733985,0.14496937342139696,-0.9887140490841225,-0.2918719484640522,0.021988606946198457,3.075299167060232
1780771637687801600,3.4657065868377686,-1.8710447549819946,-0.0839182659983635,0.33394408226013184,0.02189636044204235,0.30213695764541626,-0.953013002872467,-0.3007659912109375,-0.6692177057266235,0.14148962497711182,-0.032866541809932065,0.016157518727089516,0.1524218644557844,-0.9876367731908184,-0.30693358858766423,0.022971888046251082,3.0786147964958546
1780771637697836544,3.4757416248321533,-2.144378423690796,-0.18656209111213684,0.31214213371276855,0.021623527631163597,0.3215254843235016,-0.9466540217399597,-0.07742491364479065,-0.3656386435031891,0.005949676036834717,-0.031020995301676364,0.016077169357928328,0.16252544870283553,-0.9860856086412233,-0.32734006259150605,0.022838089283662696,3.0824677637219144
1780771637707871744,3.485776662826538,-1.6611570119857788,-0.29714226722717285,0.40314286947250366,0.020450348034501076,0.3399946987628937,-0.9402049779891968,0.006374603137373924,0.10576030611991882,-0.023982644081115723,-0.028867020597266802,0.015435638306157951,0.17221863428500772,-0.9845146931578557,-0.34691127620062434,0.021747517085734993,3.086777985274239
1780771637717906688,3.495811700820923,-0.9443304538726807,-0.23586079478263855,0.3309831917285919,0.019197002053260803,0.3519423305988312,-0.9358248114585876,0.013044821098446846,0.3703477084636688,-0.12051063776016235,-0.026685949381235724,0.014604350262274074,0.17853377061009273,-0.9834634200293189,-0.35964538403121354,0.020510580522764114,3.0910653107776325
1780771637727941632,3.5058467388153076,-0.5284872055053711,-0.12771448493003845,0.2917388379573822,0.018536653369665146,0.35868507623672485,-0.9332745671272278,-0.07027920335531235,0.41006797552108765,-0.12832516431808472,-0.02496643361810838,0.014055956247278761,0.18211300630604915,-0.982860144921729,-0.3668588639207167,0.019859339921374904,3.094484264007819
1780771637737976832,3.5158817768096924,-0.29099395871162415,-0.0696123018860817,0.2774712145328522,0.018772853538393974,0.3623955249786377,-0.9318353533744812,-0.060642972588539124,0.2820594012737274,-0.1334722638130188,-0.023415735970271752,0.013940467028880129,0.18408693884390115,-0.9825321914494706,-0.3708368672520782,0.020143380808265315,3.09771609817065
1780771637748011520,3.525916576385498,-0.06925942748785019,-0.09444760531187057,0.17796407639980316,0.018826501443982124,0.3640287220478058,-0.931197464466095,-0.014752402901649475,0.10110494494438171,-0.08575505018234253,-0.0221950718307044,0.013760769218458889,0.18496464952326852,-0.982398181683048,-0.37258975202837835,0.020214765084484252,3.1002250640071716
1780771637758045696,3.5359506607055664,0.043940093368291855,-0.08556117117404938,0.13231563568115234,0.0185481496155262,0.36401447653770447,-0.931208610534668,0.0286472886800766,0.021437793970108032,-0.10385608673095703,-0.02134781399066556,0.013459436192679418,0.1849717419402689,-0.9824198069537939,-0.3725744543002058,0.01991572720301799,3.1018935245448485
