time,seconds_elapsed,rotationRateX,rotationRateY,rotationRateZ,gravityX,gravityY,gravityZ,accelerationX,accelerationY,accelerationZ,quaternionW,quaternionX,quaternionY,quaternionZ,pitch,roll,yaw
1781551845457861120,0.025492191314697266,0.08838057518005371,-0.04904109239578247,0.025547640398144722,-0.0608234629034996,-0.2772901654243469,-0.9588590264320374,0.042436618357896805,0.015006840229034424,0.012920916080474854,0.759732862107203,0.12723832472529525,0.06618826607419084,0.6342203277281144,0.2809725173620178,-0.06334828807443274,1.4001606523275387
1781551845467896320,0.03552722930908203,0.028235213831067085,-0.044674042612314224,0.010921293869614601,-0.061320334672927856,-0.27785438299179077,-0.958664059638977,0.060084372758865356,0.011390149593353271,0.01937878131866455,0.7596488221123906,0.12761954035713594,0.06619083521727409,0.6342442337271912,0.28155981259626944,-0.06387734077072134,1.4004007485470211
1781551845477930240,0.04556131362915039,0.01154118962585926,0.004972473718225956,-0.017057344317436218,-0.061501841992139816,-0.27803269028663635,-0.9586006999015808,0.020150519907474518,-0.015698999166488647,0.01939171552658081,0.759657856998373,0.12775176276560707,0.06617494971876996,0.6342084063159916,0.2817454276212883,-0.06407012159522313,1.4003668232443305
1781551845487965440,0.055596351623535156,0.017484566196799278,0.007729644421488047,-0.027494804933667183,-0.0612894669175148,-0.2781795859336853,-0.95857173204422,-0.005971267819404602,-0.03934052586555481,0.006423294544219971,0.7597185255689044,0.12774785884867834,0.06629202683450217,0.6341242365308428,0.2818983735738613,-0.06385140502512798,1.4001315276194541
1781551845498000384,0.06563138961791992,0.03723296895623207,-0.027294252067804337,-0.024361595511436462,-0.0613289475440979,-0.2784857749938965,-0.9584802985191345,0.007785860449075699,-0.028566837310791016,0.008590161800384521,0.7597877325214163,0.12789148083627697,0.0663598589264561,0.63400533221886,0.282217143378713,-0.06389850452895654,1.3998745750014105
1781551845508034304,0.07566523551940918,0.002228913828730583,-0.021143149584531784,-0.02772197313606739,-0.06147859990596771,-0.2787095010280609,-0.9584056735038757,0.036881428211927414,-0.020118623971939087,0.007493197917938232,0.759868705469198,0.1280391485983908,0.06635621808442557,0.6338788890707172,0.2824500970181187,-0.0640589738076558,1.3996039828461686
1781551845518069248,0.08570027351379395,-0.052989598363637924,-0.04112125188112259,-0.02873770147562027,-0.06166883930563927,-0.278500497341156,-0.9584541916847229,0.03345533460378647,-0.049929678440093994,0.0217323899269104,0.7599836110076719,0.12802906571562603,0.0661926280535662,0.6337602406346277,0.2822324799651581,-0.06425340800398903,1.3992915828518677
1781551845528104192,0.09573531150817871,-0.10308125615119934,-0.024541474878787994,-0.03475937619805336,-0.06188966706395149,-0.27776598930358887,-0.9586530923843384,0.02175905555486679,-0.05566906929016113,0.02434217929840088,0.7601449366327504,0.12782177266234174,0.06584114703952766,0.6336451602979306,0.2814678076686948,-0.06446951414556802,1.39890966856754
1781551845538139392,0.10577034950256348,-0.11256371438503265,-0.053191762417554855,-0.035342875868082047,-0.0621078684926033,-0.2767564058303833,-0.9589309096336365,0.023396320641040802,-0.0490950345993042,0.009773194789886475,0.7603423119694058,0.1275063108900586,0.06539634571022196,0.6335179934906346,0.2804170262398475,-0.06467748517205135,1.398451743712523
1781551845548173312,0.11580419540405273,-0.10354891419410706,-0.07786834239959717,-0.020147142931818962,-0.06269270926713943,-0.27574142813682556,-0.9591852426528931,0.03144270181655884,-0.02395644783973694,0.007601380348205566,0.7605213705238855,0.12730650069764227,0.06481082135392122,0.6334033814096676,0.279360935301191,-0.06526754085214147,1.3980903663242326
1781551845558208256,0.1258392333984375,-0.08703066408634186,-0.06970815360546112,-0.0306080412119627,-0.06330803781747818,-0.2748698592185974,-0.9593949317932129,0.04234246164560318,-0.017656385898590088,0.0005021095275878906,0.7606873514454204,0.12717302043742076,0.06426158900767306,0.6332868154708171,0.2784543360603938,-0.06589193518364879,1.3977521381089497
1781551845568243200,0.13587427139282227,-0.10624642670154572,-0.08426712453365326,-0.021500295028090477,-0.06396984308958054,-0.27398186922073364,-0.9596050381660461,0.032887689769268036,-0.023747652769088745,0.010950863361358643,0.7608619528370459,0.1270488406590306,0.06368738981688236,0.6331599042398443,0.2775308944854613,-0.06656419249326025,1.3973922128532261
1781551845578278400,0.14590930938720703,-0.11397412419319153,-0.06464508920907974,-0.006833202205598354,-0.0646480843424797,-0.2729050815105438,-0.9598663449287415,0.027615003287792206,-0.01913285255432129,0.01043403148651123,0.7610082879004958,0.1268509489467423,0.06305277781593209,0.6330873187358617,0.27641144374463517,-0.06724956411084049,1.397147931000699
1781551845588312064,0.1559431552886963,-0.0870351791381836,-0.06560302525758743,-0.004296274855732918,-0.06519360840320587,-0.2719205915927887,-0.9601088166236877,0.02439161390066147,-0.030935853719711304,0.008601248264312744,0.7611132546983642,0.12664279636213524,0.06250748607916007,0.6330567822819828,0.27538827056979254,-0.0677982406440781,1.397005797669755
1781551845598347264,0.16597819328308105,-0.0521770715713501,-0.05545012652873993,-0.01177203468978405,-0.06575765460729599,-0.27125680446624756,-0.9602581262588501,0.018318071961402893,-0.014296174049377441,0.004737496376037598,0.7612017261432243,0.12656821474077123,0.06205982994921826,0.6330094470259289,0.27469855291091594,-0.0683723993814644,1.3968737058647809
1781551845608382208,0.17601323127746582,-0.028801972046494484,-0.04459880664944649,-0.01820543222129345,-0.06614327430725098,-0.2709102928638458,-0.9603294730186462,0.021068811416625977,-0.0006045997142791748,-0.00707775354385376,0.7612990806060607,0.12656401969205056,0.06178037081774619,0.6329206229410462,0.2743385539198225,-0.06876700643945283,1.3966520854645161
1781551845618417152,0.18604826927185059,-0.020913954824209213,-0.05628303065896034,-0.02315651625394821,-0.06657014042139053,-0.2706902325153351,-0.9603620171546936,0.020427562296390533,-0.003006666898727417,-0.0069383978843688965,0.7613961675945569,0.12662414873808436,0.061524880245080446,0.6328167189450258,0.27410995611295247,-0.06920705205194648,1.3964180872634775
1781551845628451328,0.19608235359191895,-0.01115213893353939,-0.023975687101483345,-0.02856273204088211,-0.06687105447053909,-0.2705638110637665,-0.9603767395019531,0.017539389431476593,-0.00922134518623352,0.001575469970703125,0.7615036149478956,0.1266818561813809,0.061346030135336835,0.6326932199331755,0.2739786448220815,-0.06951782004706931,1.3961257272376326
1781551845638486272,0.2061171531677246,-0.028683993965387344,-0.027729013934731483,-0.016630705446004868,-0.06702223420143127,-0.270422101020813,-0.9604061245918274,0.016057878732681274,-0.012124896049499512,0.008196651935577393,0.7615979722874747,0.12668323092822312,0.06122336021859111,0.6325912665880948,0.2738314497080701,-0.06967235355856191,1.3958616331806855
1781551845648521216,0.21615219116210938,-0.06323264539241791,-0.004475090652704239,-0.002545779338106513,-0.06716815382242203,-0.2699936032295227,-0.9605164527893066,0.022292055189609528,-0.010340869426727295,0.01428842544555664,0.7616703598725784,0.12656519906070535,0.061016486007022176,0.6325476965318146,0.2733863812673942,-0.06981555032326843,1.3957043782175695
1781551845658556160,0.22618722915649414,-0.06912809610366821,0.020085513591766357,0.006243983283638954,-0.06704629212617874,-0.269353985786438,-0.9607045650482178,0.016936421394348145,-0.02247035503387451,0.018047094345092773,0.761701502574619,0.12627082304201478,0.060855618563268155,0.6325844634005405,0.27272216533775295,-0.06967569585569237,1.395678398753846
1781551845668591360,0.2362222671508789,-0.054851680994033813,0.02883639559149742,0.012243819423019886,-0.06684339791536331,-0.2687475383281708,-0.9608885049819946,0.013056159019470215,-0.019216328859329224,0.009625077247619629,0.7617031966000298,0.12596059011743266,0.06074271094392155,0.6326551411956824,0.27209250326525447,-0.06945226739215853,1.3957330828856243
1781551845678625280,0.24625635147094727,-0.03639650717377663,0.049190934747457504,0.006637332960963249,-0.06645496189594269,-0.26833733916282654,-0.9610300660133362,0.018725469708442688,-0.016651064157485962,-0.0028828978538513184,0.7616901942918264,0.1256674852417491,0.06076710053932162,0.632726787172777,0.27166664254997935,-0.06903981553305238,1.3957897344137347
1781551845688660480,0.25629138946533203,-0.0030651837587356567,0.03747169300913811,0.009072527289390564,-0.06603041291236877,-0.26813289523124695,-0.961116373538971,0.01631728559732437,-0.008875131607055664,0.0007435083389282227,0.7616685283830199,0.12544465891844075,0.06087231911464114,0.6327868880035169,0.271454447519494,-0.06859399990931869,1.3958425482573364
1781551845698695168,0.2663261890411377,0.016458982601761818,0.05935794860124588,-0.008742156438529491,-0.06557395309209824,-0.26822787523269653,-0.961121141910553,0.020957253873348236,-0.0014712214469909668,1.5795230865478516e-05,0.7616459956143883,0.12533184643859044,0.06108481778845586,0.6328158851247115,0.27155303463115604,-0.06812095498203835,1.3958554234657097
1781551845708729344,0.27636027336120605,0.015589727088809013,0.04281546175479889,-0.015488741919398308,-0.06498005986213684,-0.26839494705200195,-0.9611148238182068,0.021629847586154938,-0.006644695997238159,0.010477066040039062,0.7616665106452521,0.12520738943929305,0.061365174497801545,0.6327887530003831,0.2717264445252363,-0.06750631525302073,1.395708754886345
1781551845718764288,0.2863953113555908,0.00624123215675354,0.01778254471719265,-0.0038299558218568563,-0.06467831879854202,-0.26850658655166626,-0.9611040353775024,0.030208714306354523,-0.01030200719833374,0.011824250221252441,0.7616840519566398,0.12515564239398425,0.06151467946620535,0.6327634008498787,0.27184235300212417,-0.0671945444655941,1.3956080822076216
1781551845728799232,0.2964303493499756,-0.02431561052799225,0.03107491508126259,-0.008426571264863014,-0.06438802182674408,-0.26841825246810913,-0.961148202419281,0.03138326108455658,-0.02139192819595337,0.012844979763031006,0.7616992845554238,0.1250269200340811,0.06159691116721639,0.632762412234039,0.27175064861109866,-0.06689079298936068,1.3955420463258144
1781551845738834432,0.30646538734436035,-0.04439930617809296,0.0018493849784135818,-0.006245709024369717,-0.0641971156001091,-0.26810410618782043,-0.9612486362457275,0.0276217982172966,-0.014076679944992065,0.01988816261291504,0.7617363793334337,0.12484182124234815,0.06156466007099865,0.6327575031924688,0.2714245599416915,-0.06668610339067955,1.3954475285703305
1781551845748868352,0.3164992332458496,-0.038437023758888245,-0.009944956749677658,-0.007180212065577507,-0.06420673429965973,-0.26766785979270935,-0.9613695740699768,0.03561176359653473,-0.01638975739479065,0.008793890476226807,0.7617932781982907,0.1246748934753912,0.0614116905118847,0.6327367009657594,0.27097174746419483,-0.06668770206719046,1.3953265172961746
1781551845758903296,0.3265342712402344,-0.00045368820428848267,-0.04269983991980553,-0.00539562851190567,-0.0644240751862526,-0.26748305559158325,-0.9614064693450928,0.03534083068370819,-0.014468848705291748,-0.0032236576080322266,0.7618347808077444,0.12467537907808755,0.06126032639673825,0.6327013856576912,0.27077996907953844,-0.06691020797254757,1.3952420242631134
1781551845768938240,0.33656930923461914,0.007938997820019722,-0.04222020506858826,-0.016984106972813606,-0.06481701135635376,-0.2675425112247467,-0.9613634943962097,0.03367382287979126,-0.0008901059627532959,-0.0015118718147277832,0.7618797703567836,0.12483174003306693,0.06111702554245188,0.6326302118981278,0.27084165892866363,-0.06732007586153498,1.3951313734632829
1781551845778973440,0.3466043472290039,0.019257431849837303,-0.033910345286130905,-0.015819506719708443,-0.06503674387931824,-0.2677060067653656,-0.9613031148910522,0.026920288801193237,-0.007715106010437012,0.009398877620697021,0.761942263606305,0.1249752057239501,0.06107068601291362,0.6325311238256441,0.2710113414817093,-0.06755182852183494,1.3949342767205966
1781551845789008384,0.35663938522338867,0.001505066640675068,-0.05456635355949402,0.005003483034670353,-0.06539521366357803,-0.2678739130496979,-0.96123206615448,0.028438426554203033,-0.014749377965927124,0.01340186595916748,0.7619671103769518,0.12516203543663668,0.06097903037565545,0.6324731097258736,0.27118560742111253,-0.06792802964473074,1.3948694738362983
1781551845799042304,0.36667323112487793,-0.022250330075621605,-0.037030503153800964,0.002817560685798526,-0.06575339287519455,-0.2678314745426178,-0.9612194299697876,0.029132306575775146,-0.030126899480819702,0.013099312782287598,0.7619762888010695,0.12526259222336364,0.0608240813068089,0.6324570196377748,0.2711415804567298,-0.06829982693831893,1.394881822103002
1781551845809077248,0.3767082691192627,-0.037777092307806015,-0.0423206090927124,0.002106762956827879,-0.06599682569503784,-0.26763784885406494,-0.9612566828727722,0.020296752452850342,-0.01999032497406006,0.016813933849334717,0.7620023837249886,0.1252664843766167,0.060662748140215925,0.6324402948521102,0.27094061096446803,-0.06854924742512751,1.3948492016808753
1781551845819112192,0.38674330711364746,-0.043974798172712326,-0.03068152815103531,-0.004944222047924995,-0.06627675145864487,-0.26730719208717346,-0.9613294005393982,0.023018091917037964,-0.01585012674331665,0.012415885925292969,0.7620402251434031,0.12522822204357134,0.06044155114971546,0.6324234885696274,0.27059745449758416,-0.06883388939273732,1.3948011248802885
1781551845829146368,0.3967773914337158,-0.01722201518714428,-0.02798561006784439,-0.006182326003909111,-0.0663766860961914,-0.26709064841270447,-0.9613826870918274,0.020554549992084503,-0.018889546394348145,0.004870295524597168,0.7620935972010838,0.12517871465531485,0.06032356194222426,0.6323802130193479,0.27037273343793866,-0.06893353973550695,1.394670686905518
1781551845839181312,0.4068121910095215,-0.008029581978917122,-0.04066039249300957,-0.002669083885848522,-0.06658924371004105,-0.2670344114303589,-0.9613836407661438,0.023727305233478546,-0.0030461549758911133,0.0017889142036437988,0.7621301354199325,0.12522882855416698,0.06021562495112315,0.6323365534388306,0.2703143756639269,-0.069153522570517,1.3945836233969102
1781551845849216256,0.41684722900390625,0.0018787081353366375,-0.016394466161727905,-0.006979409605264664,-0.06673324108123779,-0.2670018970966339,-0.9613826870918274,0.025198817253112793,-0.010662287473678589,0.0026729702949523926,0.7621603644583085,0.1252655537790779,0.06014317345370047,0.6322996324666994,0.2702806341258109,-0.06930265302115378,1.3945062332122538
1781551845859251200,0.426882266998291,-0.007329703774303198,-0.023328673094511032,-0.012256463058292866,-0.06678634881973267,-0.2670353353023529,-0.9613696932792664,0.017836153507232666,-0.008324742317199707,0.008320987224578857,0.7621968197303436,0.12529978829105468,0.06012580048688165,0.6322506091637828,0.27031534968030113,-0.069358560232174,1.3943919296527636
1781551845869286400,0.4369173049926758,-0.02089238353073597,-0.021963536739349365,-0.0037015911657363176,-0.06690344959497452,-0.26699110865592957,-0.9613738656044006,0.024102546274662018,-0.008872538805007935,0.007958948612213135,0.7622402531789578,0.12532425728190297,0.06005752691662094,0.6321999512073324,0.2702694534261359,-0.06947948352167632,1.3942721061410643
1781551845879320320,0.44695138931274414,-0.05711190775036812,-0.02730969898402691,-0.0005550665082409978,-0.06701556593179703,-0.2667514383792877,-0.9614325761795044,0.022765077650547028,-0.02569851279258728,0.013663411140441895,0.7622745866524573,0.1252675365952985,0.05993126234318022,0.6321818445351038,0.270020746293347,-0.06959130634712278,1.3942061831685537
1781551845889355264,0.4569861888885498,-0.06770329177379608,-0.031025873497128487,0.007669307291507721,-0.06727630645036697,-0.26618024706840515,-0.9615726470947266,0.02095063030719757,-0.01679396629333496,0.012491285800933838,0.7623180603346698,0.12512666141437812,0.059640487029350556,0.6321848084193267,0.2694281361658671,-0.06985104480241684,1.3941689670681687
1781551845899390208,0.46702122688293457,-0.05194297805428505,-0.01320080365985632,0.005529990419745445,-0.06740787625312805,-0.26568928360939026,-0.9616992473602295,0.019739419221878052,-0.014202684164047241,0.003004789352416992,0.762338403666798,0.12497382624160734,0.05943004839587211,0.6322103490524683,0.26891882674149326,-0.06997802237458685,1.3941815497455896
1781551845909425152,0.47705626487731934,-0.08761203289031982,-0.04796038195490837,-0.005115197040140629,-0.06761208176612854,-0.2651427090167999,-0.9618357419967651,0.01994362473487854,-0.00036022067070007324,0.006299853324890137,0.7623823972415269,0.12482452333852767,0.05916903158510266,0.6322112652561653,0.26835191138578196,-0.0701793925167062,1.3941332571075085
1781551845919459328,0.4870903491973877,-0.1513284146785736,-0.07061029970645905,-0.007367165759205818,-0.06809403747320175,-0.26403287053108215,-0.9621070027351379,0.03217485547065735,0.007166385650634766,0.01468878984451294,0.7624999721108334,0.12454597348882032,0.058607247127025926,0.6321765581468882,0.2672010596503014,-0.07065813175724732,1.3939508325062908
1781551845929494272,0.49712538719177246,-0.22266997396945953,-0.11370664089918137,0.007141202688217163,-0.06896429508924484,-0.26225438714027405,-0.962531328201294,0.03937750309705734,0.002107292413711548,0.028632402420043945,0.7626494535586615,0.12412791937238069,0.0576766424186371,0.6321640374164036,0.2653576099058323,-0.07152665366141112,1.3937884605547552
1781551845939529216,0.5071601867675781,-0.3291221261024475,-0.12678436934947968,0.009566010907292366,-0.07016585022211075,-0.2596227824687958,-0.9631577134132385,0.032690271735191345,-0.013479024171829224,0.031593382358551025,0.7628174922194199,0.12347674398000276,0.05634398997942952,0.6322089755512822,0.26263158147043303,-0.07272133914040892,1.3937005369916342
1781551845949564160,0.5171952247619629,-0.4884774386882782,-0.16891343891620636,0.0008359024650417268,-0.0715431198477745,-0.255677729845047,-0.9641112089157104,0.029367834329605103,-0.032957494258880615,0.037719666957855225,0.7630940870821632,0.1223655102605727,0.05450746082370652,0.6322523519010516,0.258548674575559,-0.07407053402830065,1.393436424727918
1781551845959598336,0.5272293090820312,-0.689677357673645,-0.28564736247062683,0.05898841843008995,-0.07381627708673477,-0.24999617040157318,-0.9654289484024048,0.05275915563106537,-0.038791656494140625,0.04465264081954956,0.763420978683388,0.12085511781955395,0.051764469523899036,0.6323788378359093,0.2526763045015767,-0.07631108504271807,1.393276067073258
1781551845969633280,0.537264347076416,-0.8586458563804626,-0.3862549364566803,0.11297815293073654,-0.07738332450389862,-0.24238088726997375,-0.9670901298522949,0.08319692313671112,-0.058476656675338745,0.04187345504760742,0.7636736357901633,0.1189892862172227,0.047921617658387324,0.6327304087353605,0.24481917022299793,-0.0798465446479104,1.3936280386517488
1781551845979668480,0.5472993850708008,-0.9407817721366882,-0.4654153883457184,0.06790921092033386,-0.08176529407501221,-0.23347818851470947,-0.9689181447029114,0.0840541198849678,-0.09974324703216553,0.030914604663848877,0.764009216978955,0.1168869294062494,0.043340205166872495,0.6330473783656007,0.23565320738151033,-0.08418877056785982,1.3938317430184106
1781551845989703168,0.5573341846466064,-0.47527214884757996,-0.31357795000076294,-0.1795991212129593,-0.08546769618988037,-0.2267691045999527,-0.970191240310669,0.09175431728363037,-0.1134103387594223,0.0019752979278564453,0.7646421127872783,0.11546084730878013,0.039663210797912976,0.6327860269659719,0.22875907733324827,-0.08786683327497294,1.3927416193045117
1781551845999737344,0.5673682689666748,-0.6777903437614441,-0.37186044454574585,-0.17280033230781555,-0.08805470913648605,-0.22151224315166473,-0.971173882484436,0.08947377651929855,-0.07115133106708527,-0.020067572593688965,0.7657183592658166,0.11427469692830709,0.03680156991874157,0.6318721081871636,0.2233649607686942,-0.090421092881953,1.3899876254238503
1781551846009772288,0.5774033069610596,-0.6711435914039612,-0.5303810834884644,0.022439198568463326,-0.09204160422086716,-0.21495261788368225,-0.9722775816917419,0.12391720712184906,-0.02081093192100525,0.00012487173080444336,0.7664384561323997,0.1129994458434496,0.033050374230909556,0.6314356475206421,0.2166433058541193,-0.09438469240641453,1.3885107593767203
1781551846019807232,0.5874383449554443,-0.6333541870117188,-0.7893500328063965,0.29839593172073364,-0.09882709383964539,-0.20844557881355286,-0.9730280637741089,0.12874957919120789,-0.08400435745716095,-0.06446272134780884,0.7664291918686646,0.11261481474675034,0.028352486562373325,0.6317438900144873,0.20998536181119265,-0.1012194405677539,1.3894055127220466
1781551846029842432,0.5974733829498291,-0.5526212453842163,-0.9015436768531799,0.4782533049583435,-0.10795232653617859,-0.20219920575618744,-0.973376452922821,0.1277124583721161,-0.13032031059265137,-0.07743525505065918,0.7656010536918219,0.11306779368150123,0.022965914660302816,0.6328848294885574,0.2036029881731413,-0.11045362614718529,1.3928578259478903
1781551846039876096,0.6075072288513184,-0.5807234644889832,-0.9807692766189575,0.5443907976150513,-0.11817988008260727,-0.19615085422992706,-0.973426103591919,0.12933406233787537,-0.11427395045757294,-0.09311747550964355,0.7643819466159798,0.11396661791282826,0.01727902372769144,0.6343762301777397,0.19743096677922198,-0.12081484834864135,1.397421033702942
1781551846049911296,0.6175422668457031,-0.6956971883773804,-1.0177897214889526,0.7058331966400146,-0.129257470369339,-0.18927890062332153,-0.9733786582946777,0.181198388338089,-0.04102198779582977,-0.09675073623657227,0.7628657636511462,0.11484132244486223,0.011051806575157025,0.6361802195335334,0.19042772735074254,-0.13202018948553548,1.4028127010342308
1781551846059946240,0.6275773048400879,-1.1866357326507568,-0.5782554149627686,1.3766776323318481,-0.13970661163330078,-0.17937541007995605,-0.9738103151321411,0.2832612991333008,-0.009879350662231445,-0.04224193096160889,0.7603785998455636,0.11435263061749429,0.004280195283269771,0.639319580650892,0.18035152867043186,-0.1424916147082205,1.4111528546355394
1781551846069981440,0.6376123428344727,-1.722265601158142,-1.3176846504211426,1.2114801406860352,-0.15106739103794098,-0.16262048482894897,-0.9750555157661438,0.5188957452774048,-0.035072386264801025,0.0327489972114563,0.7566120345441326,0.11157494801092756,-0.004825261475906263,0.6442561438790667,0.1633459159139328,-0.15370999022425008,1.423336625265539
1781551846080015104,0.6476461887359619,-2.041757583618164,-1.2606266736984253,0.8858972787857056,-0.16487650573253632,-0.14282408356666565,-0.9759185314178467,0.4275107979774475,-0.34095579385757446,0.061550915241241455,0.7543946251707232,0.10853244559315255,-0.016168873608482726,0.6471847452910177,0.14331417413669126,-0.1673645613470459,1.4301507398295996
1781551846090050304,0.6576812267303467,-2.761192798614502,-1.6352261304855347,1.197814702987671,-0.1802462637424469,-0.11769919097423553,-0.9765542149543762,0.4077242910861969,-0.43453162908554077,0.02098780870437622,0.7521640098746276,0.10406637259049473,-0.029884268196042802,0.6500203747345197,0.11797265172818545,-0.18251957921602205,1.4361697021328017
1781551846100085248,0.6677162647247314,-3.365438461303711,-1.816246747970581,1.4123541116714478,-0.19851328432559967,-0.08496040105819702,-0.976408839225769,0.413189172744751,-0.3678441643714905,0.016005396842956543,0.7491091366691375,0.09783889206246872,-0.04715013296834115,0.6534829423688031,0.08506294529953023,-0.20057582855523423,1.4432152768989035
1781551846110120192,0.6777513027191162,-3.6073708534240723,-1.9070121049880981,1.4514285326004028,-0.21775028109550476,-0.04762595146894455,-0.974841833114624,0.34665653109550476,-0.34571510553359985,-0.05054879188537598,0.7454635824381195,0.09042477111343479,-0.06635095084662287,0.6570425645680037,0.047643972664606384,-0.21976231127516035,1.4501302614864822
1781551846120154368,0.6877853870391846,-3.748156785964966,-2.010740041732788,1.2703524827957153,-0.2371676117181778,-0.008595560677349567,-0.9714307188987732,0.3381044864654541,-0.3056439459323883,-0.1387835144996643,0.7417867496820378,0.08262168818077383,-0.08636144586444736,0.6598997095274565,0.008595666825860418,-0.23945825225442172,1.4551221973291
1781551846130189056,0.6978201866149902,-3.8153626918792725,-2.272042989730835,1.187881350517273,-0.2576139271259308,0.031246598809957504,-0.9657425880432129,0.3594205677509308,-0.2386898398399353,-0.1792922019958496,0.7382476401522653,0.0749835212133727,-0.10726689308010229,0.6617112190493409,-0.031251684832503596,-0.2606822260084755,1.4574672075341226
1781551846140224256,0.707855224609375,-3.7043395042419434,-2.5666072368621826,1.3363627195358276,-0.2804247736930847,0.07099918276071548,-0.9572466015815735,0.3991076648235321,-0.1322021782398224,-0.189069926738739,0.7339725517779802,0.06840312246380822,-0.12921962118072655,0.6632553608066095,-0.07105896974443177,-0.28497583652133823,1.4594593853970463
1781551846150259200,0.7178902626037598,-3.457883358001709,-2.6554293632507324,1.4239530563354492,-0.3041517436504364,0.10937487334012985,-0.9463238716125488,0.3893873393535614,-0.05303942412137985,-0.15540647506713867,0.7286921169865554,0.0629636581021344,-0.15124035492768834,0.6649585014482456,-0.10959413207872175,-0.3109755047800085,1.4622012516629024
1781551846160294400,0.7279253005981445,-3.0588696002960205,-2.675518274307251,1.4887712001800537,-0.32742026448249817,0.14478321373462677,-0.9337204098701477,0.36591818928718567,-0.038444697856903076,-0.1299697756767273,0.7226656460981311,0.05879448925904478,-0.17228754962353512,0.6667943420539073,-0.14529387190817397,-0.33726443696130787,1.4656396635656286
1781551846170328832,0.7379598617553711,-2.663125991821289,-2.723794460296631,1.623479962348938,-0.34997281432151794,0.17660319805145264,-0.9199621677398682,0.37865933775901794,-0.04139506816864014,-0.08751463890075684,0.7158193977210104,0.056106184782288814,-0.19201828518307978,0.6690169952435941,-0.17753433383332284,-0.36351473087521863,1.4705181248594115
1781551846180363776,0.7479948997497559,-2.393099784851074,-2.809476613998413,1.7431951761245728,-0.372045636177063,0.20578865706920624,-0.9051149487495422,0.4131985902786255,-0.04363350570201874,-0.027090251445770264,0.7080456233579917,0.05469935845696038,-0.21083290644287886,0.6717355980351931,-0.2072695425359969,-0.3899940498785611,1.47709820137864
1781551846190398976,0.7580299377441406,-2.1988377571105957,-2.797868251800537,1.85479736328125,-0.39326998591423035,0.23337753117084503,-0.8893107771873474,0.43854281306266785,-0.05869491398334503,0.04878038167953491,0.6994992935760583,0.05405753081262694,-0.2289593842956358,0.6748007724721459,-0.23554968776541096,-0.41636430681841813,1.4848776284780023
1781551846200433920,0.7680649757385254,-2.0639960765838623,-2.8847107887268066,2.0163261890411377,-0.41358140110969543,0.2599222958087921,-0.8725771307945251,0.4736705720424652,-0.106922447681427,0.10280174016952515,0.6901382857518275,0.05400126227224342,-0.24656705158050476,0.6782312751268361,-0.26294173064724796,-0.4426132693014578,1.4939081055359655
1781551846210467840,0.7780988216400146,-2.1534924507141113,-2.9254109859466553,2.189384937286377,-0.43297842144966125,0.28700360655784607,-0.8544932007789612,0.5063731670379639,-0.16223248839378357,0.15676981210708618,0.6798057775107343,0.05402033823877967,-0.2642635236377857,0.681990217672596,-0.2910973691033359,-0.4689994961354762,1.503996135439812
1781551846220502784,0.7881338596343994,-2.3765246868133545,-2.981457471847534,2.379730463027954,-0.451051265001297,0.31631067395210266,-0.8345659375190735,0.5271620750427246,-0.24140527844429016,0.229112446308136,0.6685301433296619,0.053351675849663695,-0.282613936945861,0.6858208910615465,-0.3218379516461707,-0.49549097519986424,1.514258230745611
1781551846230537984,0.7981688976287842,-2.636293649673462,-3.0639853477478027,2.5595529079437256,-0.4677824378013611,0.34841248393058777,-0.8122735619544983,0.5595335364341736,-0.34226319193840027,0.2678094506263733,0.6562279557218559,0.05182935216922504,-0.30195520387945674,0.6895662120461274,-0.35587692022392275,-0.5225049334873815,1.5242390249864382
1781551846240572928,0.808203935623169,-2.9428861141204834,-3.1203675270080566,2.7179465293884277,-0.4829205274581909,0.38334813714027405,-0.7872940301895142,0.5877484083175659,-0.43654030561447144,0.31414955854415894,0.642937977705184,0.04935107040296236,-0.3223622842622691,0.6930207378385651,-0.3934186648502071,-0.5502090215002627,1.5333543693953235
1781551846250607104,0.8182380199432373,-3.248091459274292,-3.159152030944824,2.8796164989471436,-0.49599921703338623,0.42113152146339417,-0.7593635320663452,0.6118897199630737,-0.49458736181259155,0.381159245967865,0.6286909984929356,0.04573167401876815,-0.34384130091281045,0.6960096213231989,-0.43469250526398784,-0.5786057662835266,1.5410692863194457
1781551846260642048,0.8282730579376221,-3.4356744289398193,-3.175201416015625,3.031219482421875,-0.5065332055091858,0.4610099196434021,-0.7286246418952942,0.6313043236732483,-0.5187644958496094,0.44052350521087646,0.6134346393088441,0.041103837297511776,-0.36605756924245525,0.6985772356919091,-0.4791329514925639,-0.607491048049529,1.5475795009839453
1781551846270676736,0.8383078575134277,-3.515049695968628,-3.15643572807312,3.1621205806732178,-0.5142276883125305,0.5017685890197754,-0.6955560445785522,0.6306522488594055,-0.5026230812072754,0.45996034145355225,0.5972242702215329,0.03579665064579296,-0.38851073273824355,0.7007861020954095,-0.5256421706399981,-0.6366207483429139,1.5531828787645487
1781551846280711936,0.8483428955078125,-3.486851453781128,-3.0650241374969482,3.289278984069824,-0.5185209512710571,0.5423593521118164,-0.6610463857650757,0.6138884425163269,-0.4463358521461487,0.46524566411972046,0.5802081259914095,0.0299318504498137,-0.41058604166180185,0.7027671385315515,-0.5732428314349298,-0.6651525244570893,1.558363810244258
1781551846290745856,0.8583769798278809,-3.299328565597534,-2.970637798309326,3.4239087104797363,-0.5190586447715759,0.5818365812301636,-0.62613445520401,0.6109318137168884,-0.3695410490036011,0.459600031375885,0.5624456412818473,0.023720909466077633,-0.4317060248634861,0.7047852123257127,-0.6209850635658157,-0.6921689823758385,1.5641195192484922
1781551846300781056,0.8684120178222656,-2.906543016433716,-2.8646581172943115,3.579874038696289,-0.5158028602600098,0.6190352439880371,-0.5922355055809021,0.615290105342865,-0.30583328008651733,0.4536246657371521,0.5439001636045491,0.017673436253633577,-0.4511872020438158,0.7073121896505293,-0.667513689856186,-0.7165271074756292,1.5723316267687826
1781551846310816000,0.8784470558166504,-2.4610793590545654,-2.708056688308716,3.7541470527648926,-0.5085327625274658,0.6533965468406677,-0.5607739090919495,0.6063416004180908,-0.2636412978172302,0.44773679971694946,0.5246298982479586,0.011944627377765079,-0.4684766529060266,0.7107393157083464,-0.712062538664281,-0.7365818123717852,1.5847807687490862
1781551846320850944,0.888481855392456,-2.0237176418304443,-2.4888501167297363,3.9782967567443848,-0.4968506693840027,0.6851823329925537,-0.5326017737388611,0.583017110824585,-0.2514817714691162,0.4571012258529663,0.5046931867562287,0.006242131130984221,-0.4833840644056428,0.7152522325782403,-0.7548540092037433,-0.750683866667192,1.602721497076611
1781551846330885888,0.8985168933868408,-1.6360793113708496,-2.2181203365325928,4.241245746612549,-0.4802670478820801,0.7148659825325012,-0.5082423090934753,0.5519528388977051,-0.2866585850715637,0.45457714796066284,0.48413525034324323,9.624767903672026e-05,-0.49586170903360505,0.7209259505257992,-0.7964323912640469,-0.7571052522378058,1.6272694140495887
1781551846340920064,0.9085509777069092,-1.3611047267913818,-1.9267246723175049,4.531744003295898,-0.45854172110557556,0.7429792881011963,-0.48756664991378784,0.5315855741500854,-0.3514997959136963,0.47073620557785034,0.46297118467599335,-0.006944683675163224,-0.5061308599823156,0.7276269512010315,-0.8375106800235677,-0.7547295651623468,1.6590284240878586
1781551846350955008,0.918586015701294,-1.193862795829773,-1.6375104188919067,4.846865177154541,-0.4315143823623657,0.7700360417366028,-0.4699358642101288,0.5262104272842407,-0.41835153102874756,0.5216631889343262,0.4411344552341688,-0.015296131218923412,-0.5145853587534348,0.7350974312724533,-0.8788976572399319,-0.7428020652352045,1.6984221107696864
1781551846360989952,0.9286210536956787,-1.0555368661880493,-1.335922122001648,5.164575576782227,-0.39907196164131165,0.796128511428833,-0.4548857808113098,0.5315335392951965,-0.465409517288208,0.5830596089363098,0.4185923036687472,-0.025222557136329572,-0.5214603811345393,0.7431173890915852,-0.9208701785875766,-0.7201319928238853,1.7464031819292751
1781551846371024896,0.9386558532714844,-0.9285748600959778,-1.0411813259124756,5.481123924255371,-0.3612326979637146,0.8208890557289124,-0.44232574105262756,0.5379752516746521,-0.48812544345855713,0.6392251253128052,0.3953530272049717,-0.036780185713189,-0.5267678367672899,0.7515708595319147,-0.9629660077421025,-0.6848212570801913,1.8048049730556852
1781551846381058816,0.9486899375915527,-0.7844288945198059,-0.7277553081512451,5.798526287078857,-0.31799808144569397,0.8439012169837952,-0.4320971369743347,0.5388690233230591,-0.48997360467910767,0.6714007258415222,0.3714219097035711,-0.05003953305815577,-0.5305162377135568,0.7603251100373416,-1.004513745257374,-0.6344425917923378,1.8759714545672046
1781551846391094016,0.9587249755859375,-0.5850510597229004,-0.37263524532318115,6.104038715362549,-0.26934197545051575,0.8643937706947327,-0.42459213733673096,0.5351195335388184,-0.4786209464073181,0.6870890259742737,0.3469145931027263,-0.06503215356395844,-0.5324234648698176,0.7693805785300806,-1.0439434146369857,-0.5652979657747071,1.9633490775541746
1781551846401128960,0.9687600135803223,-0.4063761830329895,0.020810559391975403,6.421942710876465,-0.21521688997745514,0.8817412853240967,-0.4197787046432495,0.5335915088653564,-0.4605071544647217,0.6958101987838745,0.3219371031327503,-0.08190957158246229,-0.5323546456937257,0.7786179943865896,-1.0795407862892878,-0.4737490263932647,2.070190509513052
1781551846411164160,0.978795051574707,-0.19043560326099396,0.4486820101737976,6.752741813659668,-0.1554935723543167,0.8952499032020569,-0.41755175590515137,0.5398167371749878,-0.4418197274208069,0.6910808086395264,0.29653296465317047,-0.10084429348946437,-0.5301457890494267,0.7879366534227953,-1.1089917765297317,-0.35648360635002785,2.199478771521389
1781551846421197824,0.9888288974761963,-0.060588665306568146,0.8586092591285706,7.098908424377441,-0.09018468856811523,0.9042916297912598,-0.41728082299232483,0.5614066123962402,-0.43413788080215454,0.6619402170181274,0.2706594659311782,-0.12197160786837102,-0.5258160407420057,0.7971096513766674,-1.1297175010336098,-0.21285089677696015,2.351723163498559
1781551846431233024,0.998863935470581,0.0008925397414714098,1.2445135116577148,7.4256720542907715,-0.019698547199368477,0.9084230661392212,-0.4175876975059509,0.600249707698822,-0.42885464429855347,0.6339726448059082,0.24419592575655621,-0.14529046273266163,-0.5197084064729182,0.8057060313016691,-1.139496383294076,-0.04713729495725284,2.5228266424051804
1781551846441267968,1.0088989734649658,0.06530721485614777,1.596828579902649,7.748774528503418,0.05541398376226425,0.9069221615791321,-0.4176381528377533,0.655630350112915,-0.4318092465400696,0.5871633291244507,0.21708307625119772,-0.17067380060096599,-0.5119095429727593,0.8134458270937859,-1.1359199951634038,0.1319136872241192,2.7042568316244733
1781551846451302912,1.0189340114593506,0.10721126198768616,1.9058865308761597,8.065373420715332,0.13446778059005737,0.8990237712860107,-0.41674327850341797,0.7282336950302124,-0.4191499948501587,0.5304365158081055,0.18920733740700327,-0.1979042537508506,-0.5024562271964486,0.8201051479831498,-1.1175349989002517,0.3121170253512341,2.8842202806834827
1781551846461338112,1.0289690494537354,0.1642942577600479,2.173051357269287,8.365471839904785,0.21655325591564178,0.8839937448501587,-0.4143185317516327,0.8206629753112793,-0.3824373483657837,0.4851192831993103,0.16051783256236976,-0.22671976516337175,-0.49136430862079544,0.8254655666952471,-1.084337232221171,0.48162132200171986,3.0512022947281716
1781551846471371776,1.0390028953552246,0.3022023141384125,2.3604917526245117,8.646774291992188,0.30043113231658936,0.8609827756881714,-0.41042646765708923,0.9311362504959106,-0.3269404172897339,0.4287523031234741,0.13099824038315655,-0.2566540333453037,-0.4784511149038445,0.8294894613200117,-1.0371986963055213,0.6318795550640701,-3.0859847830211553
1781551846481406976,1.0490379333496094,0.5081570744514465,2.465672016143799,8.902207374572754,0.3847956359386444,0.8291414976119995,-0.4055328369140625,1.0625615119934082,-0.245691180229187,0.3790435791015625,0.10066007024672599,-0.28722640449305314,-0.4633946167080143,0.8322464248201523,-0.9775702345875811,0.7591654511624294,-2.9641995999012574
1781551846491441920,1.0590729713439941,0.7823127508163452,2.59547758102417,9.157344818115234,0.46836456656455994,0.7878513336181641,-0.39990609884262085,1.2049752473831177,-0.13755226135253906,0.32921212911605835,0.06965316799558703,-0.3181390174706203,-0.44590864380904527,0.8337274428243762,-0.9073123030635474,0.8640800070292799,-2.8660156089644166
1781551846501477120,1.069108009338379,1.1561377048492432,2.7571024894714355,9.32988166809082,0.5498440265655518,0.7367346286773682,-0.3935653269290924,1.3457553386688232,-0.0039008259773254395,0.2708083391189575,0.03840185868545117,-0.3493055436004038,-0.42567943152839094,0.833851298507483,-0.8282284796926713,0.9495605101301011,-2.7892613965345525
1781551846511510784,1.0791418552398682,1.8151854276657104,2.8003084659576416,9.406303405761719,0.627223789691925,0.6755828261375427,-0.38752850890159607,1.4865458011627197,0.15754711627960205,0.20752054452896118,0.0076884202052009834,-0.3802460971927562,-0.40205552784222487,0.8328897091264571,-0.7417548941462607,1.0173570708235742,-2.7329758342420014
1781551846521545984,1.089176893234253,2.681056022644043,2.8487772941589355,9.333812713623047,0.6984798312187195,0.6044757962226868,-0.3830600678920746,1.6749637126922607,0.37010306119918823,0.1134372353553772,-0.02155096649745864,-0.4104100050087466,-0.37421062403790356,0.8313036088990983,-0.6491077007952005,1.0691672404177188,-2.696484991524619
1781551846531580928,1.0992119312286377,3.763763427734375,2.818120002746582,9.007331848144531,0.7615101337432861,0.5248031616210938,-0.38037362694740295,1.8819682598114014,0.6551742553710938,-0.021252930164337158,-0.04787082903152736,-0.4393516853207425,-0.34173568736768656,0.8293945550647529,-0.5524838740791647,1.1075495103332926,-2.6792409624918427
1781551846541615872,1.1092469692230225,5.025758266448975,2.555058717727661,8.42383861541748,0.8141112923622131,0.43901297450065613,-0.3801189064979553,2.071341037750244,0.992215633392334,-0.1923450529575348,-0.06979440928721929,-0.46608222884931555,-0.30447972438620063,0.8277609263872899,-0.4544998234651307,1.1339671403614193,-2.6809807401895167
1781551846551650048,1.1192810535430908,6.200174808502197,2.1560497283935547,7.711444854736328,0.8551231026649475,0.34976574778556824,-0.38265979290008545,2.1599373817443848,1.3523216247558594,-0.40487682819366455,-0.08644900796367323,-0.4895726084700745,-0.26265712187610263,0.8269562220615799,-0.3573210482587338,1.150030949699296,-2.7002679011421287
1781551846561684736,1.1293158531188965,6.988377571105957,2.070235013961792,6.768416404724121,0.885395348072052,0.2607330083847046,-0.38482901453971863,2.0054280757904053,1.6671539545059204,-0.5723701119422913,-0.09740158655894544,-0.5100195056195236,-0.21786601812459508,0.8263942307652921,-0.2637814109963417,1.1607881964651203,-2.7334055249743754
1781551846571719936,1.1393508911132812,7.2716169357299805,2.6161293983459473,5.701694011688232,0.908028244972229,0.17724671959877014,-0.37956351041793823,1.567710280418396,1.8163751363754272,-0.5624378323554993,-0.10234606628828068,-0.5293392292641902,-0.17325769235003477,0.8242008992786166,-0.178188162845285,1.1748624251418476,-2.7756852674861623
1781551846581754880,1.149385929107666,7.158519268035889,3.5886290073394775,4.767821788787842,0.9268220067024231,0.10205364227294922,-0.36136695742607117,1.0182006359100342,1.6821718215942383,-0.25307393074035645,-0.10191338515485321,-0.5497445436638188,-0.13075724363036811,0.8187167698566294,-0.10223162406403873,1.199027925284355,-2.8240079481118925
1781551846591790080,1.1594209671020508,6.037441253662109,4.543688774108887,3.908952236175537,0.9440782070159912,0.038129035383462906,-0.32750943303108215,0.6154157519340515,1.3018672466278076,0.25052884221076965,-0.09860622947031897,-0.5723027112118266,-0.09335361314970843,0.8087221041571586,-0.03813828084121319,1.2368776478043002,-2.871794406708043
1781551846601824000,1.1694550514221191,4.197248458862305,4.421509742736816,3.0995500087738037,0.9585884213447571,-0.011069532483816147,-0.284580260515213,0.49047785997390747,0.837500810623169,0.6950874328613281,-0.09588096158954829,-0.594579484347191,-0.06469243290196615,0.7956739928326556,0.011069758694090987,1.2822096191270769,-2.9100045041594766
1781551846611858944,1.1794898509979248,2.4250683784484863,3.389176368713379,2.3133108615875244,0.968248188495636,-0.04611333832144737,-0.2457006871700287,0.684415876865387,0.33879220485687256,0.6169317960739136,-0.09555720733888605,-0.6124540192106497,-0.04527396589429582,0.7834022383817889,0.04612969748773024,1.3222839043111354,-2.9347259309342726
1781551846621893888,1.1895248889923096,0.7337002158164978,2.633060932159424,1.4587829113006592,0.9740592241287231,-0.06813090294599533,-0.21579290926456451,0.8645789623260498,-0.029204897582530975,0.2573883831501007,-0.09744552583116778,-0.6252183345758551,-0.034721483008064144,0.7735636397383256,0.06818372417138911,1.3527777687676046,-2.9457124961545267
1781551846631928832,1.1995599269866943,-0.4645712971687317,2.3865363597869873,0.8209946751594543,0.9782794117927551,-0.0793820172548294,-0.19148840010166168,0.8028484582901001,0.0195523202419281,0.016958370804786682,-0.10113678459070724,-0.6350023846140533,-0.03205883196285024,0.7651898312610242,0.07946562265440121,1.3775002582729996,-2.9442018693077556
1781551846641963008,1.2095940113067627,-0.9581519365310669,2.579315423965454,0.2777321934700012,0.982286274433136,-0.08346834033727646,-0.167769655585289,0.6802350282669067,0.34334078431129456,-0.2016913741827011,-0.1052049095339295,-0.6441521336925793,-0.034397720574483405,0.7568465500858578,0.08356556688685438,1.4016335327361948,-2.9358690783341155
1781551846651997952,1.2196290493011475,-1.2998096942901611,2.7566416263580322,-0.2162463366985321,0.9864237308502197,-0.08199287950992584,-0.14228561520576477,0.6116138696670532,0.5754315853118896,-0.4583613872528076,-0.10845411204133054,-0.6536509359245268,-0.039970581463765316,0.7479173872228848,0.08208502774900396,1.4275405101769696,-2.9246881340881554
1781551846662032896,1.2296638488769531,-1.8363341093063354,2.67811918258667,-0.5775459408760071,0.9903049468994141,-0.07599597424268723,-0.11627889424562454,0.5970516204833984,0.5674205422401428,-0.531304121017456,-0.11149399707429461,-0.6629454501150147,-0.048619784910792656,0.7387209172685597,0.07606931374207311,1.4539142527020223,-2.909663847667188
1781551846672067840,1.239698886871338,-2.623316526412964,2.317310333251953,-0.8588165044784546,0.9934514164924622,-0.06654072552919388,-0.09288051724433899,0.6002680659294128,0.3936738967895508,-0.4802853465080261,-0.11555624730515573,-0.67073746471635,-0.06058873500554992,0.7301281531460119,0.06658992778873955,1.477574549078128,-2.888318183201383
1781551846682103040,1.2497339248657227,-3.57098388671875,1.9109783172607422,-1.0380911827087402,0.9957965016365051,-0.05443749576807022,-0.07366238534450531,0.5779646039009094,0.2772463262081146,-0.473716139793396,-0.1218395390905896,-0.6762663881605683,-0.07637132563107672,0.7224863074879128,0.05446441893508254,1.496957481980718,-2.858044078309606
1781551846692136960,1.259768009185791,-4.32553768157959,1.6270697116851807,-1.093381404876709,0.9974726438522339,-0.04115540161728859,-0.05791953578591347,0.5113316774368286,0.3091302514076233,-0.49132055044174194,-0.13073132523977635,-0.6796569184651001,-0.09542906074389394,0.7154502929156367,0.04116702720201307,1.5127951648821794,-2.818975083630605
1781551846702172160,1.2698030471801758,-4.673183917999268,1.4816776514053345,-1.0991095304489136,0.9986434578895569,-0.027898911386728287,-0.043964728713035583,0.4211563467979431,0.446569561958313,-0.4961811304092407,-0.14146027153801222,-0.6815219200927158,-0.11638517333759618,0.7084993557559759,0.027902531543317642,1.5268002862247576,-2.7741532253106884
1781551846712206848,1.2798378467559814,-4.64407205581665,1.4310925006866455,-1.0593887567520142,0.9994211196899414,-0.015377277508378029,-0.030345682054758072,0.3241719603538513,0.647411584854126,-0.4907114505767822,-0.15273084817694715,-0.6825476891208508,-0.13768010491114469,0.7013173677264635,0.015377883516803215,1.5404423935505023,-2.7276526482949364
1781551846722241792,1.2898728847503662,-4.361942291259766,1.3831197023391724,-0.9988409876823425,0.9998536109924316,-0.004082545638084412,-0.016615642234683037,0.24590444564819336,0.8454827070236206,-0.498826265335083,-0.16359490353021777,-0.6831494317806847,-0.1581108229044051,0.6939341061918013,0.00408255697576945,1.554179780834222,-2.6825629248985474
1781551846732275968,1.2999069690704346,-3.7749905586242676,1.3507874011993408,-0.9619516730308533,0.999978244304657,0.005976964719593525,-0.002844179281964898,0.1733921766281128,0.9798323512077332,-0.5475556254386902,-0.17312032335197072,-0.6836290839435657,-0.1767178144453998,0.6866233086843945,-0.005977000373235383,1.5679520932213906,-2.641662520010125
1781551846742310912,1.3099420070648193,-2.9726264476776123,1.2947189807891846,-0.9512854814529419,0.9998252391815186,0.015186461620032787,0.01091750804334879,0.0784677267074585,1.0193594694137573,-0.5953902006149292,-0.18029976981424792,-0.6843445981148005,-0.19269464256546373,0.6797303895651787,-0.01518704568823965,1.5817153096011465,-2.6076768106128365
1781551846752346112,1.319977045059204,-1.991697072982788,1.196576714515686,-0.9635456204414368,0.9994218945503235,0.024146793410182,0.023930296301841736,-0.01834285259246826,1.0232012271881104,-0.6437270641326904,-0.1844372874546799,-0.6853663477435434,-0.2055191421450338,0.6738083147433238,-0.02414914060291742,1.5947358920205303,-2.5824998976990745
1781551846762380800,1.3300118446350098,-0.9499057531356812,1.1487846374511719,-0.9850937724113464,0.9987923502922058,0.03335890173912048,0.036068059504032135,-0.10088896751403809,1.0237394571304321,-0.7358208894729614,-0.18500968342127805,-0.6869282232695475,-0.21485726793173981,0.6691317707821705,-0.03336509222827793,1.6068923112689426,-2.5674953012655712
1781551846772416000,1.3400468826293945,-0.06881436705589294,1.1260676383972168,-0.9862692952156067,0.9979390501976013,0.043003860861063004,0.047624725848436356,-0.17686372995376587,1.0081589221954346,-0.7793904542922974,-0.18220953206684865,-0.6891879540649309,-0.22098037623138378,0.6655728760413615,-0.043017125659676574,1.6184832254690311,-2.562041822888797
1781551846782449920,1.350080966949463,0.7602740526199341,1.0427383184432983,-0.9867015480995178,0.9968888163566589,0.05303629860281944,0.05830708518624306,-0.2375504970550537,0.9477266073226929,-0.7849611043930054,-0.17651722665889824,-0.6920143987922206,-0.22420886149238564,0.6630898097959382,-0.053061193050795055,1.629218818868095,-2.564997922774734
1781551846792485120,1.3601160049438477,1.4680585861206055,0.9285755157470703,-1.003883719444275,0.9956843256950378,0.06373722851276398,0.06745751202106476,-0.2794061303138733,0.8286272883415222,-0.8083785772323608,-0.16816922916106794,-0.6951249363413844,-0.22478896243968052,0.6618084610364557,-0.06378045894262592,1.6384428505289057,-2.5756702766151283
1781551846802520064,1.3701510429382324,2.030339002609253,0.8063257336616516,-1.0105704069137573,0.9943655729293823,0.07506050169467926,0.0748559758067131,-0.3169667720794678,0.7125982046127319,-0.8162499666213989,-0.15771542643005215,-0.6982927799995997,-0.2231931473112081,0.6615874970927472,-0.07513116635911714,1.6459347391080856,-2.592556278256936
1781551846812554752,1.380185842514038,2.44443941116333,0.683691143989563,-1.0233255624771118,0.992957353591919,0.0869896411895752,0.08042662590742111,-0.3517678380012512,0.6130683422088623,-0.8221410512924194,-0.14559753118478805,-0.7013363998892517,-0.21986488768576146,0.6622597623036223,-0.08709972638873907,1.6516169583569356,-2.6143496560552353
1781551846822588928,1.3902199268341064,2.594148635864258,0.5719074010848999,-1.021536946296692,0.9914855360984802,0.09928227961063385,0.08425838500261307,-0.3786925673484802,0.5308904647827148,-0.8689416646957397,-0.13257134574069088,-0.7040588936483334,-0.21547683305295948,0.6635477746790335,-0.09944610759540062,1.655574589512269,-2.6389629168446413
1781551846832623872,1.4002549648284912,2.506878614425659,0.4431843161582947,-1.0112838745117188,0.9899733662605286,0.11158838123083115,0.08660662919282913,-0.39518582820892334,0.43107518553733826,-0.9044471979141235,-0.11957186744526278,-0.7062884261694093,-0.2108553412905513,0.6651309652923073,-0.1118212710513911,1.6580579649886993,-2.6638419547987806
1781551846842659072,1.410290002822876,2.272170066833496,0.25377777218818665,-1.0019733905792236,0.9884783029556274,0.12368269264698029,0.0872538611292839,-0.39753592014312744,0.2928364872932434,-0.8947031497955322,-0.10733702272158524,-0.7077671755528744,-0.2066217703771819,0.666972152884583,-0.12400021937314444,1.6588390211831774,-2.6870707808632655
1781551846852694016,1.4203250408172607,1.9236592054367065,0.009941931813955307,-0.9999268054962158,0.9870610237121582,0.13543963432312012,0.08582935482263565,-0.3877110481262207,0.15255475044250488,-0.8683305978775024,-0.09636025316087303,-0.7082584966161988,-0.20318607396930652,0.6691786459299492,-0.13585716522976002,1.6575326162689656,-2.707423213896599
1781551846862727936,1.43035888671875,1.4707266092300415,-0.24899163842201233,-1.0098308324813843,0.9857439398765564,0.14680013060569763,0.08221184462308884,-0.37401896715164185,0.05501262843608856,-0.8431676626205444,-0.08707510534921979,-0.70761178232008,-0.20097633904178414,0.671797649524662,-0.14733256701523925,1.6540045735939104,-2.723720479307666
1781551846872762880,1.4403939247131348,1.0237478017807007,-0.47428441047668457,-0.9969024658203125,0.9844983816146851,0.1577344387769699,0.0767001062631607,-0.34810006618499756,0.02309747040271759,-0.8258150815963745,-0.07963129793271792,-0.7058867265810669,-0.20018487209042476,0.6747657635853114,-0.15839595331946937,1.648547081344553,-2.7354968134345965
1781551846882798080,1.4504289627075195,0.7019550800323486,-0.6694719791412354,-0.9811738729476929,0.9833003282546997,0.1681426465511322,0.06963151693344116,-0.3043299913406372,0.0482574999332428,-0.8262537717819214,-0.07382591338899783,-0.7032703479526462,-0.20056564128530777,0.6780368504680859,-0.16894517923755073,1.6414924038599017,-2.7434168879430474
1781551846892833024,1.4604640007019043,0.4807683229446411,-0.8596358299255371,-0.9849787354469299,0.9820936918258667,0.17822645604610443,0.061050426214933395,-0.24193572998046875,0.09730148315429688,-0.832122802734375,-0.06916461170947326,-0.6998769642802155,-0.20173608577950952,0.6816824506696456,-0.1791837604344455,1.6328799858987988,-2.7487603974600696
1781551846902867968,1.470499038696289,0.2705745995044708,-1.0582034587860107,-0.9832031726837158,0.9808232188224792,0.1881321370601654,0.0509110689163208,-0.1735723614692688,0.1317225843667984,-0.8248826265335083,-0.06544473675554484,-0.6957128029675163,-0.2035662803051677,0.685756046605925,-0.18925997201435607,1.6226562541777558,-2.7520263620862786
1781551846912901888,1.4805328845977783,0.07714337110519409,-1.2698643207550049,-0.9983315467834473,0.9794312715530396,0.19794955849647522,0.0391191728413105,-0.11087054014205933,0.1365383416414261,-0.8016313314437866,-0.06262618120001906,-0.6907283579493397,-0.20604349639340683,0.6903030765860078,-0.19926564482953227,1.6107158123830234,-2.753316093237174
1781551846922936832,1.490567922592163,-0.039829056710004807,-1.4835076332092285,-1.0426998138427734,0.977800726890564,0.2079761028289795,0.025526229292154312,-0.06511157751083374,0.11757014691829681,-0.7821943759918213,-0.06046842387820627,-0.6848682772827686,-0.20908983017610483,0.6953994628768878,-0.20950535944758525,1.5968961561671817,-2.7531150796549864
1781551846932972032,1.5006029605865479,-0.10749438405036926,-1.6497381925582886,-1.088309645652771,0.9757978916168213,0.21843194961547852,0.010290765203535557,-0.027586281299591064,0.10654972493648529,-0.7636781930923462,-0.058651426489106685,-0.6782118004477679,-0.2125420809492849,0.7010097106456487,-0.22020732488584513,1.5813419359948673,-2.7521245753997228
1781551846943006976,1.5106379985809326,-0.10335636138916016,-1.7855629920959473,-1.0966503620147705,0.9733743667602539,0.2291346788406372,-0.006289687938988209,0.013106286525726318,0.11966598033905029,-0.7301757335662842,-0.05700844454760408,-0.670924770589814,-0.21613678114116003,0.7070324342355134,-0.23118861205743754,1.5643346809831173,-2.7509669016924705
1781551846953041920,1.5206730365753174,-0.07295665144920349,-1.914949655532837,-1.1077781915664673,0.9704990386962891,0.23989109694957733,-0.024162016808986664,0.06772416830062866,0.12979884445667267,-0.7004473805427551,-0.05540492537271251,-0.6630900946346278,-0.2196144764738288,0.7134502447347449,-0.2422536631797987,1.5459049819855313,-2.7502347970185994
1781551846963075840,1.5307068824768066,-0.06524999439716339,-2.042196750640869,-1.129275918006897,0.9670734405517578,0.25078946352005005,-0.04328884184360504,0.12872135639190674,0.12741491198539734,-0.6688693761825562,-0.05378931119724071,-0.6546976489372213,-0.2229945479120734,0.7202439111227846,-0.2534956913790825,1.5260634651710843,-2.749992175557054
1781551846973111040,1.5407419204711914,-0.13858625292778015,-2.172506809234619,-1.1468185186386108,0.9630147814750671,0.26187101006507874,-0.0634511336684227,0.19335728883743286,0.11227449774742126,-0.6288706660270691,-0.05235407695921521,-0.6457310808457848,-0.22650784326608173,0.7273132834781342,-0.2649603655524313,1.5050034066243838,-2.749619023588545
1781551846983145984,1.5507769584655762,-0.23932431638240814,-2.296360969543457,-1.1680539846420288,0.9582416415214539,0.2731764614582062,-0.08454328030347824,0.25843310356140137,0.08662575483322144,-0.5864619612693787,-0.05126393564935961,-0.6361428416218882,-0.23032725735006465,0.7346044122909277,-0.2766935559149631,1.4827966717941232,-2.748632691979377
1781551846993180928,1.560811996459961,-0.4029825031757355,-2.4112510681152344,-1.1891433000564575,0.9526774883270264,0.284801185131073,-0.10627288371324539,0.31781506538391113,0.064350426197052,-0.5485580563545227,-0.05064134970267287,-0.625947759553498,-0.23463367251017087,0.7420053373372564,-0.288799028803578,1.459703816852491,-2.7465732668829617
1781551847003214848,1.5708458423614502,-0.5738295912742615,-2.5252115726470947,-1.2041374444961548,0.9462683796882629,0.29679712653160095,-0.12840396165847778,0.3648735284805298,0.05250704288482666,-0.4977862238883972,-0.05061930483161282,-0.6151473339180166,-0.23956580479172263,0.7494262043869546,-0.30133689079174825,1.4359250198022508,-2.7430292393009594
1781551847013249792,1.580880880355835,-0.6846029758453369,-2.623222589492798,-1.2084767818450928,0.9389822483062744,0.30910417437553406,-0.15088661015033722,0.40290606021881104,0.050286054611206055,-0.449333131313324,-0.05113437349230025,-0.6037667349722888,-0.24499473669549784,0.7568543185219613,-0.31425094070308834,1.4114667369905425,-2.738286324765915
1781551847023284992,1.5909159183502197,-0.7106801271438599,-2.6830685138702393,-1.2154593467712402,0.9308057427406311,0.3216422200202942,-0.17362816631793976,0.42985087633132935,0.05828633904457092,-0.40500038862228394,-0.051912238639386606,-0.5919219291993856,-0.25062790615663677,0.7642768327435054,-0.32746336016444016,1.386380438919138,-2.7331728487903537
1781551847033319936,1.6009509563446045,-0.6155943274497986,-2.6942129135131836,-1.2184228897094727,0.9217835664749146,0.33421221375465393,-0.1965131312608719,0.44816577434539795,0.08055219054222107,-0.3528795838356018,-0.05260837670736079,-0.5798004655293538,-0.2560758829751795,0.7716793453540755,-0.340769260008685,1.3607528228375594,-2.728755447187064
1781551847043354880,1.6109859943389893,-0.47597283124923706,-2.6974308490753174,-1.207186222076416,0.9119796752929688,0.34652677178382874,-0.2195732295513153,0.4647752046585083,0.10794100165367126,-0.2953956425189972,-0.052950083770868774,-0.5675481647143459,-0.26096448766329444,0.7790911199704746,-0.353865928946062,1.3345276668740844,-2.7259899001428534
1781551847053388800,1.6210198402404785,-0.38336992263793945,-2.654963493347168,-1.2142672538757324,0.901440441608429,0.35859063267707825,-0.24252447485923767,0.4865449070930481,0.13320013880729675,-0.2472827136516571,-0.05293242477905091,-0.5552662573554518,-0.2653622942379242,0.7864226223600069,-0.3667576917010411,1.3079785084374196,-2.7247515890698373
1781551847063423744,1.6310548782348633,-0.26986199617385864,-2.6277401447296143,-1.226258397102356,0.8901679515838623,0.37040501832962036,-0.2653316855430603,0.5048514008522034,0.12263694405555725,-0.19157743453979492,-0.052507907855843965,-0.5429790830868617,-0.2692728501345389,0.7936678380162654,-0.3794450073642713,1.2811118092619316,-2.72511496899109
1781551847073458944,1.641089916229248,-0.23859408497810364,-2.6307003498077393,-1.241403341293335,0.8778249621391296,0.3822740316390991,-0.28859972953796387,0.5225350856781006,0.09344920516014099,-0.11855050921440125,-0.05173977007468455,-0.530320648759702,-0.272873873502651,0.8010136223385134,-0.3922560023214132,1.2531612629683675,-2.7268970354763553
1781551847083493888,1.6511249542236328,-0.1264539659023285,-2.6352758407592773,-1.2886531352996826,0.864899754524231,0.3939221501350403,-0.31108468770980835,0.5417621731758118,0.07523983716964722,-0.06502917408943176,-0.050736580956486914,-0.5178220161429687,-0.27625716803914646,0.8080644128960539,-0.4048948725622176,1.2255265978477266,-2.729549345610925
1781551847093528064,1.6611590385437012,-0.03551340475678444,-2.5773351192474365,-1.29220449924469,0.8512569069862366,0.4052349925041199,-0.3333861827850342,0.5349583029747009,0.05629757046699524,0.00616145133972168,-0.04932938960729774,-0.5053318265729103,-0.2791892715891137,0.8150213295561632,-0.41723586949283914,1.1975176210695981,-2.7337840574009697
1781551847103562752,1.6711938381195068,0.30723169445991516,-2.525214910507202,-1.2929288148880005,0.8370432257652283,0.4158335328102112,-0.35558566451072693,0.5365682244300842,0.05811971426010132,0.053080201148986816,-0.047264939486174724,-0.4930204357564303,-0.28131478992626835,0.8219239090649727,-0.4288591540828435,1.169085258621706,-2.7404805870810707
1781551847113597952,1.6812288761138916,0.48639506101608276,-2.456007242202759,-1.2627687454223633,0.8224231600761414,0.4249459505081177,-0.3782079219818115,0.5216472744941711,0.055889010429382324,0.11082816123962402,-0.04454585696322214,-0.48091362429685824,-0.2821668513742567,0.8289268535018367,-0.4389021660625332,1.139764719048469,-2.750287400553783
1781551847123632896,1.6912639141082764,0.7562694549560547,-2.3137691020965576,-1.2972437143325806,0.8075723648071289,0.4330592751502991,-0.4003581404685974,0.4929800033569336,0.07862895727157593,0.1722697615623474,-0.041107685183893856,-0.4692598756618015,-0.2821632454410922,0.8357567144559052,-0.44788407070217967,1.110550362762938,-2.762556678699694
1781551847133667840,1.7012989521026611,1.3000848293304443,-2.195831060409546,-1.303560733795166,0.7925669550895691,0.4393177330493927,-0.4228920638561249,0.4878132939338684,0.0281505286693573,0.1630653738975525,-0.03649191093527785,-0.4581169462016144,-0.28050459815692774,0.8426829077553147,-0.45483905248003303,1.0806526738438993,-2.779152228488651
1781551847143702016,1.7113330364227295,1.6738355159759521,-1.9442946910858154,-1.3131877183914185,0.7777090072631836,0.44296783208847046,-0.4460361897945404,0.4443979263305664,0.02096039056777954,0.3234317898750305,-0.0302970123593416,-0.4477405828850129,-0.27660490624850703,0.849764824281846,-0.4589063068453348,1.0500706375438673,-2.8013543352518053
1781551847153736704,1.7213678359985352,1.5105562210083008,-1.8431270122528076,-1.231681227684021,0.7633915543556213,0.4455101490020752,-0.46771156787872314,0.43724626302719116,0.0764472484588623,0.37322914600372314,-0.0238879831656247,-0.43814168843560636,-0.2723528503383421,0.8563207454235064,-0.4617440027899195,1.0211084453487855,-2.8240091050826917
1781551847163770880,1.7314019203186035,1.5151147842407227,-1.8204753398895264,-1.2222973108291626,0.7489791512489319,0.44753313064575195,-0.4886147081851959,0.4507278800010681,-0.03296709060668945,0.3522469401359558,-0.01792684759147483,-0.428590602829973,-0.26833326692608206,0.8625461911726854,-0.46400487779063776,0.9927538365264718,-2.845497879042653
1781551847173806080,1.7414369583129883,1.4070700407028198,-1.5811245441436768,-1.244705080986023,0.7349251508712769,0.44935107231140137,-0.5079062581062317,0.36180031299591064,-0.16657519340515137,0.4129965305328369,-0.011619446461059462,-0.419694924067498,-0.2643918547986956,0.8682270304450254,-0.46603880375865236,0.9660690046132205,-2.8671548993011573
1781551847183841024,1.751471996307373,0.9120704531669617,-1.5813045501708984,-1.22824227809906,0.7211939692497253,0.45225799083709717,-0.524730384349823,0.3471348285675049,-0.18704500794410706,0.4832112193107605,-0.005849795174826385,-0.4112465702451082,-0.26174620536627,0.8731156383353628,-0.4692954223805525,0.9417954039659129,-2.8859841374860826
1781551847193875200,1.7615060806274414,0.21147455275058746,-1.6404621601104736,-1.3027617931365967,0.7068144083023071,0.4582747519016266,-0.5388855338096619,0.35460221767425537,-0.2146834433078766,0.5024933815002441,-0.001266757050702542,-0.4025130296033068,-0.2618023700894303,0.8771779394027783,-0.47605315292776224,0.9193971422531496,-2.8996143994117656
1781551847203910144,1.7715411186218262,-0.47303536534309387,-1.6164673566818237,-1.406663417816162,0.6915543079376221,0.4684504270553589,-0.5498243570327759,0.31525111198425293,-0.2585505247116089,0.4852491617202759,0.0022820523474705668,-0.3934871769340453,-0.2650578664333481,0.8802879748210382,-0.4875360317196734,0.8990773543187647,-2.9079173431591383
1781551847213944832,1.7815759181976318,-1.0967217683792114,-1.5829395055770874,-1.4832582473754883,0.6757680773735046,0.48288407921791077,-0.5569206476211548,0.27268773317337036,-0.25865617394447327,0.4929710626602173,0.004981876650963249,-0.3844955036384207,-0.2714827634724135,0.8822899848207203,-0.5039452314651671,0.8815142660460523,-2.9111932915907364
1781551847223980032,1.7916109561920166,-1.3206950426101685,-1.5633069276809692,-1.5609397888183594,0.6594092845916748,0.49995383620262146,-0.5614497065544128,0.26525819301605225,-0.22732502222061157,0.46704351902008057,0.007189764034019542,-0.3754332979065827,-0.27986602661135507,0.8835572155000782,-0.5235454846979204,0.8654648629990686,-2.9115969028750373
1781551847234014976,1.8016459941864014,-1.3628180027008057,-1.4808133840560913,-1.6298884153366089,0.6426141858100891,0.5180204510688782,-0.5645368099212646,0.2505894899368286,-0.17942798137664795,0.4364545941352844,0.009596898730282714,-0.366436938256241,-0.2888867742769134,0.8844073276163543,-0.5445350890116156,0.8499872540886159,-2.9119075899713422
1781551847244049152,1.8116800785064697,-1.2537257671356201,-1.3700751066207886,-1.6541719436645508,0.6258015036582947,0.5359451174736023,-0.5666880011558533,0.22843128442764282,-0.1115524172782898,0.45439857244491577,0.01240484566532729,-0.3577421382352793,-0.29778610928432897,0.8849802710999147,-0.5656268432801608,0.8349291219434127,-2.9132534293573324
1781551847254084096,1.8217151165008545,-1.0522304773330688,-1.22710120677948,-1.6492602825164795,0.609355628490448,0.5527592897415161,-0.5684565901756287,0.209430992603302,-0.06838428974151611,0.46367448568344116,0.015723735706971737,-0.3495355970686142,-0.3059355799166935,0.8854270587165961,-0.5856717359234122,0.8201088316341643,-2.91646631764204
1781551847264118784,1.8317499160766602,-0.810645341873169,-1.0926084518432617,-1.6689865589141846,0.5933889150619507,0.5680941939353943,-0.570226788520813,0.18924963474273682,-0.06472200155258179,0.4760037660598755,0.019677689567319478,-0.34188118404066054,-0.31305567564128556,0.8858477196653417,-0.6041881935481412,0.8053008265278447,-2.9220934242625116
1781551847274153984,1.841784954071045,-0.5424953699111938,-0.9695781469345093,-1.69204580783844,0.5777771472930908,0.5818464159965515,-0.5723883509635925,0.17742609977722168,-0.07584971189498901,0.48832768201828003,0.02435394954747058,-0.33469975694353377,-0.319032750959873,0.8863414568424677,-0.6209971476378476,0.7900833438733568,-2.930526036302295
1781551847284188160,1.8518190383911133,-0.2372017800807953,-0.877178430557251,-1.7329142093658447,0.5623414516448975,0.5938908457756042,-0.575383186340332,0.18102097511291504,-0.07249802350997925,0.49036121368408203,0.02983404546581386,-0.3278728267244351,-0.3237403616713935,0.8870183619265678,-0.6358863247459389,0.7739356901761654,-2.9421936566441285
1781551847294223104,1.861854076385498,0.03649634122848511,-0.7903556227684021,-1.7531569004058838,0.5469992160797119,0.6041485667228699,-0.5794793963432312,0.18881011009216309,-0.05132263898849487,0.5034448504447937,0.03609134470747905,-0.3213127869547716,-0.32713666092343496,0.8879397975123202,-0.64869693340154,0.7565727767492325,-2.9571662113053554
1781551847304258048,1.8718891143798828,0.19455362856388092,-0.7140698432922363,-1.7696791887283325,0.5318419933319092,0.6129323840141296,-0.5843441486358643,0.19885563850402832,-0.04170435667037964,0.5428860187530518,0.042896601814105935,-0.31502213306725513,-0.3295284026785871,0.88900621603213,-0.6597664779982486,0.738395667774416,-2.9745841420034504
1781551847314292992,1.8819239139556885,0.31349197030067444,-0.6387439370155334,-1.8019310235977173,0.5167441368103027,0.6208738684654236,-0.5894837975502014,0.18873071670532227,-0.06778854131698608,0.5703340768814087,0.05015294014690136,-0.308954174599175,-0.33136899101996653,0.890071117243751,-0.6698569520076805,0.7197379703225724,-2.993746611657076
1781551847324327936,1.8919589519500732,0.4454508125782013,-0.5133287310600281,-1.7863593101501465,0.5020225048065186,0.6277632117271423,-0.5948837399482727,0.15691298246383667,-0.11485433578491211,0.5821731686592102,0.05781263630945208,-0.3032549120702984,-0.33255766564302747,0.8911225707609897,-0.6786763196784882,0.7009421759170043,-3.014500165175763
1781551847334362112,1.9019930362701416,0.5622080564498901,-0.37717196345329285,-1.740144968032837,0.4881204664707184,0.6334902048110962,-0.6003571152687073,0.13414821028709412,-0.1633211374282837,0.6044922471046448,0.06572982569401457,-0.29811828701073073,-0.33308696481426464,0.892108903870599,-0.6860557093520487,0.6826478625840839,-3.036296802948548
1781551847344397056,1.9120280742645264,0.6373515725135803,-0.23084217309951782,-1.7447245121002197,0.47503963112831116,0.6381856203079224,-0.6058518290519714,0.12740784883499146,-0.19307154417037964,0.5895707607269287,0.07391284089221756,-0.2935415051331393,-0.33302772576569406,0.8930077331068592,-0.6921392883740862,0.6649613439284252,-3.059011637118801
1781551847354432000,1.9220631122589111,0.5179511308670044,-0.06631875038146973,-1.7772166728973389,0.4627925753593445,0.642848551273346,-0.6103841066360474,0.11742287874221802,-0.21873050928115845,0.5788289308547974,0.08244694983166476,-0.2896946215979047,-0.33299394601336224,0.8935292616625012,-0.698211249253979,0.6487277946693558,-3.082032659306655
1781551847364466944,1.9320979118347168,0.48929256200790405,-0.029367921873927116,-1.7395803928375244,0.4510989785194397,0.6479552984237671,-0.6137292981147766,0.1159023642539978,-0.2443603277206421,0.6030176281929016,0.09098342078044964,-0.28633787244746645,-0.33338562545120903,0.8936367556126479,-0.7048968891294938,0.6338401815776267,-3.104416690850854
1781551847374501888,1.9421329498291016,0.5331695079803467,0.05698853358626366,-1.6869088411331177,0.4399484694004059,0.6524218320846558,-0.6170827746391296,0.11075648665428162,-0.25551021099090576,0.6127035021781921,0.099434259544008,-0.28325317460575716,-0.33350600630277016,0.8936745704112652,-0.7107756696816904,0.6193637315612411,-3.126801005890395
1781551847384536064,1.95216703414917,0.6825459599494934,0.19071225821971893,-1.5815515518188477,0.429960697889328,0.6559092402458191,-0.6204167604446411,0.086915522813797,-0.2002512812614441,0.6095372438430786,0.10782171608741166,-0.2807604846944495,-0.3331143509498337,0.8936347157023524,-0.7153865528517912,0.6060254652509849,3.134099918540029
1781551847394571008,1.9622020721435547,1.0117781162261963,0.3125702440738678,-1.4396828413009644,0.42159098386764526,0.6570543646812439,-0.6249324083328247,0.08443620800971985,-0.13845396041870117,0.599373996257782,0.11619221053303212,-0.2788935639527189,-0.3312886393817722,0.8938486956916469,-0.7169045715155077,0.5934875295573393,3.1111731761540935
1781551847404606208,1.9722371101379395,1.3188222646713257,0.4342886805534363,-1.3619645833969116,0.4147352874279022,0.6555806398391724,-0.6310377717018127,0.09397748112678528,-0.09565937519073486,0.5971632599830627,0.12470454230624267,-0.2775514421116039,-0.32779003050744365,0.8944091552038691,-0.7149513222107675,0.5814391900739592,3.087115706477503
1781551847414640896,1.9822719097137451,1.7129813432693481,0.5781670212745667,-1.2707006931304932,0.4092971086502075,0.6513835191726685,-0.6388860940933228,0.10034647583961487,-0.07054245471954346,0.6127783060073853,0.1335494827622097,-0.27667939758324256,-0.32249878761089545,0.8953254059787079,-0.7094064054947493,0.5697683242021473,3.0615294780825675
1781551847424675840,1.9923069477081299,1.9650909900665283,0.7169889211654663,-1.1469639539718628,0.4056173264980316,0.6443594694137573,-0.6482866406440735,0.10430091619491577,-0.058025240898132324,0.5873125195503235,0.1425995476586413,-0.27637369123226363,-0.3153954012124268,0.896553853258675,-0.700185365107055,0.559085187065906,3.034996343441766
1781551847434710016,2.0023410320281982,2.0506346225738525,0.8732815980911255,-1.0453280210494995,0.4038015305995941,0.6355980634689331,-0.6579965353012085,0.08368626236915588,-0.1043480634689331,0.631614089012146,0.15155882049675895,-0.27675554954639225,-0.30725899785253225,0.8977907738136737,-0.6887829631194666,0.5504200908380856,3.0089994611272157
1781551847444744960,2.012376070022583,2.0959506034851074,1.0298117399215698,-0.9479719400405884,0.4038083255290985,0.6258434057235718,-0.6672772169113159,0.04066494107246399,-0.17935597896575928,0.6253613233566284,0.16039330220936907,-0.2779021882520714,-0.2985494192785147,0.8988395931424765,-0.6762123873241975,0.5442037021851523,2.984007049665279
1781551847454780160,2.0224111080169678,2.092674970626831,1.2127184867858887,-0.822477400302887,0.40584123134613037,0.6152871251106262,-0.6758066415786743,0.007076859474182129,-0.23889857530593872,0.6152902841567993,0.168978137214768,-0.27991327552748657,-0.2893876796417809,0.8996386652016145,-0.6627501648006879,0.5408080891379714,2.9604294352976175
1781551847464814848,2.0324459075927734,1.9648369550704956,1.4240738153457642,-0.723007321357727,0.4100891053676605,0.604552686214447,-0.6828931570053101,-0.023004114627838135,-0.2928614020347595,0.6196607351303101,0.17722353352708478,-0.2829828349462798,-0.2801323782876455,0.9000213614253669,-0.6492041926690956,0.5407997308896281,2.93875904082577
1781551847474850048,2.042480945587158,1.7534916400909424,1.6514537334442139,-0.6438509821891785,0.41656649112701416,0.5945712924003601,-0.6877189874649048,-0.06054842472076416,-0.3345615267753601,0.6301780939102173,0.18509405713745974,-0.28729236398199043,-0.27129984496287585,0.8997776231439555,-0.6367323353863045,0.5446162179762678,2.9193794231435657
1781551847484883968,2.0525150299072266,1.5411714315414429,1.8585999011993408,-0.5839476585388184,0.42508822679519653,0.5858717560768127,-0.6899669170379639,-0.07930880784988403,-0.35581499338150024,0.6232402324676514,0.19257711835386312,-0.29285070577791666,-0.2631634335291388,0.8988312770419561,-0.6259553261614157,0.5521732837985902,2.902331560897743
1781551847494919168,2.0625500679016113,1.5967351198196411,1.952264666557312,-0.5808533430099487,0.4349864423274994,0.5775700807571411,-0.6907963156700134,-0.06433522701263428,-0.3772222399711609,0.6341099739074707,0.19999248708888928,-0.2991989989043503,-0.25511134669605406,0.897441431253173,-0.6157489563462584,0.5619636688829367,2.8861030967134598
1781551847504954112,2.072585105895996,1.9871931076049805,2.0133743286132812,-0.4324668049812317,0.4457213282585144,0.5672696828842163,-0.6924864649772644,0.0014527440071105957,-0.2889798879623413,0.5336425304412842,0.2076199671732566,-0.30559933621515195,-0.24569453298644944,0.8961791528105366,-0.6031866832288971,0.5719007399859743,2.8686944451734857
1781551847514988800,2.0826199054718018,1.147018313407898,1.968617558479309,-0.322083055973053,0.4575617015361786,0.5578851103782654,-0.6923882365226746,0.09836176037788391,-0.09183591604232788,0.39615410566329956,0.2141167921479166,-0.31245623491363334,-0.23701684949919394,0.8946217096425194,-0.5918352772943365,0.5839617726477289,2.854514454535892
1781551847525024000,2.0926549434661865,0.8508044481277466,1.8100686073303223,-0.23904140293598175,0.4691224992275238,0.5523417592048645,-0.6890883445739746,0.1428617537021637,-0.1787760853767395,0.1603865623474121,0.2191587019073361,-0.31953988715635756,-0.23097638856673955,0.8924761632594819,-0.5851707563319171,0.5977147291041179,2.8450758387158586
1781551847535057920,2.102689027786255,0.49319249391555786,1.5770010948181152,-0.1427002251148224,0.4797528386116028,0.548826277256012,-0.6845632791519165,0.13923519849777222,-0.5073071122169495,-0.2569955587387085,0.2230787556306311,-0.32621159577933573,-0.2265046745871688,0.8902344612715692,-0.5809595207142346,0.6112733710940296,2.838621278069411
1781551847545093120,2.1127240657806396,-0.16320505738258362,1.214671015739441,0.03323884680867195,0.489200621843338,0.5472018718719482,-0.6791559457778931,0.1120414137840271,-0.481161892414093,-0.48219043016433716,0.22528296497959013,-0.33216866588692096,-0.2237990148705834,0.8881584655531167,-0.5790175182354065,0.6242250396716568,2.836404285521852
1781551847555128064,2.1227591037750244,-1.812739610671997,0.4946618676185608,-0.1834745556116104,0.4946804642677307,0.5541065335273743,-0.6695200800895691,0.2009219527244568,-0.44608956575393677,-1.0643360614776611,0.22484293464836022,-0.33701490184571503,-0.2272903540783888,0.8855539112240237,-0.5872893149500104,0.6363321883480536,2.84282967141693
1781551847565163008,2.13279390335083,-2.9512948989868164,-0.8415576219558716,-0.25735703110694885,0.49125707149505615,0.5715473890304565,-0.6572672128677368,0.33544886112213135,-0.5909565687179565,-1.9853872060775757,0.22145835605875647,-0.3381025752331161,-0.23885780992226643,0.8829438801858444,-0.6083903401230509,0.6418502446831968,2.8580596411010664
1781551847575197952,2.142828941345215,-3.032804012298584,-1.4871742725372314,-0.1550607532262802,0.48226192593574524,0.5927430391311646,-0.6450420618057251,0.44074222445487976,-0.31919872760772705,-2.4226155281066895,0.2157793715664662,-0.3359911009500348,-0.25414357799954446,0.8808861563529855,-0.6344604062940786,0.6419916843042341,2.8786061286675113
1781551847585232128,2.152863025665283,-2.566464424133301,-1.7767771482467651,-0.14080537855625153,0.470774382352829,0.6112715005874634,-0.6361749768257141,0.472859650850296,-0.01889479160308838,-2.2589056491851807,0.2094738381113951,-0.3314288376938215,-0.2684538000384566,0.8798909563718531,-0.6576661785576524,0.6370753099439542,2.89826269388132
1781551847595267072,2.162898063659668,-2.288240671157837,-1.8524867296218872,-0.2911757230758667,0.4578387141227722,0.6275388598442078,-0.6297448873519897,0.3047650158405304,0.02477431297302246,-1.6330113410949707,0.20394333077839671,-0.3255656043191197,-0.28130869770660405,0.8793631477896822,-0.6783881424757628,0.6286326115012137,2.9142146458379683
1781551847605302016,2.1729331016540527,-2.161254405975342,-1.634294033050537,-0.367174357175827,0.44472190737724304,0.6430524587631226,-0.6234628558158875,-0.016407698392868042,-0.09062325954437256,-0.8382985591888428,0.19932029212040736,-0.31963926798238756,-0.29342682099351425,0.878636942923328,-0.6984775073991746,0.6196026746038088,2.927537919957954
1781551847615337216,2.1829681396484375,-1.8545011281967163,-1.4651665687561035,-0.3896857798099518,0.4327390789985657,0.6572633981704712,-0.6170427203178406,-0.20051559805870056,-0.11830776929855347,-0.3540876507759094,0.19546958617208773,-0.3143263872448361,-0.30442991760868576,0.8776747587502528,-0.7171819184750038,0.6116055736495009,2.9388741696721103
1781551847625370880,2.1930019855499268,-1.3284075260162354,-1.1250262260437012,-0.4304957985877991,0.42189016938209534,0.6689277291297913,-0.6120002269744873,-0.2924346327781677,0.0009025335311889648,-0.15533369779586792,0.1927205506897052,-0.30945955475729925,-0.31342410619050726,0.8768459307740684,-0.7327653301897018,0.6035511491133759,2.946652492793308
1781551847635406080,2.2030370235443115,-0.5941945314407349,-0.6830921769142151,-0.47259318828582764,0.41334009170532227,0.6767160296440125,-0.6092662811279297,-0.35145044326782227,0.11127829551696777,-0.11970704793930054,0.19179115096700128,-0.30572048315580397,-0.3192206619652225,0.8762701623018193,-0.7432930284630713,0.5960972785085741,2.9489766935245596
1781551847645441024,2.2130720615386963,0.06486059725284576,-0.34564533829689026,-0.47256627678871155,0.40698331594467163,0.6802529096603394,-0.6096068620681763,-0.318329781293869,0.14601051807403564,-0.10061347484588623,0.1926462681305918,-0.3029551780224589,-0.3215816249236907,0.8761796603138446,-0.7481076469202085,0.5886596051631736,2.9456060811348688
1781551847655475968,2.223107099533081,0.589552104473114,-0.08426380157470703,-0.4952303171157837,0.4023984968662262,0.6800859570503235,-0.6128283739089966,-0.2683957815170288,0.08230417966842651,-0.04403197765350342,0.19495284127208498,-0.30091397291332056,-0.32099315462570954,0.8765886375443271,-0.7478798951614204,0.5810185019750789,2.9374806824612887
1781551847665511168,2.233142137527466,0.8383214473724365,0.09855608642101288,-0.49126434326171875,0.3990795612335205,0.6775635480880737,-0.6177727580070496,-0.2621318995952606,-0.02975165843963623,0.02254265546798706,0.19825527126123402,-0.299440185396629,-0.31851090926335496,0.8772578083125452,-0.7444447585986363,0.5735562440476826,2.9263384929752503
1781551847675545088,2.243175983428955,0.8828215003013611,0.25316083431243896,-0.4335344731807709,0.3970319926738739,0.6739785671234131,-0.6229915022850037,-0.2639906406402588,-0.11834508180618286,0.12286949157714844,0.20188636759345632,-0.29860175345881645,-0.3151844460684987,0.8779166293342243,-0.7395811971245841,0.5673948473398931,2.914607084135216
1781551847685580032,2.25321102142334,0.793543815612793,0.37868574261665344,-0.37369322776794434,0.39628687500953674,0.670272171497345,-0.6274487972259521,-0.27343836426734924,-0.16976863145828247,0.17018866539001465,0.20542768884843396,-0.2984897026664984,-0.31173627521601804,0.8783643259474444,-0.7345754433539327,0.563320186594313,2.903842484303977
1781551847695614976,2.2632460594177246,0.6237196326255798,0.5079025626182556,-0.3129422664642334,0.396781861782074,0.6671323180198669,-0.6304749846458435,-0.2743911147117615,-0.16609472036361694,0.196896493434906,0.20870681344945197,-0.2991699249612208,-0.3086419679274014,0.8784526384171837,-0.7303525510076564,0.5617126863190788,2.894771907431869
1781551847705650176,2.2732810974121094,0.43217840790748596,0.5774045586585999,-0.2625320851802826,0.3983287811279297,0.6648849844932556,-0.6318718791007996,-0.2566814720630646,-0.13268893957138062,0.20004820823669434,0.2116125905566036,-0.3005704317346979,-0.30613962210524887,0.8781548937987927,-0.7273398338595563,0.5624693617827434,2.8876846302945185
1781551847715685120,2.283316135406494,0.09853175282478333,0.6263548135757446,-0.22842498123645782,0.4005067050457001,0.6641411781311035,-0.6312772035598755,-0.22677013278007507,-0.12289667129516602,0.165044903755188,0.21402699400045927,-0.3025535871837414,-0.3046682245670218,0.8774001827707323,-0.7263444745219221,0.5653579333885262,2.8829454824965643
1781551847725719808,2.2933509349823,-0.3215281367301941,0.6679749488830566,-0.2045649141073227,0.40318456292152405,0.6656967997550964,-0.6279251575469971,-0.21020665764808655,-0.12120217084884644,0.18342137336730957,0.2158019090801703,-0.3052056894864263,-0.3047735354480745,0.8760092112323672,-0.728427185690499,0.5707945919024828,2.881298079928595
1781551847735753984,2.303385019302368,-0.7512797117233276,0.6721481084823608,-0.21133041381835938,0.40599414706230164,0.6699074506759644,-0.6216049790382385,-0.20581409335136414,-0.10228049755096436,0.17852020263671875,0.2169158648257681,-0.3084124731447186,-0.3067234440672894,0.8739278500855342,-0.7340841068454722,0.5785783977899895,2.8828817302340872
1781551847745788928,2.313420057296753,-0.9940710663795471,0.6998093128204346,-0.1606975942850113,0.40893298387527466,0.6761730313301086,-0.6128326058387756,-0.19645437598228455,-0.06478393077850342,0.19347530603408813,0.21742402827593585,-0.31206882233376537,-0.3101560140649369,0.8712881171938828,-0.7425557113800866,0.5884294019174697,2.887352892500511
1781551847755824128,2.3234550952911377,-1.0638823509216309,0.7182852625846863,-0.0589483380317688,0.4125381112098694,0.6829455494880676,-0.6028247475624084,-0.17186123132705688,-0.007149040699005127,0.16344791650772095,0.2173784813025502,-0.3161389601928532,-0.31407607203621624,0.8684232739041648,-0.7517874881594,0.6001395354331108,2.894066294734787
1781551847765859072,2.3334901332855225,-1.1063613891601562,0.7344032526016235,0.012635836377739906,0.4167442321777344,0.689500093460083,-0.5923798680305481,-0.14194872975349426,0.04633969068527222,0.1134522557258606,0.21690320824474085,-0.32043835960139455,-0.3180083868064702,0.8655304565513561,-0.7607986352357015,0.6130767639154608,2.9022977815825404
1781551847775894016,2.343524932861328,-1.2202645540237427,0.7290098071098328,0.06144065782427788,0.42131906747817993,0.6961478590965271,-0.5812644362449646,-0.14104565978050232,0.018802642822265625,0.09737777709960938,0.2160454112870877,-0.3249295646018901,-0.32216231865188893,0.8625291639334602,-0.770017599743046,0.6271980711485602,2.9120702704121935
1781551847785927936,2.3535590171813965,-1.429890513420105,0.6703196167945862,0.0555603988468647,0.4257962107658386,0.703528642654419,-0.5689859390258789,-0.1441037356853485,-0.039084672927856445,0.1119699478149414,0.21474280016390915,-0.3294866833913221,-0.32702533208504775,0.8592894933298286,-0.7803506388157248,0.6424393260643926,2.9238083678261537
1781551847795963136,2.3635940551757812,-1.6015626192092896,0.6204811930656433,0.0509968064725399,0.4297802448272705,0.7118873596191406,-0.5554324984550476,-0.1411297619342804,-0.0694771409034729,0.09635663032531738,0.21305626765286984,-0.33396523208368356,-0.3327926978480321,0.8557588216589623,-0.7921819644637009,0.6585448212638736,2.937460384581121
1781551847805998080,2.373629093170166,-1.862749695777893,0.6230266094207764,0.05989842116832733,0.4335991144180298,0.7211418151855469,-0.5403205156326294,-0.12654650211334229,-0.059810638427734375,0.0795813798904419,0.21093223073807438,-0.338551894129206,-0.33944420532230557,0.8518613782559009,-0.8054490756352366,0.6762543826836631,2.9535148861631155
1781551847816033024,2.383664131164551,-1.882248878479004,0.5799526572227478,0.025695180520415306,0.4371451735496521,0.7310614585876465,-0.5238828659057617,-0.1303977370262146,0.0026268959045410156,0.13836956024169922,0.20853142311884357,-0.3431899820961046,-0.34681291207795406,0.8476179200272663,-0.8198763523391424,0.6953869244759832,2.971548925650018
1781551847826067968,2.3936989307403564,-1.676918625831604,0.5728445649147034,0.05706322193145752,0.44037434458732605,0.740121066570282,-0.5082235932350159,-0.12721821665763855,0.09670144319534302,0.12577736377716064,0.20629176352180686,-0.34753012473122696,-0.3537103376235841,0.8435375199923525,-0.8332504019970277,0.7139939112106893,2.9890558151684985
1781551847836101888,2.403733015060425,-1.4410892724990845,0.5850415825843811,0.19339044392108917,0.44423365592956543,0.7474614381790161,-0.4939208924770355,-0.09709620475769043,0.1624659299850464,0.1684814691543579,0.2040718369565053,-0.351837083950248,-0.35951386839536287,0.8398304227913183,-0.844232454964598,0.7324848707863797,3.006012606713712
1781551847846137088,2.4137680530548096,-1.1832716464996338,0.48773419857025146,0.22996816039085388,0.44850313663482666,0.7527340054512024,-0.4819090962409973,-0.06826940178871155,0.06849396228790283,0.0802062451839447,0.20184082280649862,-0.35578073052380094,-0.36395813224423,0.8367883825167961,-0.8522052793724187,0.7495091157257445,3.021580365459005
1781551847856172032,2.4238030910491943,-1.199549913406372,0.37604042887687683,0.24383950233459473,0.4523407518863678,0.7573940753936768,-0.47089502215385437,-0.0478912889957428,-0.06415677070617676,-0.04956698417663574,0.19951472219405672,-0.3592279247328194,-0.3681138188254895,0.8340512399923389,-0.8593128985592416,0.7653038465314814,3.0367423797815114
1781551847866207232,2.433838129043579,-1.1600384712219238,0.2104858160018921,0.25988689064979553,0.455676794052124,0.7617241144180298,-0.4605812132358551,0.0016443431377410889,-0.10524529218673706,-0.1641899049282074,0.1968741844151453,-0.36211413580591634,-0.37226703242139764,0.8315835552466939,-0.8659700749504904,0.7800455362343004,3.0522188720964145
1781551847876241920,2.4438729286193848,-1.137392520904541,0.05283067747950554,0.24822892248630524,0.45821505784988403,0.7658461928367615,-0.45113036036491394,0.05687594413757324,-0.0989302396774292,-0.27355533838272095,0.19394519729688192,-0.3642598048719065,-0.37649649187249723,0.8294278349938842,-0.8723563017731651,0.7931889916908516,3.067746015740198
1781551847886276096,2.453907012939453,-1.2520583868026733,-0.06950189173221588,0.27266979217529297,0.4601595103740692,0.7699437141418457,-0.44208577275276184,0.0825192928314209,-0.07499748468399048,-0.28998515009880066,0.19065675667736445,-0.36583079865547974,-0.3809526787572735,0.8274616637523302,-0.8787529208669811,0.8054274558649576,3.083900101610888
1781551847896311040,2.463942050933838,-1.4895737171173096,-0.12918654084205627,0.2865675091743469,0.4618699550628662,0.7746528387069702,-0.43195945024490356,0.07081431150436401,-0.13613361120224,-0.22253575921058655,0.18679050774353687,-0.3672383556921342,-0.3862075395446269,0.8252811271629167,-0.8861659818505168,0.8188490129912246,3.1026051590352206
1781551847906345984,2.4739770889282227,-1.6317263841629028,-0.1920914649963379,0.3015107810497284,0.46344852447509766,0.7800047397613525,-0.42048540711402893,0.05306142568588257,-0.1527465581893921,-0.12347513437271118,0.1823648640526953,-0.36858313076235943,-0.3923057069888083,0.8227914122255309,-0.8946734212617682,0.8339643673143858,3.124170200684853
1781551847916381184,2.4840121269226074,-1.7549604177474976,-0.23551137745380402,0.3255833387374878,0.4650160074234009,0.7856040596961975,-0.4081500768661499,0.06246507167816162,-0.08890300989151001,-0.1160961389541626,0.17751351143462807,-0.3698575240643469,-0.39891147652665365,0.8201000615768309,-0.9036718275505855,0.8504324314287498,-3.1352519782230006
1781551847926415872,2.494046926498413,-1.8472453355789185,-0.2323097139596939,0.3981936275959015,0.46687498688697815,0.7911700010299683,-0.3950670063495636,0.07096683979034424,-0.014772295951843262,-0.1569197177886963,0.17216997439380596,-0.3711415688015264,-0.40585764952633624,0.8172460699278717,-0.9127196751214641,0.868515738511868,-3.10912958021947
1781551847936450048,2.5040810108184814,-1.9963160753250122,-0.3063051104545593,0.40492531657218933,0.4691667854785919,0.7967249751091003,-0.3809356093406677,0.08759590983390808,-0.029314696788787842,-0.17274481058120728,0.1664495401567743,-0.3726199524069298,-0.4131423094470826,0.8141022454730363,-0.9218565821554688,0.8888167620282429,-3.080535918335896
1781551847946484992,2.514116048812866,-2.3337173461914062,-0.38373294472694397,0.4092406928539276,0.4710950255393982,0.8028882741928101,-0.3652943968772888,0.1031847596168518,-0.08763253688812256,-0.15942484140396118,0.16003844540801115,-0.3738034159270432,-0.4214544006375746,0.8105769205014767,-0.9321245442505206,0.9112267230822579,-3.0481292163529092
1781551847956520192,2.524151086807251,-2.7092413902282715,-0.31258073449134827,0.39574673771858215,0.47312504053115845,0.8099572658538818,-0.346586138010025,0.07629817724227905,-0.10666441917419434,-0.1512013077735901,0.15289624390281348,-0.3752157434513172,-0.4311845086526959,0.8061735626227451,-0.9440792347976157,0.9385593014819507,-3.0098322572035285
1781551847966555136,2.5341861248016357,-3.0972237586975098,-0.37103164196014404,0.3451285660266876,0.4749472737312317,0.8179606795310974,-0.32460033893585205,0.04324117302894592,-0.1283244490623474,-0.17781054973602295,0.1451095256527843,-0.37673298430439867,-0.44246140306178944,0.8007767316487617,-0.9578570815000723,0.9712677497514396,-2.965146634167759
1781551847976589824,2.5442209243774414,-3.02048921585083,-0.3775302767753601,0.32133933901786804,0.4764828383922577,0.8261440396308899,-0.30074962973594666,0.016986489295959473,-0.11612194776535034,-0.16124072670936584,0.1371081581147443,-0.37819756426786233,-0.4545236941597898,0.7947177567144359,-0.9722295826865576,1.0077605065597135,-2.9162948587400304
1781551847986624000,2.5542550086975098,-2.7662363052368164,-0.3451997935771942,0.3381763696670532,0.47826191782951355,0.8329001665115356,-0.2784649431705475,0.016214340925216675,-0.042891740798950195,-0.12261226773262024,0.12948564026427642,-0.3795024776823758,-0.46555922917059134,0.7889650639956586,-0.9843276356987797,1.0435353244651313,-2.8689159670035207
1781551847996658944,2.5642900466918945,-2.3677046298980713,-0.3393693268299103,0.2966260015964508,0.4799513518810272,0.8383685350418091,-0.25842756032943726,0.026899784803390503,0.09995537996292114,-0.06641677021980286,0.12252760830639145,-0.38052712841969805,-0.47537914023186123,0.7837095534225526,-0.9942832994734736,1.0768675390998756,-2.824942287013587
1781551848006694144,2.5743250846862793,-1.7241511344909668,-0.34271666407585144,0.24922840297222137,0.4815106689929962,0.8421168923377991,-0.24287167191505432,0.062449902296066284,0.14994853734970093,-0.14366400241851807,0.11672198027006371,-0.38112565438734863,-0.48301904310482247,0.7796228685096955,-1.001196522346588,1.1036387319523413,-2.789103263070979
1781551848016729088,2.584360122680664,-1.5257940292358398,-0.505069375038147,0.12317992746829987,0.4820346534252167,0.8450891971588135,-0.2312289923429489,0.08643153309822083,0.15657401084899902,-0.21905791759490967,0.11190510558614324,-0.38084953219358686,-0.48922299306731465,0.7765898239512959,-1.0067320102359452,1.1235253023360394,-2.760527989119436
1781551848026764032,2.5943949222564697,-1.325372576713562,-0.5289320945739746,0.1504451036453247,0.48199716210365295,0.8476473093032837,-0.22174957394599915,0.06322988867759705,0.2216581106185913,-0.26140475273132324,0.10738419328837152,-0.3799247982935725,-0.4947548497140161,0.7741727493757811,-1.011535052111853,1.1396047036635588,-2.735319324833784
1781551848036798976,2.6044299602508545,-1.4767272472381592,-0.5502070188522339,0.013540512882173061,0.48162275552749634,0.8502036333084106,-0.21258656680583954,0.03214061260223389,0.1252143383026123,-0.2998187839984894,0.10306692621795259,-0.37881246172895766,-0.5002077922270713,0.7717968339064887,-1.0163720117694417,1.155120121835476,-2.7107287440825276
1781551848046833152,2.614464044570923,-1.818792700767517,-0.6060629487037659,-0.14815384149551392,0.47979623079299927,0.8539424538612366,-0.20143957436084747,0.0013896822929382324,0.04420512914657593,-0.24712306261062622,0.09879617373578298,-0.3772175793723419,-0.5069389610146922,0.7687386688193962,-1.0235151645949792,1.1733009312746117,-2.6825799849977
1781551848056868096,2.6244990825653076,-2.1084043979644775,-0.6433852910995483,-0.2555064260959625,0.4768107533454895,0.8587966561317444,-0.18740297853946686,0.025874793529510498,0.050566136837005615,-0.16696715354919434,0.09425135749134894,-0.3752526767971388,-0.5152513330893435,0.76473410433979,-1.032916249524827,1.196309249694586,-2.6484156586100545
1781551848066903040,2.6345341205596924,-2.1971077919006348,-0.6857964992523193,-0.2684856057167053,0.4733143746852875,0.86397385597229,-0.17182160913944244,0.033857256174087524,0.06966567039489746,-0.08470916748046875,0.08944627436950772,-0.3730045026462148,-0.5243632681530908,0.7602040268138902,-1.043108933576549,1.2225716286599422,-2.6101411989919
1781551848076937984,2.644568920135498,-2.1347451210021973,-0.6793031692504883,-0.24123238027095795,0.46994656324386597,0.868765115737915,-0.15619733929634094,0.007943511009216309,0.06362330913543701,-0.061194613575935364,0.08454870701843058,-0.3706550623779968,-0.533400558845009,0.7556125199676598,-1.052703209353296,1.2499107229776745,-2.570623357514027
1781551848086972928,2.654603958129883,-1.846543550491333,-0.6303271651268005,-0.18671561777591705,0.46708109974861145,0.8727988600730896,-0.1416238695383072,-0.03487592935562134,0.025058746337890625,-0.06429348886013031,0.07982652523248701,-0.3684110021479858,-0.5417207724570966,0.7512919756811638,-1.0609077144113563,1.276396754008885,-2.532590637842803
1781551848097007104,2.664638042449951,-1.4845542907714844,-0.5552425384521484,-0.1047283411026001,0.46495574712753296,0.8757361769676208,-0.13000942766666412,-0.05391448736190796,-0.03641122579574585,-0.0903732180595398,0.07574020986060548,-0.366405784915749,-0.5483995655360816,0.7478423555978811,-1.0669584928922682,1.2981430001917342,-2.5008952666859066
1781551848107042048,2.674673080444336,-1.1894618272781372,-0.4654867947101593,-0.02121400646865368,0.46376845240592957,0.8777300119400024,-0.12045262008905411,-0.054008930921554565,-0.05563223361968994,-0.03390532732009888,0.07206682151098662,-0.36482139666363,-0.5537860935508773,0.745005160602924,-1.071104011148078,1.316685136611654,-2.4738887496664654
1781551848117076992,2.6847081184387207,-0.9150928854942322,-0.3811122477054596,0.08175498992204666,0.4635017216205597,0.8788256645202637,-0.11327631026506424,-0.06431657075881958,-0.08637577295303345,-0.0053302571177482605,0.06888335054756467,-0.36367402385046543,-0.5577661238136754,0.7428951236920799,-1.0733953563608323,1.3311023010154133,-2.4526119985031563
1781551848127111936,2.6947429180145264,-0.6530482172966003,-0.2659093737602234,0.19032993912696838,0.46433743834495544,0.8790540099143982,-0.10795736312866211,-0.08039578795433044,-0.1026105284690857,0.04110860824584961,0.06604940682228937,-0.3631030287459537,-0.5605153950374253,0.7413609973663784,-1.073874137398382,1.3423570660488895,-2.4360838800032556
1781551848137146880,2.704777956008911,-0.5448876619338989,-0.1324029564857483,0.3330255448818207,0.46643319725990295,0.8784698843955994,-0.1035882756114006,-0.09005996584892273,-0.11661392450332642,0.058864787220954895,0.06344666841368081,-0.3633146180239954,-0.5623240611350415,0.740113873043716,-1.0726502717883597,1.352257210378524,-2.4226130440050073
1781551848147181056,2.7148120403289795,-0.623323380947113,-0.08569257706403732,0.45366382598876953,0.46981942653656006,0.8771922588348389,-0.09901216626167297,-0.05938851833343506,-0.14870715141296387,0.09823399782180786,0.06061934754694059,-0.3642173552416395,-0.5637726791076084,0.7388040081931506,-1.0699828436140884,1.363090553104449,-2.4090472359095503
1781551848157216000,2.7248470783233643,-0.7426367402076721,-0.07099325954914093,0.47232699394226074,0.47381946444511414,0.8756536841392517,-0.09341089427471161,-0.0229986310005188,-0.11893987655639648,0.15476644039154053,0.057421686001978715,-0.3654283938992945,-0.5654702830609695,0.7371621925288377,-1.0667876550938742,1.3761479584943361,-2.3932061304574646
1781551848167251968,2.7348830699920654,-0.7095932960510254,-0.03592901676893234,0.5889108777046204,0.47837144136428833,0.8738241791725159,-0.087132528424263,-0.01892930269241333,0.00787442922592163,0.19994080066680908,0.05396217061508652,-0.3669250388477011,-0.5672739663955484,0.7352920215627797,-1.063012370999281,1.3906273749497826,-2.376029344570308
1781551848177287168,2.74491810798645,-0.5391834378242493,-0.033347614109516144,0.6944617629051208,0.484012633562088,0.8712167739868164,-0.08193377405405045,0.013683289289474487,0.037047386169433594,0.17620259523391724,0.05034701399807215,-0.36880410102328276,-0.5683455343278356,0.7337792998108364,-1.05767550716459,1.403105789157305,-2.3613338609414556
1781551848187322112,2.754953145980835,-0.4516696035861969,-0.026841916143894196,0.7378585338592529,0.4902564287185669,0.8680958151817322,-0.07783517241477966,0.041939616203308105,-0.06885570287704468,0.09414684772491455,0.0467231852859667,-0.37086626100537384,-0.5688063193695458,0.732621680457808,-1.0513532902948655,1.4133462428170203,-2.3492305990929654
1781551848197357056,2.7649879455566406,-0.5276077389717102,-0.0587037056684494,0.6951770782470703,0.4965061843395233,0.8648849129676819,-0.07386266440153122,0.0645594596862793,-0.15106356143951416,0.027826912701129913,0.0430484451892517,-0.3728795629984035,-0.5692358904392192,0.7314903656935672,-1.0449210501716815,1.4231145715053524,-2.337459350832197
1781551848207390976,2.775022029876709,-0.6222109794616699,-0.08547540009021759,0.6577469110488892,0.5022938251495361,0.8619268536567688,-0.0691601037979126,0.08550524711608887,-0.1540563702583313,0.0449596643447876,0.039267246786872954,-0.3746562110220572,-0.5701339060044448,0.7300946312508984,-1.0390577205986589,1.4339681162923272,-2.3240296409645613
1781551848217426176,2.7850570678710938,-0.5865333676338196,-0.06647907197475433,0.628028154373169,0.5077986121177673,0.8590702414512634,-0.06433470547199249,0.10740524530410767,-0.12957805395126343,0.0540502667427063,0.03555578339485124,-0.3763315403411625,-0.57114553064273,0.7286310288693103,-1.033450445502281,1.4447743814217175,-2.310578542432567
1781551848227461120,2.7950921058654785,-0.46356436610221863,-0.06471006572246552,0.5934835076332092,0.5130002498626709,0.8562841415405273,-0.06006927043199539,0.1367800235748291,-0.06349849700927734,0.026576220989227295,0.03214004316677712,-0.3779365312319113,-0.571952220500448,0.727325024135399,-1.0280319067372121,1.4542330877254708,-2.298807374466517
1781551848237496064,2.8051271438598633,-0.39511871337890625,-0.08190502971410751,0.5770677924156189,0.5180118083953857,0.8534795045852661,-0.05688996613025665,0.18196988105773926,0.03865611553192139,0.012959957122802734,0.028969416675065158,-0.3794059378041084,-0.5723688951076623,0.7263647300972094,-1.0226260999382564,1.4614110102546498,-2.2894862922380876
1781551848247531264,2.815162181854248,-0.49500325322151184,-0.06973731517791748,0.5014603734016418,0.5225690007209778,0.8509105443954468,-0.053597111254930496,0.21208053827285767,0.012492597103118896,0.0187765471637249,0.025959259230391676,-0.38072581206950723,-0.5729304495152887,0.7253444412813043,-1.0177162305608722,1.4685890570727096,-2.280139855245444
1781551848257564928,2.8251960277557373,-0.6929993629455566,-0.03361766040325165,0.3985995054244995,0.5264116525650024,0.8488262891769409,-0.04883451759815216,0.20759713649749756,-0.11829650402069092,0.03995394706726074,0.023031883275739472,-0.38191624803016355,-0.5742148731699646,0.7238002761770187,-1.0137611695745756,1.4782924006991502,-2.268113221346467
1781551848267600128,2.835231065750122,-0.7911542057991028,-0.00045078760012984276,0.24766859412193298,0.5291515588760376,0.8474650979042053,-0.04244490712881088,0.2020953893661499,-0.15582996606826782,0.05868023633956909,0.02035018969714814,-0.3828683285311023,-0.5763587329220958,0.7216705405052815,-1.011191815435105,1.4907545616499036,-2.2532153282642997
1781551848277635072,2.845266103744507,-0.6603652834892273,0.0355471596121788,0.11905335634946823,0.5306908488273621,0.8467962741851807,-0.0360989049077034,0.19196534156799316,-0.037302374839782715,0.0379299558699131,0.018326410304241262,-0.38351853267787017,-0.57867441852958,0.7195231247996056,-1.0099331497474455,1.5028784773337134,-2.2390870705790196
1781551848287670016,2.8553011417388916,-0.4325137734413147,0.06949487328529358,0.007760387845337391,0.5312362909317017,0.846649169921875,-0.03119124472141266,0.1698133945465088,0.09335315227508545,-0.031018849462270737,0.017206154796053016,-0.38393680702280175,-0.5805143456159143,0.7178435936477043,-1.0096566123834054,1.5121492128743494,-2.228759319085848
1781551848297705216,2.8653361797332764,-0.19946745038032532,0.056232064962387085,-0.03465231880545616,0.5311161279678345,0.8468326926231384,-0.028108319267630577,0.14362752437591553,0.10066181421279907,-0.07710105180740356,0.016838304772405506,-0.3841536488997685,-0.5816973562913882,0.716777956649954,-1.0100015656066412,1.5179225410539443,-2.222723184037471
1781551848307739904,2.875370979309082,0.05551450699567795,-0.011779342778027058,-0.05895579233765602,0.5306922793388367,0.8471190929412842,-0.02747430093586445,0.12078166007995605,-0.0005767345428466797,-0.0719672441482544,0.016965133226281924,-0.3840885233474239,-0.582012762218443,0.7165537650738094,-1.0105403240294586,1.519071824364753,-2.221620900641616
1781551848317774080,2.8854050636291504,0.2706896662712097,-0.0726432204246521,-0.01772899366915226,0.5303016304969788,0.8473074436187744,-0.029158752411603928,0.07835614681243896,0.00036400556564331055,-0.09906089305877686,0.017324197252155716,-0.3837848694046476,-0.5814892931426426,0.7171326560611727,-1.0108948707435812,1.5158664224148284,-2.224880260554309
1781551848327809024,2.895440101623535,0.22814594209194183,-0.1478375792503357,0.03468441218137741,0.530350923538208,0.8471702933311462,-0.032097771763801575,0.04882687330245972,0.030484676361083984,-0.15598201751708984,0.017506909622992024,-0.38339775825291955,-0.5804802089954639,0.7181520265316614,-1.0106366774916602,1.5103482986640089,-2.230106330797065
1781551848337844224,2.90547513961792,-0.00759761780500412,-0.20577889680862427,0.08479445427656174,0.5307873487472534,0.846821665763855,-0.03402526304125786,0.019398748874664307,-0.06947803497314453,-0.14331233501434326,0.017015049990707385,-0.38292781283527066,-0.5799600494041248,0.7188345048740129,-1.0099808544122382,1.5067805378219346,-2.232251082781361
1781551848347879168,2.9155101776123047,-0.37120965123176575,-0.28179019689559937,0.1749347299337387,0.5317634344100952,0.8462229371070862,-0.03368357568979263,-0.0042822957038879395,-0.18692106008529663,-0.10051745176315308,0.01546350618042896,-0.3824099754029428,-0.5804488109986627,0.7187508153074492,-1.0088561283514363,1.5075376782534915,-2.228407844817604
1781551848357913856,2.9255449771881104,-0.590671956539154,-0.3453105688095093,0.2796699106693268,0.5336090922355652,0.8451523184776306,-0.03128914535045624,-0.013986289501190186,-0.20496982336044312,-0.05428212881088257,0.012793788290651805,-0.38197628422522345,-0.5817641668379636,0.7179700120402517,-1.0068500269173941,1.5122265638143428,-2.219119377311857
1781551848367948032,2.9355790615081787,-0.7022605538368225,-0.39192628860473633,0.3704642653465271,0.5362364649772644,0.8436134457588196,-0.027692051604390144,-0.028011977672576904,-0.17123490571975708,-0.05876427888870239,0.009285804833986864,-0.38162408835848954,-0.5835383698663501,0.7167704148688936,-1.0039776437890342,1.5192006661846527,-2.206458700231302
1781551848377982976,2.9456140995025635,-0.7150455713272095,-0.43100711703300476,0.45886072516441345,0.5396602153778076,0.8415405750274658,-0.024006249383091927,-0.05259966850280762,-0.12054753303527832,-0.05503427982330322,0.005227491733953436,-0.38138384654547064,-0.5852719341858277,0.715524817271578,-1.0001287640325853,1.5263416253477728,-2.193043484421932
1781551848388018176,2.9556491374969482,-0.7964648008346558,-0.436409056186676,0.5374119877815247,0.5437774062156677,0.838992714881897,-0.019931679591536522,-0.0861663818359375,-0.09605759382247925,-0.07676327228546143,0.0007134074239245837,-0.38131976417954766,-0.5870514437439704,0.7141185548945448,-0.9954294581386497,1.5341586148182755,-2.1785975238892203
1781551848398053120,2.965684175491333,-0.8549603223800659,-0.46713578701019287,0.5873582363128662,0.5484094023704529,0.8360657095909119,-0.015540731139481068,-0.1154717206954956,-0.10622245073318481,-0.1146625280380249,-0.004185172608677988,-0.38135323043598257,-0.5888967210511377,0.7125678650846592,-0.9900723978232285,1.5424660798793495,-2.163277936238706
1781551848408088064,2.9757189750671387,-0.9792473912239075,-0.5468584895133972,0.6480119824409485,0.5534880757331848,0.8327887654304504,-0.010684138163924217,-0.10837388038635254,-0.07213801145553589,-0.08186036348342896,-0.009625436769318612,-0.3813340549461036,-0.5909672319528284,0.710809089339776,-0.9841263186710164,1.551495437346328,-2.14637388251061
1781551848418123008,2.9857540130615234,-1.1107548475265503,-0.6172007918357849,0.7153577208518982,0.5591588020324707,0.8290441632270813,-0.005246804095804691,-0.09906047582626343,0.006847679615020752,-0.06904822587966919,-0.015784823674044147,-0.3812359730397805,-0.5933259903070225,0.7087837443648051,-0.9773961415567597,1.5614132140415922,-2.127422651760294
1781551848428157184,2.995788097381592,-1.2115572690963745,-0.6666803359985352,0.721043050289154,0.5651270747184753,0.8250035047531128,0.0008098194375634193,-0.10701245069503784,0.014855504035949707,-0.07420456409454346,-0.02250614592724368,-0.38098167964905766,-0.5960351243885159,0.7064620216557043,-0.9702083920439156,1.5722293122901676,-2.1065081238518126
1781551848438192128,3.0058231353759766,-1.1321547031402588,-0.7105377912521362,0.7453627586364746,0.5711935758590698,0.8207884430885315,0.006658919621258974,-0.11669528484344482,0.026776254177093506,-0.09393918514251709,-0.029400280373637892,-0.38060037788747253,-0.5987259907955037,0.7041350850761519,-0.9627898925796531,1.5824537017445834,-2.0857437397892635
1781551848448227072,3.0158581733703613,-0.9055768847465515,-0.7752140164375305,0.6888440847396851,0.5771775841712952,0.8165472149848938,0.010798580944538116,-0.11277639865875244,0.09325802326202393,-0.09189903736114502,-0.03615495785502154,-0.3799606667967,-0.6008570396549845,0.7023485683570971,-0.9554043665974782,1.5895034309028648,-2.0679662394415854
1781551848458262016,3.025892972946167,-0.5358081459999084,-0.7193893194198608,0.6854698657989502,0.5828526616096497,0.8124845623970032,0.012307371944189072,-0.14605462551116943,0.22825628519058228,-0.022897006943821907,-0.04221465657823418,-0.3792238705718172,-0.6019492851505653,0.7014728713141399,-0.9484013806288694,1.5919089398965012,-2.055715887599155
1781551848468296960,3.0359280109405518,-0.30214378237724304,-0.6541265249252319,0.6752803921699524,0.5885013937950134,0.8084123134613037,0.011643042787909508,-0.1625523567199707,0.293256938457489,0.012069105170667171,-0.04749949651747474,-0.3787691001148156,-0.6019597080157187,0.7013716918175297,-0.9414497803898744,1.5905779679584213,-2.0488162879382577
1781551848478331136,3.04596209526062,-0.17177429795265198,-0.5902220606803894,0.6427605152130127,0.5939034819602966,0.8044776320457458,0.009727763943374157,-0.14323508739471436,0.22233206033706665,0.03751349449157715,-0.05213591301633245,-0.37849662169920845,-0.6013353385180128,0.7017250523166538,-0.9347954738219506,1.5871742314293138,-2.045236322134106
1781551848488366080,3.055997133255005,-0.13218986988067627,-0.5142286419868469,0.6251357197761536,0.5990468859672546,0.8006769418716431,0.0077089364640414715,-0.11024677753448486,0.13187932968139648,0.03083479404449463,-0.05633036382103977,-0.3784175050478641,-0.6005453022916114,0.702120005901641,-0.9284243196671211,1.5836642864128143,-2.0427106863940936
1781551848498401280,3.0660321712493896,0.01472979225218296,-0.4602130651473999,0.647225022315979,0.6041333079338074,0.7968655824661255,0.005323951598256826,-0.07289856672286987,0.09241664409637451,0.05264425277709961,-0.060147649207016686,-0.3785815952205667,-0.5994480391358629,0.7026523841304595,-0.9220892653263818,1.5796086433774161,-2.0416773711278
1781551848508435968,3.0760669708251953,0.25975844264030457,-0.3943004906177521,0.6912782192230225,0.6094852089881897,0.7927957773208618,0.0015845611924305558,-0.04433023929595947,0.08592730760574341,0.08839654922485352,-0.06352360976631993,-0.3791250796844598,-0.5975420106978724,0.7036848790367838,-0.9153824901881742,1.5733961562249552,-2.0440895785539595
1781551848518470912,3.08610200881958,0.5291526317596436,-0.32538747787475586,0.7107462286949158,0.6150550246238708,0.7884752154350281,-0.003724074689671397,-0.041797637939453125,0.08390015363693237,0.10908597707748413,-0.06633810912364532,-0.3800826974468201,-0.5947058985472903,0.7053092601696077,-0.9083259937333403,1.5647415365275084,-2.050472360556795
1781551848528506112,3.096137046813965,0.7737181782722473,-0.25979846715927124,0.6406598091125488,0.6204671859741211,0.7841616272926331,-0.010536976158618927,-0.038741111755371094,0.03447240591049194,0.01143723726272583,-0.06845071131616062,-0.3812980924546578,-0.5910526850097455,0.7075188911758863,-0.9013439736487965,1.5538156316700829,-2.0605998610553176
1781551848538540032,3.106171131134033,1.0762951374053955,-0.22781310975551605,0.5882560014724731,0.6251245737075806,0.7802860736846924,-0.019310349598526955,-0.025515198707580566,0.04005694389343262,-0.1442791223526001,-0.06949350907693076,-0.3825459384959352,-0.5865180564116473,0.7105109520082329,-0.895123114931874,1.5399157443561096,-2.0753400926992116
1781551848548575232,3.116206169128418,1.3943912982940674,-0.22080685198307037,0.6200109720230103,0.6297969222068787,0.7761629819869995,-0.030442865565419197,0.0015506744384765625,0.11252409219741821,-0.07186734676361084,-0.06991720639339023,-0.3839559285470162,-0.5808239079515476,0.714375938358013,-0.888557474937538,1.5224963309274044,-2.0948422778366447
1781551848558609920,3.1262409687042236,1.3961644172668457,-0.2338627427816391,0.6257226467132568,0.6345462203025818,0.7716915011405945,-0.04293598607182503,0.014562726020812988,0.1469181776046753,-0.06163251772522926,-0.07007870790252221,-0.3854323181902652,-0.574433577260451,0.7187190658801356,-0.881496528681563,1.503235229911744,-2.116748774742647
1781551848568645120,3.1362760066986084,1.0335558652877808,-0.2612241804599762,0.612557590007782,0.639212429523468,0.7671278715133667,-0.05406055971980095,0.019265472888946533,0.07054924964904785,-0.01992935687303543,-0.07063615470876268,-0.3867512620508156,-0.5686766928585171,0.7225239910574884,-0.8743518259956702,1.4864234051916305,-2.135369367033135
1781551848578680064,3.146311044692993,0.5757643580436707,-0.2916902005672455,0.5981320738792419,0.6436892747879028,0.7627689838409424,-0.062029723078012466,0.04559600353240967,-0.04346966743469238,0.06480681896209717,-0.0720519978509455,-0.38775161556287907,-0.5644765925064127,0.7251368436779445,-0.8675842864040483,1.474727036073263,-2.147026288269784
1781551848588715008,3.156346082687378,0.31540733575820923,-0.3319185972213745,0.5565321445465088,0.6479182243347168,0.7587279081344604,-0.06733567267656326,0.0819554328918457,-0.07637012004852295,0.09342819452285767,-0.07421451745999019,-0.3884096241475922,-0.5616672737619028,0.7267462737961472,-0.8613580875975344,1.4672418840526968,-2.152737926136212
1781551848598749184,3.1663801670074463,0.17199425399303436,-0.364342600107193,0.5075571537017822,0.6516766548156738,0.7551248669624329,-0.07144410163164139,0.09646183252334595,-0.06992882490158081,0.1036248728632927,-0.07666582673165373,-0.3886957669120086,-0.5596369794633002,0.7279042054841716,-0.8558445512966583,1.461601185731729,-2.155515125181622
1781551848608783872,3.176414966583252,0.15145595371723175,-0.36402273178100586,0.4712175130844116,0.6551213264465332,0.7517818808555603,-0.0751003623008728,0.0959010124206543,-0.0438503623008728,0.1016048789024353,-0.07916942554570959,-0.388795347904517,-0.55793189336049,0.7288911839076725,-0.8507601403868371,1.4566587528126793,-2.1571822185324505
1781551848618819072,3.1864500045776367,0.06828036904335022,-0.3592434227466583,0.42861998081207275,0.6581804156303406,0.7487801313400269,-0.07827391475439072,0.07488226890563965,-0.03386014699935913,0.10171139985322952,-0.08159833046371028,-0.38875328496248346,-0.5565374446235198,0.7297113335587908,-0.8462197227809002,1.452427563710825,-2.1579831954462194
1781551848628854016,3.1964850425720215,0.04073529317975044,-0.3714875876903534,0.4061695337295532,0.661044180393219,0.7459379434585571,-0.08122330904006958,0.075619637966156,-0.022412002086639404,0.05113298445940018,-0.08401663745953217,-0.3886214101147407,-0.5553032899252186,0.7304470442075015,-0.8419420562745221,1.4485378926998884,-2.1582938402531613
1781551848638888960,3.2065200805664062,-0.15276332199573517,-0.39219874143600464,0.3293634355068207,0.6634665131568909,0.743543267250061,-0.08339911699295044,0.08627402782440186,-0.05087059736251831,0.0015814974904060364,-0.08652104634571095,-0.38821801770456454,-0.5546054572752752,0.7308991418978456,-0.838353670257923,1.4457501232815209,-2.1568813540486897
1781551848648923136,3.2165541648864746,-0.43894636631011963,-0.4165605306625366,0.26749473810195923,0.66534823179245,0.7417939305305481,-0.08398628979921341,0.09879672527313232,-0.08626103401184082,-0.0017376020550727844,-0.08930352625468228,-0.3874297963307125,-0.5548918893825073,0.7307654364611336,-0.8357414214867526,1.4452313519187001,-2.1520798497333784
1781551848658958080,3.2265889644622803,-0.811542272567749,-0.48085057735443115,0.17427240312099457,0.666659951210022,0.7408002614974976,-0.08233805000782013,0.12992513179779053,-0.08743417263031006,-0.006208658218383789,-0.0925826761180294,-0.38614398030025776,-0.5565283480778698,0.7297928059845936,-0.8342609617923162,1.4479103375936426,-2.1424325260001584
1781551848668993024,3.236624002456665,-1.1575816869735718,-0.5059676170349121,0.05001756176352501,0.6670784950256348,0.740852415561676,-0.07838353514671326,0.14519256353378296,-0.0668717622756958,-0.011353366076946259,-0.09628460769195459,-0.3841598052074685,-0.559669079058706,0.7279567724417585,-0.8343386117360365,1.4538299619532185,-2.127669630496733
1781551848679027968,3.24665904045105,-1.4820034503936768,-0.5081849694252014,-0.04837318882346153,0.6666933298110962,0.7418584823608398,-0.07187607139348984,0.1362851858139038,-0.039801597595214844,-0.007194995880126953,-0.10027302681425379,-0.3816514003204739,-0.5642731380596058,0.7251782059901286,-0.8358376770184407,1.4634013324187878,-2.107886787941875
1781551848689063168,3.2566940784454346,-1.6573801040649414,-0.4918304979801178,-0.1623748540878296,0.6655762195587158,0.7436205148696899,-0.06353723257780075,0.13369446992874146,0.007127225399017334,-0.007660277187824249,-0.10431832960911723,-0.3787261947745458,-0.5699103893246408,0.7217246040685328,-0.8384692543619132,1.4756227368636738,-2.0846453186921763
1781551848699098112,3.2667291164398193,-1.7340556383132935,-0.47245174646377563,-0.2822568118572235,0.6636147499084473,0.7461248636245728,-0.05397407338023186,0.11649084091186523,0.056014418601989746,-0.0037041306495666504,-0.1081250625149636,-0.37543164451794747,-0.5762499840779627,0.7178412548096526,-0.8422227514933353,1.4896415225304094,-2.0593404032574267
1781551848709132032,3.2767629623413086,-1.6910525560379028,-0.42704710364341736,-0.34607893228530884,0.6610230803489685,0.7490679621696472,-0.04410923272371292,0.10342693328857422,0.08590817451477051,-0.014347191900014877,-0.1115114410881173,-0.3719527411602064,-0.5827491239145247,0.7138765999193025,-0.8466540813707362,1.5041663722910406,-2.0338724964119512
1781551848719166976,3.2867980003356934,-1.7971720695495605,-0.42552831768989563,-0.42277130484580994,0.6579562425613403,0.7522935271263123,-0.033881887793540955,0.09517180919647217,0.08587175607681274,-0.03166985511779785,-0.11461266765547293,-0.36831075087467546,-0.5894117810954183,0.7097921057620102,-0.8515363803023452,1.519346120322375,-2.0079369139956214
1781551848729201920,3.296833038330078,-1.8168929815292358,-0.43315574526786804,-0.45363467931747437,0.6544813513755798,0.7557282447814941,-0.02300056256353855,0.07382065057754517,0.07360219955444336,-0.03008478879928589,-0.11764393857853263,-0.3644154953127484,-0.596406795330414,0.7054503581783184,-0.8567653979355601,1.535667594936589,-1.9805870277703228
1781551848739237120,3.306868076324463,-1.982794165611267,-0.4347408711910248,-0.43618911504745483,0.6510045528411865,0.7589862942695618,-0.01152848545461893,0.05518746376037598,0.03794974088668823,-0.06958723068237305,-0.12080688230113901,-0.36040122253263457,-0.6036113948194051,0.7008351769285938,-0.8617548130075154,1.5530894134704971,-1.9518040491059498
1781551848749272064,3.3169031143188477,-2.116713523864746,-0.43152695894241333,-0.42474257946014404,0.6477152705192566,0.761881411075592,0.0012963964836671948,0.03201800584793091,-0.010325014591217041,-0.032149672508239746,-0.12433153151684502,-0.3563026546687308,-0.6113073012320945,0.6956245589006316,-0.8662128920744324,1.5727978154061513,-1.9201219221965289
1781551848759307264,3.3269381523132324,-2.1227211952209473,-0.3846516013145447,-0.40925443172454834,0.644496738910675,0.7644590735435486,0.015045829117298126,-0.004298985004425049,-0.040399014949798584,-0.010742783546447754,-0.12789991837485223,-0.3522369020336173,-0.6192350758881376,0.6900135645762366,-0.8702018225728952,1.594137169427661,-1.886855330348998
1781551848769340928,3.3369719982147217,-1.9118709564208984,-0.34770315885543823,-0.3296365737915039,0.6417468786239624,0.7663986682891846,0.028176480904221535,-0.013573110103607178,0.037968337535858154,-0.022851113229990005,-0.1313535042656716,-0.34848078578012576,-0.626617413234529,0.6845859734105512,-0.8732158377758811,1.614674055754144,-1.8551278558814952
1781551848779376128,3.3470070362091064,-1.6164124011993408,-0.316112756729126,-0.2839633524417877,0.6394990086555481,0.7677712440490723,0.03960345685482025,-0.028521835803985596,0.06921905279159546,-0.036856889724731445,-0.13441325964648043,-0.34520566487022986,-0.632957169179163,0.6798024789711454,-0.8753554062633762,1.6326462203409453,-1.8273724435211112
1781551848789411072,3.357042074203491,-1.2544944286346436,-0.27117016911506653,-0.2688262164592743,0.6374728083610535,0.7689211964607239,0.048874106258153915,-0.06651943922042847,0.05453461408615112,-0.0072786808013916016,-0.13690378974724554,-0.3423205838133606,-0.63816429856026,0.6758848314189585,-0.8771520298916611,1.6473151720844486,-1.8044145339705417
1781551848799446016,3.367077112197876,-0.703046977519989,-0.1890454739332199,-0.187053844332695,0.6358078122138977,0.7698882818222046,0.05495984107255936,-0.0964096188545227,0.09230959415435791,0.017824530601501465,-0.13854198156814618,-0.3401171590306714,-0.64171663381168,0.6732950614413584,-0.8786660574873051,1.657022956029249,-1.7887773925107735
1781551848809481216,3.3771121501922607,-0.2556103765964508,-0.10758735984563828,-0.10328170657157898,0.634774386882782,0.7705467343330383,0.05761273205280304,-0.11751675605773926,0.1346350908279419,5.0183385610580444e-05,-0.1393288442941594,-0.33882257599116533,-0.6434326905055198,0.6721466525925344,-0.8796984992400076,1.6613092917054995,-1.7812692823195555
