time,seconds_elapsed,rotationRateX,rotationRateY,rotationRateZ,gravityX,gravityY,gravityZ,accelerationX,accelerationY,accelerationZ,quaternionW,quaternionX,quaternionY,quaternionZ,pitch,roll,yaw
1781556040354527744,0.2626206874847412,0.1596430093050003,0.2659001648426056,0.08481523394584656,0.15430571138858795,-0.20816802978515625,-0.9658446311950684,-0.014367356896400452,0.04154205322265625,0.03748464584350586,0.6820575402522893,0.015746595772524068,0.12972947463075354,0.7195275339539807,0.20970158010389503,0.1584236452743267,1.6075451221196175
1781556040364562432,0.2726554870605469,0.14385738968849182,0.274021714925766,0.0706312358379364,0.15676233172416687,-0.2097763866186142,-0.9651007652282715,-0.01056787371635437,0.0339646190404892,0.021207332611083984,0.6815842175585071,0.015345606034044742,0.13120266696585212,0.7197176085177451,0.21134625051224185,0.16102472875867388,1.6080924856007737
1781556040374597632,0.28269052505493164,0.12478037923574448,0.26545703411102295,0.04837280511856079,0.15924477577209473,-0.21118034422397614,-0.9643878936767578,-0.0016825050115585327,0.030577316880226135,0.011232376098632812,0.6811779140911689,0.014874001334170859,0.13260779735160416,0.7198545887941248,0.21278238224204965,0.1636485274712328,1.6084786153571524
1781556040384632576,0.2927255630493164,0.11600606143474579,0.2544797360897064,0.021067947149276733,0.16171276569366455,-0.21239228546619415,-0.9637107849121094,0.003936648368835449,0.028600171208381653,0.011547088623046875,0.680870784352906,0.014357032581285668,0.13393459816872721,0.7199100108853144,0.21402245089995817,0.16625329133922148,1.608621228814441
1781556040394667520,0.30276060104370117,0.1057606115937233,0.2386644035577774,-0.010291572660207748,0.1640932708978653,-0.21348117291927338,-0.9630675911903381,0.007888555526733398,0.030192598700523376,0.009454309940338135,0.6806788214724663,0.013849039074072202,0.13518286613167993,0.7198681225768906,0.21513689274780448,0.16876532088536694,1.608477515953902
1781556040404702720,0.31279563903808594,0.10184043645858765,0.21388982236385345,-0.04292941093444824,0.166338250041008,-0.21442978084087372,-0.9624715447425842,0.010343268513679504,0.03236190974712372,0.0009236931800842285,0.6806139515064056,0.013364022271312882,0.13632914103946783,0.7197225130741007,0.2161079969653165,0.17113362422963427,1.6080289645154795
1781556040414737664,0.3228306770324707,0.08827643096446991,0.18701039254665375,-0.07336348295211792,0.16840723156929016,-0.21525046229362488,-0.9619283676147461,0.011188700795173645,0.030115589499473572,-0.006821572780609131,0.6806794595899767,0.012922147340097409,0.13736382467742453,0.7194717477993904,0.21694829723608153,0.17331603041697904,1.6072724244543428
1781556040424772608,0.33286547660827637,0.08274371176958084,0.1654374599456787,-0.09308338910341263,0.1702883094549179,-0.21591590344905853,-0.9614479541778564,0.0051267147064208984,0.018146753311157227,-0.01078099012374878,0.6808491005290273,0.01251334298106082,0.13827300860496214,0.7191443662536237,0.21762976598859513,0.17529853932942574,1.606291261454918
1781556040434807552,0.34290051460266113,0.0733233094215393,0.14269553124904633,-0.10624180734157562,0.17199593782424927,-0.21652436256408691,-0.9610070586204529,-0.0029590725898742676,0.005953073501586914,-0.02759462594985962,0.6810973303274825,0.012162668735518179,0.13909899726777847,0.7187558809004898,0.2182529681987667,0.1770996167297204,1.6051333760474205
1781556040444842496,0.3529355525970459,0.05995583534240723,0.11897556483745575,-0.10797525942325592,0.17347797751426697,-0.21699482202529907,-0.9606345295906067,-0.010681971907615662,-0.003815099596977234,-0.03919762372970581,0.6813932394737684,0.011854144430556216,0.13979352383833754,0.7183456841526623,0.21873487529306407,0.17866133175555984,1.6039134092196994
1781556040454877696,0.36297059059143066,0.04197870194911957,0.10214251279830933,-0.1005421057343483,0.1747659295797348,-0.21729502081871033,-0.9603331685066223,-0.014182433485984802,-0.011525779962539673,-0.040216147899627686,0.6816922810430077,0.011556153180840419,0.14035626919632474,0.7179570228767335,0.2190424158017994,0.1800146730403123,1.6027569660854672
1781556040464912640,0.37300562858581543,0.030210459604859352,0.08329851925373077,-0.08955017477273941,0.17586447298526764,-0.2174719274044037,-0.9600925445556641,-0.015341997146606445,-0.017406612634658813,-0.03745079040527344,0.6819684043137261,0.011278404685308266,0.14080673095982316,0.7176109141639602,0.2192236558759686,0.18116610431465022,1.6017266599683295
1781556040474947584,0.3830406665802002,0.012757965363562107,0.06754885613918304,-0.06978312879800797,0.1767500340938568,-0.21752813458442688,-0.9599171280860901,-0.014884814620018005,-0.025620654225349426,-0.03442180156707764,0.68220479295148,0.011026751695970114,0.1411376513391436,0.7173249891589082,0.21928124351286646,0.18209092045874115,1.6008744631386331
1781556040484982528,0.39307546615600586,-0.007981400936841965,0.05997855216264725,-0.045408815145492554,0.17748409509658813,-0.21745002269744873,-0.9597994089126587,-0.021417200565338135,-0.02972710132598877,-0.03099954128265381,0.6823718789284423,0.010768187729201512,0.14136600020012674,0.7171250481527267,0.21920120996965256,0.1828523845200268,1.6002744385378735
1781556040495017472,0.4031105041503906,-0.029347142204642296,0.054490312933921814,-0.022843318060040474,0.1780966967344284,-0.21719872951507568,-0.9597428441047668,-0.021709352731704712,-0.030924439430236816,-0.030903518199920654,0.6824618125086872,0.010476374644782264,0.14148793435893356,0.7170197381733805,0.21894377530248132,0.1834800414339826,1.5999504609589863
1781556040505052672,0.4131455421447754,-0.042588114738464355,0.04454446956515312,-0.0006733001209795475,0.17858479917049408,-0.21680718660354614,-0.9597406387329102,-0.018275946378707886,-0.030125796794891357,-0.027976036071777344,0.6824730129667022,0.010163733182046868,0.1415145744837746,0.7170082841036655,0.2185426745612315,0.18397205243409448,1.5999009708482417
1781556040515087616,0.42318058013916016,-0.04506645351648331,0.03331565111875534,0.019444750621914864,0.17895831167697906,-0.216395303606987,-0.9597640633583069,-0.012408643960952759,-0.028340399265289307,-0.025068700313568115,0.682412266088724,0.009870781015951827,0.14149399590341266,0.7170743241994562,0.21812077410384292,0.18434379449359478,1.6000803078469286
1781556040525122560,0.4332156181335449,-0.04345737025141716,0.015247702598571777,0.03490813076496124,0.17913581430912018,-0.21600911021232605,-0.9598179459571838,-0.007413402199745178,-0.01995280385017395,-0.025381088256835938,0.6823011064311248,0.009647445872331696,0.14141417123938013,0.7171989206207586,0.2177252195542894,0.18451239631063504,1.6004350188388823
1781556040535153664,0.44324660301208496,-0.04160860553383827,0.007380324881523848,0.049597058445215225,0.17914585769176483,-0.2156708538532257,-0.9598920941352844,-0.0026169270277023315,-0.008862242102622986,-0.024864375591278076,0.682146198132127,0.009492769098721073,0.14129343361991403,0.7173721009238337,0.2173787932653465,0.18450857093031892,1.6009357641970203
1781556040545188352,0.4532814025878906,-0.03413018211722374,0.00439864955842495,0.06076076626777649,0.17908179759979248,-0.21540606021881104,-0.9599635004997253,-0.00020302832126617432,-0.002107977867126465,-0.022504150867462158,0.6819479454053807,0.009382424705342715,0.14117440283822347,0.7175854976259719,0.2171076310736291,0.1844306707022277,1.6015571335427057
1781556040555224320,0.4633173942565918,-0.04137478023767471,0.004560303874313831,0.06853745877742767,0.17897763848304749,-0.21517904102802277,-0.9600338339805603,0.003868415951728821,0.0013271123170852661,-0.012378215789794922,0.6817126956454965,0.00929276733786858,0.14105572960511015,0.7178334456838636,0.21687515649973277,0.18431261392173617,1.6022813741071527
1781556040565259520,0.47335243225097656,-0.11993003636598587,0.004954984411597252,0.06264282017946243,0.1788731962442398,-0.2145812064409256,-0.9601871371269226,0.009694889187812805,0.002255171537399292,-0.005465328693389893,0.6814692117653266,0.009069769663736571,0.14079838381802143,0.7181178473942537,0.2162630237320303,0.1841787321026754,1.6031054277700758
1781556040575294464,0.48338747024536133,-0.3837758004665375,0.04014919325709343,0.051705218851566315,0.17893394827842712,-0.21245825290679932,-0.9606477618217468,0.007665783166885376,-0.011571288108825684,0.011154353618621826,0.6812626584477809,0.008252614569732081,0.14002861104993333,0.7184741114535953,0.21408996778242123,0.18415351217886314,1.6041091848541993
1781556040585329408,0.4934225082397461,-1.088936448097229,0.06338021159172058,0.03687434270977974,0.1793752759695053,-0.20560100674629211,-0.9620565176010132,0.00591219961643219,-0.052501410245895386,0.036763548851013184,0.681091541787449,0.005626564662083849,0.1376229801834368,0.7191262641592207,0.2070777984422355,0.1843332546296922,1.6059018647186838
1781556040595364608,0.5034575462341309,-1.857783555984497,0.027576275169849396,0.002250318182632327,0.17981594800949097,-0.19135509431362152,-0.964909017086029,0.00934724509716034,-0.14075243473052979,0.04982423782348633,0.6810035420012586,0.00041220406894764696,0.1324587010309768,0.7202005798568457,0.19254256500865868,0.18424193310409331,1.608887338839971
1781556040605399552,0.5134925842285156,-2.7673516273498535,-0.043685123324394226,-0.03363630920648575,0.17975835502147675,-0.1691022366285324,-0.9690672755241394,0.023091986775398254,-0.2276567965745926,0.045025527477264404,0.6810246183895963,-0.007391777571546442,0.12414397510955807,0.721622597659779,0.1699187102867048,0.18341156088182753,1.6130041533139645
1781556040615434496,0.5235273838043213,-3.892932415008545,-0.12891626358032227,-0.06160882115364075,0.1790289729833603,-0.1364736109972,-0.9743323922157288,0.0371117889881134,-0.2420206516981125,0.06394726037979126,0.6810320332692302,-0.01852440756651409,0.11176161177985988,0.723437304698305,0.13690083685059642,0.18171829120141228,1.6186717552438967
1781556040625469440,0.533562421798706,-4.672173500061035,-0.2503231465816498,-0.10997582226991653,0.17724397778511047,-0.09407643228769302,-0.9796602725982666,0.053224772214889526,-0.24920055270195007,0.0658266544342041,0.681837804024224,-0.03246602614324245,0.09547687961910803,0.7245186509559554,0.09421575631335148,0.17898772123311796,1.6230141760498764
1781556040635504384,0.5435974597930908,-5.275930404663086,-0.41999951004981995,-0.1339503973722458,0.17398035526275635,-0.0448075532913208,-0.9837291836738586,0.06382787227630615,-0.2384871244430542,0.04525262117385864,0.6814206062874462,-0.048308714339859365,0.07616871522987538,0.7263130224539933,0.044822559762887654,0.17504786952940954,1.630620728313317
1781556040645539584,0.5536324977874756,-6.0596795082092285,-0.44270509481430054,-0.20115631818771362,0.1698327511548996,0.011259067803621292,-0.98540860414505,0.0664495974779129,-0.171659454703331,0.05518704652786255,0.6805561154169409,-0.06610718048836732,0.05408836231004458,0.7277002039048664,-0.011259305237374067,0.17067087456962524,1.6386882684330044
1781556040655574528,0.5636675357818604,-6.982161998748779,-0.6927576661109924,-0.17917485535144806,0.1640072464942932,0.07605620473623276,-0.9835227727890015,0.04401580989360809,-0.13545867800712585,0.09584277868270874,0.6788627439619354,-0.0862772539242577,0.028192929187537012,0.7286334349713979,-0.0761297216446173,0.16523452293890806,1.6477961008505073
1781556040665609472,0.5737025737762451,-7.9846343994140625,-0.7705971002578735,-0.21470782160758972,0.15660834312438965,0.14998270571231842,-0.9762064218521118,0.026054605841636658,-0.18320110440254211,0.11742657423019409,0.6759695236914507,-0.10905841745079715,-0.0017441921905636192,0.7288130075765175,-0.15055078788540577,0.15907005267975147,1.6580164794745171
1781556040675644672,0.5837376117706299,-8.755555152893066,-0.8484852313995361,-0.24342255294322968,0.14822997152805328,0.23189778625965118,-0.961379885673523,0.015908822417259216,-0.265375554561615,0.11563098430633545,0.6715974362070501,-0.13440487258284517,-0.035289961760103135,0.7277685185830546,-0.23402819566830144,0.15297993173514227,1.6690518198530555
1781556040685679360,0.5937724113464355,-9.449090957641602,-0.8178130388259888,-0.3075685203075409,0.1394902616739273,0.31899765133857727,-0.9374342560768127,0.019094333052635193,-0.32299545407295227,0.13793474435806274,0.6656267635713364,-0.16179492648969873,-0.07145126688458595,0.7250227529467511,-0.3246717000824862,0.1477161897435782,1.6804016649996416
1781556040695714560,0.6038074493408203,-9.883217811584473,-0.8294482827186584,-0.3913867175579071,0.1306205838918686,0.40892332792282104,-0.9031721353530884,0.026560187339782715,-0.29684755206108093,0.17528218030929565,0.6579709872807907,-0.19080257350522156,-0.10958237540557016,0.7201806387324055,-0.4212739215564819,0.1436283836018153,1.6917742434540413
1781556040705749504,0.6138424873352051,-9.929253578186035,-0.8228686451911926,-0.45084524154663086,0.12130462378263474,0.49732232093811035,-0.8590434789657593,0.03975190222263336,-0.20969414710998535,0.22455251216888428,0.6487186493915463,-0.22008062008811172,-0.14846813720822735,0.7132220900614691,-0.5205096017697503,0.14028144848396742,1.7028615050646747
1781556040715784448,0.6238775253295898,-9.389572143554688,-0.7890139222145081,-0.4624406695365906,0.11218216270208359,0.5788547992706299,-0.8076770901679993,0.049133747816085815,-0.07005047798156738,0.23017770051956177,0.6382928666541253,-0.24811912178963597,-0.18600635986648134,0.7045713099796096,-0.6173236030446455,0.1380118457218348,1.713496612012237
1781556040725819648,0.6339125633239746,-9.022695541381836,-0.8353776931762695,-0.4350242018699646,0.10310620814561844,0.6520454287528992,-0.7511363625526428,0.03455859422683716,0.10880357027053833,0.2186809778213501,0.6268859959858321,-0.2743270535889837,-0.2217576914156401,0.6946813749356117,-0.7102791632433191,0.13641443752719198,1.7239639512826548
1781556040735854592,0.6439476013183594,-8.007022857666016,-0.8689470887184143,-0.4023277759552002,0.09400898963212967,0.7142118215560913,-0.693587601184845,0.016357824206352234,0.2869936227798462,0.27412348985671997,0.6150656417938352,-0.2973762437029054,-0.2545065130105346,0.6844618941486751,-0.7954974029367253,0.13471920300237367,1.7341690741757034
1781556040745890560,0.6539835929870605,-6.793955326080322,-0.5571947693824768,-0.42516225576400757,0.08612292259931564,0.764212429523468,-0.6391887664794922,-0.017275258898735046,0.4215633273124695,0.3090343475341797,0.6040405008332835,-0.3170416108010921,-0.28264862920568484,0.6743363486564932,-0.8698193488380003,0.1339312748404537,1.7429568837282343
1781556040755925504,0.6640183925628662,-5.2579522132873535,-0.23818190395832062,-0.45250627398490906,0.0801997110247612,0.801845133304596,-0.5921253561973572,-0.060180164873600006,0.5489391684532166,0.26699113845825195,0.595099168303181,-0.33319720234956746,-0.30482280062177775,0.664770435520163,-0.9303767665847124,0.13462455598968015,1.7489328348861775
1781556040765960448,0.674053430557251,-3.6717419624328613,0.12552787363529205,-0.5078006982803345,0.07593692094087601,0.8278337121009827,-0.5558101534843445,-0.0987030491232872,0.6068586111068726,0.24260830879211426,0.5890249146299844,-0.3454567410312906,-0.32055352387529823,0.6564714044102427,-0.9752349269110757,0.13578316188946715,1.7510849237839567
1781556040775995392,0.6840884685516357,-2.3262345790863037,0.426326721906662,-0.5629894137382507,0.07293961942195892,0.8445245623588562,-0.5305261015892029,-0.12614703178405762,0.588245153427124,0.21558481454849243,0.5860017070368343,-0.3543017081170443,-0.3304651874642162,0.6495113281844119,-1.0056767613991326,0.13662887483450217,1.7487392982034944
1781556040786030592,0.6941235065460205,-1.1976903676986694,0.6293839812278748,-0.6046305894851685,0.07068247348070145,0.8549144864082336,-0.513931155204773,-0.11676401644945145,0.48511236906051636,0.19075006246566772,0.5854323721502522,-0.360641640414645,-0.3361131298194147,0.6436104960074185,-1.025385923894113,0.13667552048848547,1.7424143858617251
1781556040796065536,0.7041585445404053,-0.4165459871292114,0.8172189593315125,-0.6018915176391602,0.06929463148117065,0.8592663407325745,-0.5068132281303406,-0.07074421644210815,0.31443971395492554,0.15699023008346558,0.5872244463481087,-0.3642622412194204,-0.3375002347215895,0.6391980178640935,-1.0338337050439215,0.1358836070114039,1.7328290863057068
1781556040806100480,0.71419358253479,0.15646132826805115,0.9002888202667236,-0.5336658358573914,0.06874056160449982,0.8602463603019714,-0.50522381067276,-0.057006530463695526,0.16053622961044312,0.13464879989624023,0.5903085634760417,-0.36639790957970336,-0.3363638947013973,0.6357262493954292,-1.0357526529784593,0.13522924300429323,1.721977077036074
1781556040816135424,0.7242283821105957,0.4280949831008911,0.933853030204773,-0.38667771220207214,0.06941645592451096,0.8594459295272827,-0.5064918398857117,-0.04802364110946655,0.019887447357177734,0.12737196683883667,0.5938141358635898,-0.36793336698615153,-0.3337351163753805,0.6329538928567617,-1.0341849190518875,0.1362048782579013,1.71212599206946
1781556040826170368,0.7342634201049805,0.8151926398277283,1.089388132095337,-0.2584667503833771,0.07191718369722366,0.8562809824943542,-0.5114789605140686,-0.04684700071811676,-0.06322073936462402,0.11624586582183838,0.5977341553391455,-0.3686619832469374,-0.3291638780350273,0.6312315753657005,-1.028025840765229,0.139690572597333,1.7042581373170356
1781556040836205568,0.7442984580993652,0.9706339240074158,1.2524244785308838,-0.19252687692642212,0.07599583268165588,0.8517965078353882,-0.5183312296867371,-0.07204381376504898,-0.10886138677597046,0.12523430585861206,0.6020190364723134,-0.36926424680359554,-0.32323105648946976,0.6298718814626854,-1.019405097604152,0.14557913205777284,1.6974811759291257
1781556040846240512,0.75433349609375,1.1306016445159912,1.46182382106781,-0.10157674551010132,0.0818461999297142,0.8464547395706177,-0.5261327028274536,-0.07865709811449051,-0.12509548664093018,0.1776982545852661,0.6066010220287107,-0.3701554887171969,-0.31609896117871,0.628571126125748,-1.0092913999661697,0.15432495763537152,1.6917260034609878
1781556040856275456,0.7643685340881348,1.392055630683899,1.6371803283691406,-0.0405578650534153,0.08953475207090378,0.839821994304657,-0.5354275107383728,-0.05974959582090378,-0.11577719449996948,0.16733980178833008,0.6115805941947208,-0.3710996516892009,-0.3075244511980566,0.6274416124843657,-0.99695518473437,0.16568803300378643,1.6867314092394177
1781556040866310656,0.7744035720825195,1.694277048110962,1.7764860391616821,-0.016151325777173042,0.09859628230333328,0.8314931988716125,-0.5467155575752258,-0.04133004695177078,-0.06057339906692505,0.1446617841720581,0.6171253274453216,-0.37169532656865334,-0.29746394492235356,0.6265095635817792,-0.9817901854898748,0.17842508050152314,1.6814439586455099
1781556040876345600,0.7844386100769043,2.038527250289917,1.8777002096176147,-0.002997973235324025,0.1086578369140625,0.8211220502853394,-0.5603142976760864,-0.019531212747097015,-0.01834183931350708,0.15935903787612915,0.6233173749181836,-0.3716035027394129,-0.28592601745708607,0.6258056555442754,-0.9633742084620033,0.19154553488226161,1.6751352893956806
1781556040886380544,0.79447340965271,2.420891761779785,1.9333245754241943,-0.0797891616821289,0.11926543712615967,0.8085888028144836,-0.576159656047821,-0.003847956657409668,0.010304629802703857,0.21741026639938354,0.6301675570210469,-0.3705970249975534,-0.27308974872026504,0.6252749062444684,-0.9417496353844138,0.20411782706715606,1.6671796920637727
1781556040896415488,0.8045084476470947,3.1490705013275146,2.150453567504883,-0.07244895398616791,0.13054142892360687,0.7924309372901917,-0.5958290696144104,-1.7717480659484863e-05,0.05783456563949585,0.2948799133300781,0.6383426944696349,-0.3680912822321188,-0.25805868709825786,0.6248466123218916,-0.9147841656270328,0.21568413737828837,1.655902635306496
1781556040906450432,0.8145434856414795,3.6956138610839844,2.2124648094177246,-0.039393533021211624,0.1434224247932434,0.7712861895561218,-0.620119035243988,-0.005101487040519714,0.057601749897003174,0.17822450399398804,0.6475322132599584,-0.3636074315485884,-0.24027091941212822,0.6251092672824934,-0.8808594701970757,0.22728572402975283,1.6430425792088015
1781556040916485632,0.8245785236358643,4.289401531219482,2.3275249004364014,-0.13732567429542542,0.1572800725698471,0.7463638186454773,-0.6466870307922363,-0.0131760835647583,0.1453292965888977,0.08307313919067383,0.657618008535638,-0.3577817919773848,-0.22056446015829845,0.6252056445169191,-0.8425816470434221,0.23857694375872968,1.6275926665542855
1781556040926521600,0.8346145153045654,4.6660614013671875,2.266510248184204,-0.28040453791618347,0.1710072159767151,0.7166004180908203,-0.6761954426765442,-0.002489149570465088,0.11547660827636719,-0.14848101139068604,0.668727228250785,-0.34967736048074965,-0.19906785783444664,0.6252212237327927,-0.7989160056878339,0.2477025767247147,1.6085863681913868
1781556040936556544,0.8446495532989502,4.501909255981445,2.390869379043579,-0.35344600677490234,0.18471543490886688,0.6854904890060425,-0.7042605876922607,0.023567020893096924,-0.022602975368499756,-0.05635952949523926,0.6798723041003247,-0.3411371281094816,-0.17746878426978963,0.6244228904397945,-0.7552771915932145,0.2565051259185848,1.588043838233285
1781556040946591488,0.854684591293335,4.340918064117432,2.3390393257141113,-0.32404816150665283,0.19963641464710236,0.6539274454116821,-0.7297425866127014,0.08880047500133514,-0.18838179111480713,-0.053719937801361084,0.6904865479958688,-0.3329379036228497,-0.1558238289659606,0.6229764289038591,-0.7127640553563289,0.2670372108124573,1.5680133975417028
1781556040956626432,0.8647193908691406,3.6606805324554443,2.255624532699585,-0.4932853877544403,0.2140960842370987,0.6251705288887024,-0.7505496144294739,0.152252197265625,-0.16369903087615967,-0.0816190242767334,0.6999794263001426,-0.3258987856105847,-0.1360705288255945,0.6207283331467486,-0.6753500373916993,0.2778725903149075,1.5490484351415148
1781556040966661376,0.8747544288635254,3.5845847129821777,2.1185624599456787,-0.5855061411857605,0.2274339497089386,0.5990211963653564,-0.7677547931671143,0.1840498149394989,-0.06400227546691895,-0.25588107109069824,0.708891749412242,-0.31966518763851137,-0.11805411526418373,0.617535383820394,-0.6422781879953776,0.2879968368649244,1.5296618747266655
1781556040976696576,0.8847894668579102,3.447157621383667,2.061347246170044,-0.6552863121032715,0.23993876576423645,0.5729503035545349,-0.7836819887161255,0.21449850499629974,-0.08715623617172241,-0.3487643003463745,0.7175495103079784,-0.31308060688183154,-0.10069534808893617,0.6139737634780538,-0.6101010419032944,0.29710635335006147,1.5097113736750372
1781556040986731520,0.8948245048522949,3.168365955352783,1.9097830057144165,-0.6948251724243164,0.25211790204048157,0.5484196543693542,-0.7972907423973083,0.23395085334777832,-0.04684799909591675,-0.37205129861831665,0.7257095595455585,-0.3069969225183109,-0.08430615039129688,0.6099107571583107,-0.5804731633282479,0.306268734796715,1.4899582030669545
1781556040996766464,0.9048595428466797,2.861745595932007,1.2608875036239624,-0.6362369656562805,0.26141172647476196,0.5257796049118042,-0.8094564080238342,0.24873536825180054,-0.1097944974899292,-0.5800241827964783,0.7329800029604692,-0.3005607632829452,-0.0702496848948951,0.6061918217650972,-0.5536313928610098,0.31237413850192314,1.4714236646334022
1781556041006801664,0.9148945808410645,2.496875762939453,0.7902280688285828,-0.5692217350006104,0.26641345024108887,0.505469024181366,-0.820685625076294,0.23677563667297363,-0.31740444898605347,-0.763329267501831,0.7391454315969559,-0.2934884997381518,-0.059343720736371126,0.6033298261220353,-0.529925477245944,0.313890893355573,1.4549718496112296
1781556041016836352,0.9249293804168701,2.192981004714966,0.7761942744255066,-0.45929867029190063,0.2702542245388031,0.48743608593940735,-0.8302822709083557,0.1802157163619995,-0.5296877026557922,-0.6925448179244995,0.7443226285942672,-0.2869587015957579,-0.05013538728009049,0.6009366832832396,-0.5091509838383604,0.3146811554777251,1.4409482701510261
1781556041026871552,0.9349644184112549,1.9777289628982544,0.5766140818595886,-0.39367276430130005,0.2740367650985718,0.4712631106376648,-0.8383405804634094,0.09896433353424072,-0.5542404055595398,-0.4693986773490906,0.7487035719724613,-0.28120005538286974,-0.041907590215143654,0.5988431908355856,-0.4907223538832821,0.3159313408820564,1.4290205196842451
1781556041036906496,0.9449994564056396,2.1553895473480225,0.3322054147720337,-0.3959644138813019,0.2759697735309601,0.45513302087783813,-0.8465781807899475,0.017883986234664917,-0.38825374841690063,-0.332758367061615,0.7528038208886874,-0.27478844486255943,-0.034673179316527435,0.5971393424237008,-0.4725215996508524,0.31512040055252516,1.41765092435802
1781556041046941440,0.9550344944000244,2.514003276824951,0.31404611468315125,-0.4458467662334442,0.2766980230808258,0.4362713098526001,-0.8562158346176147,-0.0693005919456482,-0.1584850251674652,-0.31723082065582275,0.7572972285608868,-0.26675675709898494,-0.02707264766182152,0.5954902933228833,-0.4514506432448293,0.31257031101977323,1.4050441731867802
1781556041056976640,0.9650695323944092,2.8396553993225098,0.4524284899234772,-0.5057753920555115,0.2779223918914795,0.41443493962287903,-0.866604208946228,-0.155318021774292,0.04860827326774597,-0.24219095706939697,0.7622911641454821,-0.25761244509861847,-0.018268248241559475,0.5934764588160104,-0.42732181503397126,0.3103403346058963,1.3908946175495853
1781556041067011584,0.975104570388794,3.2104544639587402,0.6246393918991089,-0.5172032713890076,0.2805178463459015,0.3894065022468567,-0.8773096799850464,-0.2192995846271515,0.16193929314613342,-0.1501713991165161,0.7676853668402223,-0.24755401196341442,-0.007884000035900224,0.5910279962672438,-0.3999871584887034,0.30947414545887814,1.3754266174303134
1781556041077046528,0.9851396083831787,3.484682321548462,0.7734581828117371,-0.494087278842926,0.2848246991634369,0.3610362112522125,-0.8879908323287964,-0.2505534589290619,0.18438920378684998,-0.1275731325149536,0.773282959452646,-0.23661610458084234,0.004170205615505413,0.5882422956863163,-0.36937882152805795,0.31038479622701,1.359076868511279
1781556041087082752,0.9951756000518799,3.5071001052856445,0.8313270807266235,-0.4627130925655365,0.290420800447464,0.3309383988380432,-0.897850513458252,-0.2507326900959015,0.1478976607322693,-0.11510419845581055,0.7787141661014936,-0.22534871632522338,0.017108693099986638,0.5852601566134046,-0.3372978387660916,0.31284050065640384,1.3427054615748097
1781556041097117440,1.0052103996276855,3.3410825729370117,0.7703220248222351,-0.47241631150245667,0.296251505613327,0.3012060821056366,-0.9063718318939209,-0.22537446022033691,0.07582330703735352,-0.09707659482955933,0.7837703572696894,-0.21430081349850763,0.029820161269856593,0.5821424340979499,-0.305957229343125,0.3159081132899212,1.3267918552493396
1781556041107152384,1.0152454376220703,3.024894952774048,0.6308541297912598,-0.4898909330368042,0.3012973368167877,0.27350372076034546,-0.9134635329246521,-0.19569125771522522,0.004328340291976929,-0.1057320237159729,0.788389798671394,-0.20385080041213247,0.04138938089019341,0.5789415446161628,-0.2770337630064849,0.31860377154490493,1.3115872120138596
1781556041117187584,1.025280475616455,2.5699124336242676,0.46399685740470886,-0.5129560828208923,0.3051559031009674,0.24910767376422882,-0.9191437363624573,-0.1736251413822174,-0.04126770794391632,-0.12425225973129272,0.7925444983885187,-0.19441537158271152,0.05129120143947323,0.5757126982554903,-0.2517587746598462,0.32055026069495773,1.2973747308815557
1781556041127222528,1.0353155136108398,1.9880852699279785,0.2386939823627472,-0.5449169278144836,0.3070378005504608,0.22961173951625824,-0.9235833883285522,-0.17288252711296082,-0.07067617774009705,-0.11154234409332275,0.7961499382539254,-0.1864400459017533,0.05872330615865315,0.5726578062801657,-0.23167874868073884,0.32094804974858704,1.2847675886503318
1781556041137257472,1.0453505516052246,1.3929888010025024,0.10414908081293106,-0.6015074849128723,0.30729246139526367,0.2156875878572464,-0.9268496036529541,-0.18549680709838867,-0.1243179440498352,-0.0509335994720459,0.7993024921518341,-0.18032511030683215,0.06370284994057618,0.5696843234290225,-0.21739593966598536,0.32014030723860737,1.2736670106954773
1781556041147292672,1.0553855895996094,0.8655508756637573,0.010347751900553703,-0.6324278712272644,0.306490957736969,0.20713989436626434,-0.9290620684623718,-0.20119008421897888,-0.18622009456157684,-0.0019834041595458984,0.80204672848959,-0.1761748494061088,0.06656866277552748,0.5667909333906744,-0.20865053729844735,0.3186509655702515,1.26403758629679
1781556041157327360,1.065420389175415,0.4878893196582794,-0.03376804292201996,-0.6748027205467224,0.30495965480804443,0.20289823412895203,-0.930500864982605,-0.21326962113380432,-0.19580291211605072,0.008442819118499756,0.8044890062055868,-0.1736407595749453,0.06781182062144697,0.5639572446457581,-0.2043168114448902,0.31670551202336433,1.2555492614569375
1781556041167362560,1.0754554271697998,0.22290214896202087,-0.05635351315140724,-0.7269296050071716,0.30314719676971436,0.20174793899059296,-0.9313428997993469,-0.21771323680877686,-0.12968067824840546,0.027168095111846924,0.8067906023315012,-0.1723384050864945,0.06802967288524364,0.5610351266823727,-0.20314222944785496,0.3146793019046382,1.247589520871342
1781556041177397504,1.0854904651641846,0.12482351809740067,-0.1423971801996231,-0.763888955116272,0.30067750811576843,0.20250853896141052,-0.931978166103363,-0.20782777667045593,-0.006921365857124329,0.09424012899398804,0.809059332640064,-0.17165433682483675,0.0674218081274933,0.5580430855591066,-0.2039188595533535,0.3120804085022416,1.23980700938408
1781556041187432448,1.0955255031585693,0.2893104553222656,-0.17824704945087433,-0.8119824528694153,0.2974376082420349,0.20302654802799225,-0.9329046607017517,-0.2086314558982849,0.12071917951107025,0.1346411108970642,0.8114872709171571,-0.17062856582701377,0.06658502283085635,0.5549241073063462,-0.20444785955831848,0.30864088907159143,1.2315018732615273
1781556041197467648,1.105560541152954,0.6182460188865662,-0.17700164020061493,-0.86968594789505,0.29395928978919983,0.20125506818294525,-0.9343898296356201,-0.21464410424232483,0.23384928703308105,0.11194109916687012,0.8142741762821191,-0.16852622443357324,0.06636265162136444,0.5515002303832689,-0.20263903895231183,0.30479713626664534,1.2218708538944778
1781556041207502592,1.1155955791473389,0.8864894509315491,-0.19604536890983582,-0.9427117109298706,0.2903303802013397,0.19673757255077362,-0.936484158039093,-0.21324297785758972,0.2990967631340027,0.12128335237503052,0.8174813041995784,-0.1651657630726361,0.06691925663810865,0.5476919148536286,-0.1980293470552202,0.300625442848645,1.2106674922083693
1781556041217537280,1.1256303787231445,1.106772541999817,-0.27842000126838684,-0.9810888767242432,0.2861904203891754,0.1901320517063141,-0.9391191601753235,-0.1977962851524353,0.2974167764186859,0.16903865337371826,0.8210212957123525,-0.1607281372490045,0.06787395654242423,0.5435840334638187,-0.19129664717591,0.295802887666073,1.198231245298786
1781556041227572480,1.1356654167175293,1.224591851234436,-0.37189003825187683,-1.0217132568359375,0.28121206164360046,0.18184344470500946,-0.9422593712806702,-0.18174001574516296,0.22210247814655304,0.19869858026504517,0.8247883492699247,-0.15530492649468491,0.06892520206816774,0.5393088546841492,-0.18286082778616988,0.2900290401364826,1.1849677284987763
1781556041237608448,1.1457014083862305,1.0669859647750854,-0.4818486273288727,-1.1193625926971436,0.27528902888298035,0.17380733788013458,-0.9455193877220154,-0.17055270075798035,0.14217166602611542,0.20850467681884766,0.8287002121297249,-0.14970805948065058,0.06948229272981614,0.5348043903574974,-0.1746945359211374,0.28331891510418006,1.1711797004739972
1781556041247643392,1.1557364463806152,0.8399893641471863,-0.6157733798027039,-1.2289074659347534,0.2680315375328064,0.16798651218414307,-0.9486514925956726,-0.1583818793296814,0.10140739381313324,0.2151615023612976,0.8327357609356637,-0.14468428872921635,0.0688528818158788,0.5299781438565278,-0.16878680417693454,0.27536204625867794,1.1569943712808899
1781556041257678592,1.165771484375,0.6476351022720337,-0.7398062944412231,-1.325034260749817,0.25943973660469055,0.16429021954536438,-0.9516825675964355,-0.13784244656562805,0.08772394061088562,0.19304609298706055,0.8368800185754705,-0.14021723068490968,0.0670658736524929,0.5248554941570109,-0.16503840343898663,0.26614441310154846,1.1424404986382384
1781556041267713536,1.1758065223693848,0.4323802590370178,-0.9241945147514343,-1.415657639503479,0.24922756850719452,0.1626116782426834,-0.9546952843666077,-0.11612515151500702,0.12663394212722778,0.16432052850723267,0.8411251920124111,-0.13620777346879578,0.0640297405090685,0.5194766320292792,-0.16333698016621595,0.25535560291667553,1.1275310611178215
1781556041277748480,1.1858415603637695,0.19261588156223297,-1.0903748273849487,-1.4914458990097046,0.23714396357536316,0.16318534314632416,-0.9576707482337952,-0.10150858759880066,0.17546820640563965,0.15670639276504517,0.8454204454812455,-0.13272405139772522,0.05957301190447734,0.5139063961785497,-0.1639184249073171,0.2427428502373161,1.1124111288853187
1781556041287783680,1.1958765983581543,-0.03917926922440529,-1.2238521575927734,-1.555894136428833,0.22345662117004395,0.16594815254211426,-0.9604833722114563,-0.08138203620910645,0.18475985527038574,0.1380956768989563,0.8497080784714772,-0.129846385037215,0.05383510703135186,0.508171164881291,-0.16671941162837742,0.22858394904473917,1.0971565241923624
1781556041297818368,1.20591139793396,-0.33127477765083313,-1.3343584537506104,-1.6388283967971802,0.2084062546491623,0.17116303741931915,-0.9629486203193665,-0.0541703999042511,0.14197783172130585,0.14506226778030396,0.8539598301992228,-0.1277835561096633,0.04687271619879485,0.502221954628048,-0.17201000213275458,0.21313789195144192,1.0817069185946457
1781556041307853568,1.2159464359283447,-0.6704376339912415,-1.4613611698150635,-1.735602617263794,0.1919460892677307,0.1793750673532486,-0.964873731136322,-0.014547407627105713,0.0850444883108139,0.17929023504257202,0.8581646469613851,-0.1267937129921447,0.0385551409375938,0.4959740056194402,-0.18035117990896601,0.19637025279569822,1.0659056765876094
1781556041317888512,1.2259814739227295,-1.0147937536239624,-1.6635767221450806,-1.8298084735870361,0.17352856695652008,0.19084028899669647,-0.9661613702774048,0.03806506097316742,0.04710528254508972,0.21709215641021729,0.8622965843095575,-0.12689095992245505,0.028600585091572782,0.48941308290984853,-0.19201808961260142,0.17771146183424838,1.0496231690999918
1781556041327923456,1.2360165119171143,-1.2473458051681519,-1.8734617233276367,-1.9231938123703003,0.15262529253959656,0.20497745275497437,-0.9667935371398926,0.07628707587718964,0.032937586307525635,0.24847078323364258,0.8663509173343495,-0.12773496607013693,0.01694115743126671,0.4825276704414176,-0.2064406737299079,0.15657530742378611,1.0326030480814765
1781556041337958656,1.246051549911499,-1.2999799251556396,-2.01735258102417,-1.9899585247039795,0.12951157987117767,0.22030918300151825,-0.9667940139770508,0.09550978243350983,0.06094081699848175,0.24985980987548828,0.8703239014558382,-0.12878845428220176,0.00406686036344389,0.4753244694188572,-0.22213143061426974,0.13316705601772894,1.0146330850618361
1781556041347993600,1.2560865879058838,-1.1556859016418457,-2.112605094909668,-2.02413272857666,0.10490623861551285,0.2346223145723343,-0.9664093852043152,0.11030372977256775,0.10760180652141571,0.24538582563400269,0.8742552855638355,-0.1292711679469301,-0.009180647031600826,0.46784869454644096,-0.23683001571361315,0.10812919368068348,0.9956018896680606
1781556041358028288,1.2661213874816895,-1.013039469718933,-2.2215774059295654,-2.0308480262756348,0.07903244346380234,0.24692964553833008,-0.965805172920227,0.13124892115592957,0.15431547164916992,0.26173412799835205,0.8781054282671875,-0.12880485078664536,-0.022510595998108694,0.4602536028897952,-0.24951049602250525,0.08164870231706028,0.975796116310566
1781556041368063488,1.2761564254760742,-0.9038429260253906,-2.3628339767456055,-2.0300846099853516,0.05164609104394913,0.25766152143478394,-0.9648540019989014,0.16216005384922028,0.16351157426834106,0.27321887016296387,0.8818039228332578,-0.12753218077476502,-0.03617390579882588,0.45260213682857175,-0.26060123069757074,0.05347633055112862,0.9554211121853274
1781556041378099456,1.2861924171447754,-0.6978247761726379,-2.5203425884246826,-2.0046236515045166,0.02274438552558422,0.26605576276779175,-0.9636892676353455,0.20969274640083313,0.10856276750564575,0.26392120122909546,0.8853081339383609,-0.1251032163050623,-0.05004545598139083,0.4450552437405784,-0.26929900763881104,0.023596988460361245,0.9348269389211019
1781556041388134400,1.2962274551391602,-0.6937589049339294,-2.707390546798706,-1.9792221784591675,-0.007848575711250305,0.2728177011013031,-0.962033748626709,0.2615869641304016,0.0495394766330719,0.300748348236084,0.8885584498271961,-0.12180221079478333,-0.06439996235685388,0.4375851845192476,-0.2763206286099857,-0.008158135502694919,0.9140708531615374
1781556041398169600,1.306262493133545,-0.8454576730728149,-2.9899685382843018,-1.9218775033950806,-0.04067201539874077,0.27971312403678894,-0.9592217803001404,0.30870792269706726,-0.009861469268798828,0.3855218291282654,0.8913155059965954,-0.11831789091299155,-0.07993748179340271,0.4303111673358929,-0.28349529287545977,-0.042375672466719444,0.8935093359036995
1781556041408204544,1.3162975311279297,-1.003374695777893,-3.286151647567749,-1.820168137550354,-0.07619412243366241,0.28754308819770813,-0.9547321200370789,0.3322823941707611,-0.09386330842971802,0.43729132413864136,0.8933891494746681,-0.11491671403828496,-0.09709834222613829,0.4233461097068317,-0.2916606123491161,-0.07963801931316375,0.8733415288013908
1781556041418239488,1.3263325691223145,-1.1878759860992432,-3.444681167602539,-1.7084312438964844,-0.11358849704265594,0.2961994707584381,-0.948347806930542,0.32785242795944214,-0.1589771807193756,0.4618518352508545,0.8946924173051856,-0.11171866023904564,-0.115520747604494,0.4167726902694756,-0.30071108977329813,-0.11920726325803893,0.8537957291823234
1781556041428274688,1.3363676071166992,-1.697379231452942,-3.52738618850708,-1.552372694015503,-0.15160700678825378,0.3074978291988373,-0.9393936395645142,0.3072313964366913,-0.17566189169883728,0.5414596796035767,0.8951039281462104,-0.10983452557892211,-0.13505391746346987,0.41047008752997166,-0.312562321608616,-0.16000847793402478,0.8346553375380078
1781556041438309376,1.3464024066925049,-2.3835830688476562,-3.3526723384857178,-1.3679966926574707,-0.18867996335029602,0.3240291178226471,-0.9270409941673279,0.261250764131546,-0.1890956461429596,0.7031030058860779,0.8944421926974637,-0.11080920003937976,-0.15556616503376025,0.40434329199019453,-0.3299852965701736,-0.20078677028231248,0.8155926387853298
1781556041448344576,1.3564374446868896,-3.2194085121154785,-2.769444465637207,-1.1889182329177856,-0.22142773866653442,0.34717658162117004,-0.9112837910652161,0.16268140077590942,-0.17308905720710754,0.7802565693855286,0.8928665750108363,-0.11607199271364389,-0.17574238215003277,0.3980342633764584,-0.35455873883154676,-0.23836491012177796,0.7957986636844864
1781556041458379520,1.3664724826812744,-3.9103283882141113,-1.771363377571106,-0.9068189263343811,-0.24606217443943024,0.37718483805656433,-0.8928521871566772,0.06005753576755524,-0.12582680583000183,0.7702935934066772,0.8906567122894128,-0.12660531007752446,-0.19376533057268336,0.39135252448941404,-0.38675473246327224,-0.2689157245166981,0.7750368741235663
1781556041468414464,1.3765075206756592,-4.129558086395264,-0.4852637052536011,-0.5790538787841797,-0.2591211497783661,0.4111940860748291,-0.8739425539970398,0.013210475444793701,-0.0745394229888916,0.7657425403594971,0.8882273670132294,-0.14170130022841174,-0.20724249199163106,0.38473804120784955,-0.4237636305738373,-0.2882397226745609,0.7550953299439706
1781556041478449664,1.386542558670044,-4.105491638183594,0.9701731204986572,-0.3150213658809662,-0.258992075920105,0.4458158016204834,-0.8568379878997803,-0.03855428099632263,0.0366365909576416,0.6501729488372803,0.8862159264316298,-0.16002283586209526,-0.2144147476365562,0.3782067741823706,-0.46208542614231024,-0.29353341912907394,0.737207024436893
1781556041488484608,1.3965775966644287,-3.962416887283325,2.321000099182129,-0.08781832456588745,-0.24565310776233673,0.4799116849899292,-0.8422228693962097,-0.10452084243297577,0.2122880220413208,0.3298022150993347,0.8849224683021167,-0.18098827484151814,-0.2147831931533318,0.3715153511225455,-0.5005540489050481,-0.28379932993009704,0.7219557197089138
1781556041498519296,1.4066123962402344,-5.683028697967529,2.075617790222168,-1.4996191263198853,-0.2269507646560669,0.5153599977493286,-0.8263760805130005,-0.1359490305185318,0.2735041379928589,-0.11495387554168701,0.884221172557888,-0.20447208457056307,-0.21213937252981732,0.36241006885883537,-0.5414276580246347,-0.26802567472028593,0.7031630458864269
1781556041508554496,1.4166474342346191,-5.260189056396484,1.2130722999572754,-1.0775195360183716,-0.2243531495332718,0.5611289739608765,-0.7967433929443359,-0.5699278712272644,-0.1402609944343567,-1.890390396118164,0.8822625733399654,-0.23228127857946912,-0.21834313410880812,0.3463877942603519,-0.5957490845020205,-0.27448039131935076,0.6634940927084482
1781556041518590464,1.4266834259033203,-2.358651876449585,0.5782786011695862,2.6866865158081055,-0.21476584672927856,0.5906983613967896,-0.7777860164642334,0.32874900102615356,0.40423572063446045,-6.7629852294921875,0.8770540347049116,-0.24962501245656596,-0.22089440571483518,0.34593249937199655,-0.6319240556958486,-0.26941143495250314,0.6628301536192241
1781556041528625408,1.436718463897705,-2.953843116760254,1.0777684450149536,1.9189856052398682,-0.19151826202869415,0.6174089312553406,-0.7629724144935608,1.6023306846618652,0.39846014976501465,-2.068326473236084,0.8699019094537391,-0.2662770988797835,-0.21819782449814512,0.35320938881377295,-0.6654446242157971,-0.24593464202989324,0.6860271974106668
1781556041538659840,1.4467527866363525,-1.183241844177246,-0.45111894607543945,-0.4115649461746216,-0.18437668681144714,0.6335816979408264,-0.7513850331306458,0.8813371658325195,0.036584317684173584,0.8971980214118958,0.8665175533070982,-0.27627532338161825,-0.21904208584091617,0.3533267718608104,-0.6861739449709175,-0.24062802298036298,0.6880281586388921
1781556041548694784,1.4567878246307373,-1.4529939889907837,-2.4754674434661865,-0.008502727374434471,-0.1979079395532608,0.6432296633720398,-0.739654004573822,0.7569136619567871,0.5723922252655029,0.870116651058197,0.8635017837632277,-0.279185172018469,-0.22853587759019728,0.35240828502233756,-0.6987088982021149,-0.26144395285942884,0.6792489258737471
1781556041558729984,1.466822862625122,0.7454396486282349,-3.7924017906188965,0.40663906931877136,-0.21899275481700897,0.6470373868942261,-0.7303319573402405,0.5229325890541077,0.6348687410354614,0.3016210198402405,0.858672855702826,-0.27583790217163895,-0.24237878252789705,0.3575567398533258,-0.703692374259128,-0.2913225961701467,0.6815284388699397
1781556041568764928,1.4768579006195068,2.7814149856567383,-3.735361337661743,0.22889278829097748,-0.2461712658405304,0.6341752409934998,-0.7329539656639099,-0.1156603991985321,0.18383312225341797,0.2012767195701599,0.855663732331147,-0.2610691824578338,-0.25566758173688275,0.3664923026178205,-0.6869413846876578,-0.3240244866568549,0.692569665349509
1781556041578799872,1.4868929386138916,3.1310153007507324,-1.1668721437454224,0.05969017371535301,-0.26383617520332336,0.6120394468307495,-0.7455187439918518,-0.44250842928886414,0.10326206684112549,0.5844470262527466,0.8559751720295189,-0.24356587396450752,-0.26060752174438423,0.3742538808868986,-0.6586368876571767,-0.3401415124874139,0.7071121812514426
1781556041588834816,1.4969277381896973,2.717633008956909,1.2490434646606445,0.17830045521259308,-0.2623312771320343,0.5898404717445374,-0.7637215256690979,-0.5455148220062256,0.16893333196640015,0.8175240159034729,0.8594976112977061,-0.2311712653475305,-0.25436015543691826,0.3783182664523092,-0.6308612918619446,-0.3308641948604702,0.7204276490717147
1781556041598869760,1.506962776184082,1.9656769037246704,2.053100824356079,0.52647465467453,-0.24679556488990784,0.5725334286689758,-0.7818551063537598,-0.39663705229759216,0.27600783109664917,0.8950295448303223,0.8636629232184297,-0.22476259612611835,-0.24197976736311386,0.3808070113642073,-0.6095925239825638,-0.3057555156264235,0.7336852081456489
1781556041608904960,1.5169978141784668,1.1813559532165527,1.8215268850326538,0.6271924376487732,-0.227583646774292,0.5615172386169434,-0.795552670955658,-0.08879208564758301,0.27144479751586914,0.8038077354431152,0.866641306163257,-0.2224738085105997,-0.22962807963347873,0.3830264499818561,-0.5962182621849748,-0.2786283692696608,0.7461886778667122
1781556041618939904,1.5270328521728516,0.40417686104774475,1.080308198928833,0.3910446763038635,-0.2129855751991272,0.5563093423843384,-0.8032167553901672,0.1241031289100647,0.14034593105316162,0.6790407299995422,0.868164322834887,-0.22241282962837525,-0.22118806428975588,0.3845767312337491,-0.5899377944966199,-0.25920060160323294,0.7548404915933249
1781556041628974848,1.5370678901672363,-0.32108765840530396,0.5266247987747192,0.21630322933197021,-0.2050628513097763,0.5566744208335876,-0.8050234913825989,0.1421050727367401,0.021221637725830078,0.5176241993904114,0.8685020372577078,-0.22411121114286134,-0.21739920270019136,0.3849884487868837,-0.5903772437925393,-0.24942452653148714,0.7582991896834286
1781556041639010048,1.547102928161621,-0.6385664939880371,0.21553552150726318,0.05960948020219803,-0.20120055973529816,0.5611845254898071,-0.8028638362884521,-0.005937501788139343,-0.05363142490386963,0.27864813804626465,0.8679938864419859,-0.2272475723306028,-0.21662555516215196,0.38473185317902386,-0.5958162084844714,-0.24554666752059817,0.7587016878113717
1781556041649046016,1.5571389198303223,-0.6598510146141052,-2.0377023220062256,-0.20870505273342133,-0.20847105979919434,0.5663958191871643,-0.7973302602767944,-0.31102967262268066,-0.04163080453872681,-0.13373053073883057,0.8665947002653475,-0.22851799164201422,-0.22161766229714797,0.3842899318266087,-0.6021259685511636,-0.2557363949580962,0.7549845989771248
1781556041659080704,1.567173719406128,-0.6919991374015808,0.3227778375148773,0.315540075302124,-0.21710312366485596,0.5716018080711365,-0.7912885546684265,-0.6600788831710815,0.08094024658203125,-0.8834092617034912,0.8645697158529361,-0.2292329163112378,-0.22761368569502474,0.3849200112182069,-0.6084566804332031,-0.2677772178433054,0.7532052213820845
1781556041669115904,1.5772087574005127,0.017885882407426834,1.225652813911438,0.5959775447845459,-0.20657552778720856,0.576053261756897,-0.7908787131309509,-0.6280649900436401,0.13456374406814575,-1.7530817985534668,0.8641986202037591,-0.23351238275096012,-0.22367969989476158,0.38548673673920925,-0.6138921098422402,-0.2554893813190631,0.7577702862202059
1781556041679150848,1.5872437953948975,0.41179323196411133,1.0164289474487305,0.4623153805732727,-0.19436481595039368,0.5746609568595886,-0.7949761152267456,-0.07693643867969513,-0.0708310604095459,-1.1673346757888794,0.8647504267112305,-0.2349545991712445,-0.21750466877384161,0.3869038767125553,-0.6121898348285866,-0.2397874133609773,0.7652994303808998
1781556041689185792,1.5972788333892822,-0.10568638890981674,-0.02333684079349041,0.10752587020397186,-0.18825945258140564,0.5739083886146545,-0.7969865202903748,0.38929399847984314,-0.19124853610992432,0.03268909454345703,0.8650200623005837,-0.23565732613162732,-0.2144116820035997,0.38759958925030846,-0.6112705358274646,-0.2319622045963605,0.7690288546767479
1781556041699220992,1.607313871383667,-0.37724387645721436,-1.0744898319244385,0.014441736973822117,-0.19281429052352905,0.5761734843254089,-0.7942586541175842,0.30546995997428894,-0.14695900678634644,0.5009542107582092,0.8639288809957598,-0.23570076231879872,-0.21752198819465637,0.38827358229303954,-0.6140391690147959,-0.23815309753579686,0.7689283237921903
1781556041709255936,1.6173489093780518,-0.32384324073791504,-0.9811004996299744,-0.12148547172546387,-0.2019445151090622,0.5788035988807678,-0.7900663614273071,-0.060140445828437805,-0.15357166528701782,0.44369184970855713,0.8624013629419977,-0.2349693947292436,-0.22306100845440163,0.38896922048973287,-0.6172607730790901,-0.2502464899364188,0.7672618065960463
1781556041719290880,1.6273839473724365,-0.6128241419792175,0.29567617177963257,-0.10361459851264954,-0.205694317817688,0.5821645259857178,-0.7866220474243164,-0.4742220640182495,-0.19527798891067505,0.4059153199195862,0.8616856560416197,-0.23606746845145457,-0.22574569644896147,0.3883409716457532,-0.6213883016653848,-0.2557638168189308,0.7643038523029789
1781556041729325824,1.6374187469482422,-0.8503093719482422,1.6178066730499268,0.0868522897362709,-0.19811765849590302,0.5879542827606201,-0.7842571139335632,-0.6285272240638733,-0.10904192924499512,0.31172293424606323,0.8619223313816071,-0.24113136232119564,-0.2229957588425596,0.38628818390869873,-0.6285274582263256,-0.24744137220792398,0.761867037467363
1781556041739360768,1.647453784942627,-0.9618950486183167,2.5105559825897217,0.25025931000709534,-0.18051381409168243,0.5955246686935425,-0.7827931642532349,-0.47479012608528137,0.06493675708770752,0.04266566038131714,0.862763989575561,-0.24937217288243554,-0.21544590298378696,0.3834511939041411,-0.6379185652787084,-0.22664024820142875,0.7613184636110091
1781556041749395968,1.6574888229370117,-0.631691038608551,2.4207468032836914,0.30456995964050293,-0.15880699455738068,0.6026241183280945,-0.7820642590522766,-0.15885049104690552,0.20694613456726074,-0.2546483874320984,0.8638355960425149,-0.25820268940589725,-0.20566780553647765,0.38055249262615776,-0.6467853348779874,-0.2003373837810912,0.7625703544865392
1781556041759430912,1.6675238609313965,0.15416276454925537,1.2514289617538452,0.2712666094303131,-0.1423112154006958,0.6049073338508606,-0.7834759950637817,0.1617966890335083,0.2790495753288269,-0.424150288105011,0.8648719573955514,-0.2630896001014762,-0.197600296662405,0.37912310405061006,-0.649649461430903,-0.17968180989450178,0.7656066994364984
1781556041769466880,1.6775598526000977,0.4255908131599426,0.10982614010572433,0.12903490662574768,-0.13599315285682678,0.6025472283363342,-0.7864113450050354,0.3586188852787018,0.23424476385116577,-0.21796798706054688,0.865552284348669,-0.2630557750561356,-0.19389688294685803,0.37950625128723436,-0.6466889405269827,-0.17123529866948392,0.7689179553990549
1781556041779501824,1.6875948905944824,0.22278550267219543,-0.2896807789802551,-0.001975053222849965,-0.1367916315793991,0.5999681353569031,-0.788242518901825,0.3135036826133728,0.07846814393997192,0.12839144468307495,0.8657560825068926,-0.2613803635356022,-0.19380155205285896,0.3802468439589269,-0.6434612796412885,-0.17182872469916538,0.7702879715113649
1781556041789537024,1.6976299285888672,0.06117236986756325,-0.10060619562864304,0.00036240325425751507,-0.13861720263957977,0.5989226698875427,-0.7887185215950012,0.13942593336105347,-0.07704156637191772,0.18965846300125122,0.8657163336440891,-0.2603721557241197,-0.1945432622237924,0.3806500543322487,-0.642155116202661,-0.1739732003551011,0.7705093712574987
1781556041799571712,1.7076647281646729,-0.07140457630157471,0.3016144931316376,0.10415457934141159,-0.13771262764930725,0.5990164279937744,-0.7888057827949524,-0.007978290319442749,-0.14746308326721191,0.11058318614959717,0.8656851795188701,-0.26057696884522974,-0.19415647768700176,0.38077836053574726,-0.6422721881119439,-0.1728416977381506,0.7711519819566998
1781556041809606912,1.7176997661590576,-0.15145574510097504,0.6173233985900879,0.16349807381629944,-0.13303959369659424,0.6001428961753845,-0.7887515425682068,-0.03833186626434326,-0.10601752996444702,0.05239289999008179,0.8657462729007893,-0.2621582719925686,-0.19208659145472037,0.3806038689198964,-0.6436797376672866,-0.16709830341634263,0.772554247707956
1781556041819641856,1.7277348041534424,-0.13894261419773102,0.5308853387832642,0.19002342224121094,-0.12720932066440582,0.6015883088111877,-0.7886123061180115,0.04319442808628082,-0.025355398654937744,0.012840211391448975,0.8657710795171742,-0.26413783800581975,-0.18953906005651389,0.38045581940405054,-0.6454879392970226,-0.1599301620948202,0.7744898156117187
1781556041829676800,1.7377698421478271,-0.06906765699386597,0.19927653670310974,0.12982453405857086,-0.12321764975786209,0.6026313304901123,-0.7884497046470642,0.1618223786354065,0.032515764236450195,-0.001192629337310791,0.8656718182043773,-0.26547428055822797,-0.18787910864595284,0.380574809655748,-0.6467943296024184,-0.15502445872635956,0.7763416181665331
1781556041839712000,1.747804880142212,-0.02793433517217636,-0.21863789856433868,0.053142525255680084,-0.12279199808835983,0.6030934453010559,-0.7881627082824707,0.21587061882019043,0.04690045118331909,0.030579090118408203,0.865433536792438,-0.2657266055011897,-0.18790431449195022,0.3809279682296218,-0.6473735538004011,-0.15455279561420449,0.7773372911222726
1781556041849746944,1.7578399181365967,-0.05779316648840904,-0.45562034845352173,0.03511638939380646,-0.12530286610126495,0.6034678816795349,-0.7874806523323059,0.18159255385398865,0.024080336093902588,0.06696057319641113,0.8649644334020935,-0.26527253115738464,-0.18944701676818154,0.38154534159747533,-0.6478430203408628,-0.15779580870433987,0.7777973678659889
1781556041859781632,1.7678747177124023,-0.10976927727460861,-0.47493278980255127,0.01822608895599842,-0.12892518937587738,0.6041507720947266,-0.7863715291023254,0.08487308025360107,-0.024133682250976562,0.05886298418045044,0.8643459065939876,-0.2647363484063575,-0.19164786854187293,0.3822197364444176,-0.6486997089171014,-0.162503750202339,0.777964132674527
1781556041869816832,1.777909755706787,-0.1920415163040161,-0.3629620671272278,0.01562711037695408,-0.13216140866279602,0.6053692102432251,-0.7848958373069763,-0.0030924975872039795,-0.0603557825088501,0.03413289785385132,0.8637073644178287,-0.2646002991209971,-0.19374920639988585,0.38269766085705376,-0.6502296244956626,-0.16681603025125813,0.7778352694612493
1781556041879851776,1.7879447937011719,-0.2846049964427948,-0.26914793252944946,0.034551799297332764,-0.13445770740509033,0.6072881817817688,-0.7830212116241455,-0.03586091101169586,-0.0711095929145813,0.019868135452270508,0.8630365531153646,-0.26506496080019426,-0.19552487161265866,0.3829863426222878,-0.6526428390960002,-0.17005802599928005,0.7776413457058301
1781556041889887744,1.797980785369873,-0.38456064462661743,-0.2699463665485382,0.02322244457900524,-0.13629287481307983,0.6099493503570557,-0.7806318402290344,-0.02671673893928528,-0.06984925270080566,0.005760014057159424,0.8622691533125122,-0.2660399053260529,-0.19724818305004124,0.383155240796131,-0.6559966829339259,-0.1728507626379777,0.7773533663692918
1781556041899922944,1.8080158233642578,-0.4165111184120178,-0.2924898862838745,0.03689111769199371,-0.13829350471496582,0.6130370497703552,-0.7778562903404236,-0.0076568275690078735,-0.0630340576171875,-0.0004944801330566406,0.8614137040114439,-0.2672179276705601,-0.19916432482784394,0.3832681825747689,-0.6598990097410161,-0.17594951251045698,0.7768634309001795
1781556041909957888,1.8180508613586426,-0.5320512652397156,-0.39195123314857483,-0.041249487549066544,-0.14099903404712677,0.6168047785758972,-0.7743843197822571,0.0018083751201629639,-0.05230587720870972,0.0074623823165893555,0.8604159514446897,-0.26864052938281363,-0.2015938797966443,0.38324474234240674,-0.6646768170405263,-0.18010584932469514,0.7757638611825205
1781556041919992832,1.8280858993530273,-0.41231316328048706,-0.3217273950576782,0.040941253304481506,-0.14392462372779846,0.6204062700271606,-0.770961582660675,-0.012538999319076538,-0.048506855964660645,-0.003071010112762451,0.8594395212341435,-0.2699377254616789,-0.20409027768601526,0.38320296464001447,-0.669260648956128,-0.18455759002483485,0.7745048166925248
1781556041930028032,1.838120937347412,-0.6386285424232483,-0.3492591679096222,-0.023640668019652367,-0.14631307125091553,0.6244190335273743,-0.7672635912895203,-0.02351723611354828,-0.016203701496124268,-0.0022981762886047363,0.858341679794745,-0.2715442366067299,-0.20647504384107992,0.3832510065936644,-0.6743874905508497,-0.188432320977509,0.7736487935186082
1781556041940062720,1.8481557369232178,-0.5947676301002502,-0.24093908071517944,-0.06408636271953583,-0.14904767274856567,0.6292555332183838,-0.762772798538208,-0.06558243930339813,-0.04125809669494629,0.020920991897583008,0.8572672637856029,-0.2736572855166938,-0.20910591997680544,0.38272625055362414,-0.6805949301693894,-0.1929709435284683,0.7712828637857295
1781556041950097920,1.8581907749176025,-0.5050010085105896,-0.1371500939130783,0.11665785312652588,-0.15014010667800903,0.6331465244293213,-0.7593309283256531,-0.04900234937667847,-0.03603959083557129,-0.035606205463409424,0.8563208223008929,-0.2755214370413324,-0.21076638312645632,0.38259668272129826,-0.6856115964281324,-0.19520887956738628,0.7705017236264894
1781556041960132864,1.8682258129119873,-0.7385991215705872,-0.08372242748737335,-0.01138639822602272,-0.15065822005271912,0.6380971074104309,-0.755072295665741,-0.05361120402812958,0.010889708995819092,0.009985625743865967,0.8551728957261555,-0.2780936719257422,-0.21243297190678376,0.38238126599131955,-0.6920243111869308,-0.19694187132467225,0.7697435826693231
1781556041970167808,1.878260850906372,-0.5652480721473694,0.00013226596638560295,-0.0016035422449931502,-0.15107525885105133,0.6431210041046143,-0.7507140636444092,-0.06102190911769867,-0.024895906448364258,-0.00470280647277832,0.8542475022152555,-0.2808763939518923,-0.21389579603772388,0.3815995986185244,-0.6985670110295856,-0.19858957890760265,0.7676901738157544
1781556041980203008,1.8882958889007568,-0.3449293375015259,-0.02764144167304039,0.15721380710601807,-0.15061400830745697,0.6465743184089661,-0.7478349208831787,-0.012883931398391724,0.0039841532707214355,-0.03982377052307129,0.8534548653124449,-0.2828440630429731,-0.21466665273516414,0.3814868664312113,-0.7030851897527787,-0.1987414189396758,0.7675958361406328
1781556041990238976,1.898331880569458,-0.38448792695999146,0.0024626650847494602,0.08540192991495132,-0.14993728697299957,0.6495482921600342,-0.7453896999359131,-0.011103987693786621,0.08662724494934082,0.002149343490600586,0.8526448812105241,-0.2845230798134558,-0.21529461467062638,0.38169559450209845,-0.7069902034322337,-0.1985038609825541,0.7683584416541976
1781556042000273920,1.9083669185638428,-0.2939492464065552,0.06058761849999428,0.008936717174947262,-0.14938783645629883,0.6521397233009338,-0.7432342171669006,-0.027614131569862366,0.09146684408187866,0.016122400760650635,0.8521287070746401,-0.28609175666479225,-0.21571833652611003,0.3814366171591165,-0.7104035336940939,-0.19835400860972122,0.7679742033999166
1781556042010308864,1.9184017181396484,-0.3190673887729645,0.06156713142991066,0.010144460946321487,-0.14888723194599152,0.6544786691665649,-0.7412761449813843,-0.00107613205909729,0.07312142848968506,0.010563254356384277,0.8517343080770549,-0.28755392228375254,-0.21604321078754327,0.38103391598428216,-0.7134928891320749,-0.19821522518130258,0.7672344793342315
1781556042020343808,1.9284367561340332,-0.30486100912094116,0.02810797467827797,0.01857096701860428,-0.14843159914016724,0.6568064093589783,-0.7393060922622681,0.02248556911945343,0.05835777521133423,0.022799134254455566,0.8512978957086718,-0.28898162059148386,-0.21641761742742197,0.3807164745745064,-0.7165756906769983,-0.19813728599930325,0.766675838305521
1781556042030378752,1.938471794128418,-0.16710767149925232,-0.021799931302666664,0.0064565143547952175,-0.14828971028327942,0.6586132049560547,-0.7377254962921143,0.030415579676628113,0.07283210754394531,0.013116121292114258,0.8509377803280794,-0.2900440866554652,-0.2168218002576963,0.3804835536170443,-0.7189743034620175,-0.1983658950778043,0.7661768458449577
1781556042040413952,1.9485068321228027,-0.058718349784612656,-0.09082187712192535,-0.0002727606624830514,-0.1486997902393341,0.6594147682189941,-0.7369264364242554,0.0328550785779953,0.10196828842163086,0.004611372947692871,0.8507110437425883,-0.29039585273767793,-0.2172717903526766,0.38046554722261355,-0.7200400472399138,-0.19911012649670004,0.7659367621068254
1781556042050448896,1.9585418701171875,0.01570448838174343,-0.14090687036514282,-0.016352394595742226,-0.14963196218013763,0.6595586538314819,-0.7366089224815369,0.029789432883262634,0.09398138523101807,0.020590245723724365,0.8505686094648711,-0.29025165708169753,-0.21782909453149601,0.3805753014350656,-0.7202314281793016,-0.20040933470361313,0.7657613696258815
1781556042060483840,1.9685769081115723,0.0451798215508461,-0.18277764320373535,-0.01024043932557106,-0.150943785905838,0.6592890024185181,-0.7365826368331909,0.020572692155838013,0.03635913133621216,0.018076777458190918,0.8504635570585162,-0.2897777159946786,-0.21848925284951154,0.3807927477285103,-0.7198727775725959,-0.20212608731004408,0.7656688677221141
1781556042070519040,1.978611946105957,0.020059289410710335,-0.19262918829917908,0.005856504198163748,-0.15233944356441498,0.65903639793396,-0.7365213632583618,0.013438686728477478,-0.01967787742614746,0.013407349586486816,0.850311525780037,-0.2892742341496432,-0.2192252853796564,0.38109188217141665,-0.7195368255730417,-0.20396031929365313,0.7657309452058049
1781556042080553728,1.9886467456817627,-0.030135171487927437,-0.18824324011802673,0.011125835590064526,-0.15370403230190277,0.6590874791145325,-0.7361920475959778,0.0008414685726165771,-0.039779067039489746,0.0034497976303100586,0.8500739693606559,-0.2889367030116994,-0.22004446145062076,0.38140552722558946,-0.7196047745353056,-0.20582585037505663,0.7658377025357503
1781556042090588928,1.9986817836761475,-0.07465443760156631,-0.16843144595623016,0.01580926962196827,-0.15494103729724884,0.6595058441162109,-0.7355577945709229,-0.004589572548866272,-0.03932768106460571,-0.004249274730682373,0.8497736175558636,-0.2888385668327968,-0.22089222971642664,0.3816591093850842,-0.7201611953363566,-0.20760917185062716,0.7658553596186817
1781556042100624896,2.0087177753448486,-0.10681503266096115,-0.15206725895404816,0.016273457556962967,-0.1560143381357193,0.6602044105529785,-0.7347038388252258,-0.006934255361557007,-0.031801700592041016,-0.01143568754196167,0.8494327651810292,-0.2889391133760683,-0.22172566942338873,0.38185858870804695,-0.7210908709441092,-0.20924183553508027,0.7658144091552029
1781556042110659840,2.0187528133392334,-0.13242372870445251,-0.14451347291469574,0.01364731602370739,-0.1570291966199875,0.6611153483390808,-0.7336677312850952,-0.007140100002288818,-0.02654808759689331,-0.012166619300842285,0.8490656327445802,-0.2891820818245973,-0.22257549589116515,0.38199672481246955,-0.7223043662316008,-0.21085181056909483,0.7656491596078875
1781556042120694784,2.028787851333618,-0.1504219025373459,-0.12896819412708282,0.01028480939567089,-0.15797488391399384,0.6621905565261841,-0.7324941158294678,-0.010695740580558777,-0.023305058479309082,-0.010135889053344727,0.8486801226149135,-0.2895409529639564,-0.2234255359486737,0.38208538693036165,-0.7237383457180393,-0.21241370218555516,0.7653927558248182
1781556042130729984,2.038822889328003,-0.17391471564769745,-0.08912251889705658,0.008770535700023174,-0.15873347222805023,0.6633864641189575,-0.7312470078468323,-0.019519716501235962,-0.01232445240020752,0.0010986328125,0.8483065302410852,-0.2900239601014627,-0.22419324579474795,0.3820989825730948,-0.7253354116682699,-0.21375606035055608,0.7650403376865725
1781556042140764928,2.0488579273223877,-0.1594337821006775,-0.02502368576824665,0.009932473301887512,-0.15909907221794128,0.6646448373794556,-0.7300238013267517,-0.030262485146522522,0.008893370628356934,0.005551755428314209,0.847975972980634,-0.29064446384667497,-0.22475297074202846,0.3820323219000303,-0.727018373890271,-0.21458154243922614,0.7646780902595397
1781556042150799872,2.0588927268981934,-0.12517887353897095,0.024450654163956642,0.007430698722600937,-0.1590341478586197,0.6657025218009949,-0.7290735840797424,-0.034004807472229004,0.024635612964630127,-0.0024785399436950684,0.847754230236361,-0.29126382603183987,-0.22500798877090197,0.3819025584340028,-0.7284348841392024,-0.21476767578417313,0.7643734226057756
1781556042160834816,2.068927764892578,-0.07556257396936417,0.044627562165260315,0.009130595251917839,-0.15871243178844452,0.6664491891860962,-0.7284612655639648,-0.023645371198654175,0.03066384792327881,-0.0036401748657226562,0.8476333015808435,-0.2917698963216823,-0.22503266812068104,0.38176990708337855,-0.729435882022244,-0.21452111521970388,0.7641915624239655
1781556042170869760,2.078962802886963,-0.03782238811254501,0.035781338810920715,0.005275136325508356,-0.15836623311042786,0.6668660640716553,-0.7281550168991089,-0.006199777126312256,0.03256624937057495,0.003820359706878662,0.8475831959934523,-0.2920913445242456,-0.22495583116427237,0.3816808273688772,-0.729995237560645,-0.21415465170570613,0.7641337780314191
1781556042180904960,2.0889978408813477,-0.021941956132650375,0.015626536682248116,-0.002126054372638464,-0.1581684648990631,0.6670739054679871,-0.7280076742172241,0.0011555403470993042,0.01934272050857544,0.010493636131286621,0.8475682962712705,-0.29226188696709043,-0.2248980906745011,0.38161753400402193,-0.7302741892368287,-0.2139372871635329,0.7640725014112606
1781556042190939904,2.0990328788757324,-0.034884121268987656,0.013865921646356583,-0.003223543055355549,-0.15810133516788483,0.6672675013542175,-0.727844774723053,0.0019886791706085205,0.0002892613410949707,0.011520922183990479,0.847545540692495,-0.2923956722367596,-0.2249052884872388,0.381561066625257,-0.7305340493262698,-0.21389566033665186,0.763965715734633
1781556042200974848,2.109067916870117,-0.05767971649765968,0.01844615861773491,0.0022455244325101376,-0.15799155831336975,0.6676127314567566,-0.7275519371032715,-0.003721088171005249,-0.013895750045776367,0.00922924280166626,0.8474943001480225,-0.29262618580736677,-0.2249309678014049,0.38148306341321475,-0.7309976931760828,-0.21383505130955735,0.763824414596481
1781556042211010816,2.1191039085388184,-0.09177323430776596,0.02832994982600212,0.007140147965401411,-0.15779517590999603,0.6681613922119141,-0.7270908355712891,-0.010051518678665161,-0.021036148071289062,-0.0029048919677734375,0.8474047209816203,-0.2929916496292816,-0.22496774669987474,0.3813799533111229,-0.7317348433426194,-0.21370864230618986,0.7636596258605312
1781556042221046016,2.129138946533203,-0.12609153985977173,0.03959658369421959,0.021605372428894043,-0.15745116770267487,0.6689721345901489,-0.7264195084571838,-0.011997684836387634,-0.024425625801086426,-0.0011500120162963867,0.8472613041488399,-0.2935350663209113,-0.2250053250972516,0.38125843710926,-0.7328251002449193,-0.21344788835555892,0.7635148325558341
1781556042231080704,2.139173746109009,-0.14265559613704681,0.0529177151620388,0.03824320435523987,-0.15692934393882751,0.6700067520141602,-0.7255784869194031,-0.013572365045547485,-0.020379066467285156,0.0018998980522155762,0.847055621589868,-0.2942301152254609,-0.2250319921786301,0.38116403673984567,-0.7342178819251456,-0.21300091214010358,0.7635138972652474
1781556042241115904,2.1492087841033936,-0.15775492787361145,0.0436997152864933,0.062361326068639755,-0.1562366634607315,0.6711727976799011,-0.7246496677398682,-0.011701583862304688,-0.012572944164276123,0.008615732192993164,0.8467912279066451,-0.29501345087380887,-0.22503827634998713,0.3811423129711063,-0.7357897711098313,-0.21235246562774898,0.7637646395520287
1781556042251150848,2.1592438220977783,-0.15893150866031647,0.07243788987398148,0.044010013341903687,-0.15547505021095276,0.6724144816398621,-0.7236617207527161,-0.010372728109359741,-0.01103752851486206,0.017393410205841064,0.8465188238625776,-0.2958585535956171,-0.2250263610859895,0.3810994157246952,-0.7374660400631887,-0.21162794808878516,0.7639989993687215
1781556042261185792,2.169278860092163,-0.16338405013084412,0.0330345556139946,0.06417573988437653,-0.15469759702682495,0.6736393570899963,-0.7226884961128235,-0.004482075572013855,-0.013452589511871338,0.008439898490905762,0.8462451486003176,-0.2966953120774758,-0.22500585674328494,0.3810687651497489,-0.7391220926301622,-0.21087605499627227,0.7642729924759585
1781556042271220992,2.179313898086548,-0.16612790524959564,0.04419692978262901,0.0444134846329689,-0.15403185784816742,0.6749615669250488,-0.7215962409973145,0.0021458566188812256,-0.0017437934875488281,0.008705615997314453,0.8459298358173782,-0.2975586803189345,-0.22507935620314495,0.3810522901643413,-0.7409125760406854,-0.21030363189672588,0.764526517278331
1781556042281255936,2.1893489360809326,-0.042583320289850235,-0.0856420248746872,0.1437898725271225,-0.15351352095603943,0.6758310794830322,-0.7208924889564514,0.008783906698226929,0.009868383407592773,0.0024629831314086914,0.8456121604891836,-0.29807608541307107,-0.22517636129903848,0.38129563674117806,-0.7420916500206427,-0.20981519161111495,0.7653350504922377
1781556042291290880,2.1993837356567383,-0.1680206060409546,0.002538165543228388,0.04180971160531044,-0.1531788855791092,0.6767294406890869,-0.7201204895973206,0.009639456868171692,0.031659841537475586,0.015881597995758057,0.845171930207305,-0.29851066328922937,-0.22545760602630038,0.3817652562812003,-0.7433112008914325,-0.20958903221788194,0.7665899149348943
1781556042301325824,2.209418773651123,-0.14867593348026276,0.028460577130317688,-0.015802985057234764,-0.15298300981521606,0.6778073906898499,-0.7191476821899414,-0.018388450145721436,-0.011639177799224854,0.017640113830566406,0.8449941179280861,-0.2992045567365404,-0.22561644911466536,0.38152182874442786,-0.7447763369832131,-0.20960373572399318,0.7660862629470311
1781556042311361792,2.219454765319824,-0.18760176002979279,0.028668036684393883,0.030621238052845,-0.15270715951919556,0.6790874600410461,-0.7179977297782898,-0.00018590688705444336,-0.019236385822296143,-0.00607752799987793,0.8447352833212799,-0.30000943417463993,-0.22582175673581753,0.3813414152271288,-0.7465188078777217,-0.20956214818808097,0.7657667385119977
1781556042321396736,2.229489803314209,-0.14203454554080963,0.023701773956418037,0.009192113764584064,-0.15235090255737305,0.6803122162818909,-0.7169132232666016,0.003852367401123047,0.0016183257102966309,-0.009603500366210938,0.8444783143464254,-0.3007913935246952,-0.2259821272972363,0.38119958173040025,-0.7481885201972127,-0.20939452613674836,0.765580124601079
1781556042331431936,2.2395248413085938,-0.11619628220796585,0.022432245314121246,0.0005158013664186001,-0.1521565467119217,0.68122798204422,-0.7160844206809998,-0.001087486743927002,0.01875370740890503,-0.0060378313064575195,0.844304626092904,-0.3013756639978335,-0.2261205715543712,0.3810406368282859,-0.7494387438146548,-0.20937016877103476,0.7652798271290552
1781556042341466880,2.2495598793029785,-0.04127171263098717,-0.05972440913319588,0.02886435203254223,-0.15208780765533447,0.6817895174026489,-0.7155643701553345,0.0032993704080581665,0.0204504132270813,0.0029331445693969727,0.8441662619871757,-0.30170669857606164,-0.2262540028622031,0.3810061043779244,-0.7502060969198009,-0.20942600276345588,0.765219698940021
1781556042351501824,2.2595949172973633,-0.09733977168798447,0.03611743077635765,-0.011900654062628746,-0.1520935595035553,0.6823398470878601,-0.7150383591651917,0.004678383469581604,0.017458736896514893,0.01298147439956665,0.8440186632289653,-0.3020117887345262,-0.22642812141855354,0.3809877223469966,-0.7509585962264207,-0.20958328992923345,0.7651606694018758
1781556042361536768,2.269629716873169,-0.10836872458457947,0.02805790677666664,-0.018951639533042908,-0.15198533236980438,0.68304044008255,-0.7143922448158264,0.002815425395965576,-0.010783970355987549,0.01067209243774414,0.8439382273140222,-0.30248428063844524,-0.22651080987995462,0.38074198300233836,-0.7519173981241489,-0.20962241934232084,0.7646165330235754
1781556042371571712,2.2796647548675537,-0.09851076453924179,-0.014585427939891815,-0.00688698748126626,-0.1519581824541092,0.6837794184684753,-0.7136906981468201,0.023006170988082886,-0.009264707565307617,0.0007237792015075684,0.8438126262766301,-0.30294417727519074,-0.2266704427022344,0.38055952356936906,-0.7529296650683035,-0.20978608881130192,0.7641804546442658
1781556042381606912,2.2896997928619385,-0.09110691398382187,-0.07502839714288712,-0.021230774000287056,-0.15238086879253387,0.6844344735145569,-0.7129723429679871,0.036032602190971375,0.012373387813568115,0.00874871015548706,0.8436407799158248,-0.30323935978871674,-0.22706766223587255,0.38046877655909933,-0.7538277631615372,-0.21055831504499364,0.7637368128297897
1781556042391641856,2.2997348308563232,-0.07849737256765366,-0.13280007243156433,-0.03505311161279678,-0.15332768857479095,0.6850150227546692,-0.7122113704681396,0.036842092871665955,0.01766747236251831,0.01589179039001465,0.8434434472109494,-0.3033764653781608,-0.2277214061452536,0.3804061839618251,-0.754624350894381,-0.21204756619033924,0.7630957852574013
1781556042401676800,2.309769868850708,-0.06186860054731369,-0.1708718240261078,-0.03749283403158188,-0.154692143201828,0.6854723691940308,-0.7114759683609009,0.029692158102989197,0.004987835884094238,0.009159684181213379,0.8432289106961023,-0.3033436754276667,-0.2285708683985973,0.3803985440894858,-0.7552522661588603,-0.21409216905796702,0.7623754659779036
1781556042411712768,2.319805860519409,-0.08346869796514511,-0.1914554089307785,-0.03371753543615341,-0.15621055662631989,0.6859057545661926,-0.7107260823249817,0.014639526605606079,-0.005852043628692627,0.0040763020515441895,0.8429788464279985,-0.30324677532421235,-0.2295176356089282,0.380459877929244,-0.7558476433774435,-0.216350088136416,0.7617395296292928
1781556042421747968,2.329840898513794,-0.056783560663461685,-0.16723649203777313,-0.019796928390860558,-0.15773284435272217,0.68645179271698,-0.7098621726036072,9.430944919586182e-05,-0.014103829860687256,0.008125722408294678,0.8426996960219417,-0.30321372969414573,-0.2305002260770199,0.38051064047724403,-0.7565983326362552,-0.21864974002701618,0.7610707008850004
1781556042431782912,2.3398759365081787,-0.01505848579108715,-0.15351349115371704,0.019937435165047646,-0.158821240067482,0.6865527629852295,-0.7095218300819397,-0.007270693778991699,-0.0019366741180419922,-0.007610738277435303,0.8424707827895787,-0.30296331050697123,-0.231197580551831,0.38079392975201853,-0.7567371421265864,-0.22021257280812576,0.7611879072098712
1781556042441817856,2.3499107360839844,0.17633037269115448,-0.08706042170524597,0.06836515665054321,-0.1593637466430664,0.6860200762748718,-0.709915280342102,-0.021422386169433594,0.013763248920440674,0.0014039278030395508,0.8424226118219691,-0.3024570157766929,-0.23143489496826541,0.38115868700526134,-0.756004813656518,-0.22082206679189897,0.76179884240024
1781556042451852800,2.359945774078369,-0.06516452878713608,-0.07663921266794205,0.03014320135116577,-0.1596607118844986,0.6856898069381714,-0.7101675868034363,-0.02704581618309021,0.04017078876495361,0.0036703944206237793,0.84227796027993,-0.3020802855633022,-0.23165428727247067,0.38164340267207403,-0.7555509342984836,-0.22114421987820834,0.7628118064847742
1781556042461887744,2.369980812072754,-0.1257154941558838,0.01695825159549713,-0.025443095713853836,-0.15982374548912048,0.6864305138587952,-0.7094148993492126,-0.04414048790931702,-0.005262911319732666,0.016940593719482422,0.8421193562130798,-0.3024915890847576,-0.23192968127748667,0.3815002067745038,-0.7565690062119058,-0.22158998480545852,0.7623615292438585
1781556042471922944,2.3800158500671387,-0.14052559435367584,-0.0012559066526591778,0.04530404508113861,-0.15974579751491547,0.6874080896377563,-0.7084853053092957,-0.02850186824798584,-0.025710701942443848,-0.020030319690704346,0.8418979052514775,-0.3030775866049587,-0.23216659442283683,0.3813797959666516,-0.7579141762440822,-0.2217666159037737,0.7620779029186415
1781556042481957888,2.3900508880615234,-0.16583335399627686,0.026989711448550224,0.03085346706211567,-0.1593579202890396,0.6885501146316528,-0.7074629068374634,-0.016285985708236694,0.05075347423553467,-0.01980149745941162,0.8415936981807541,-0.30378598360131326,-0.23234158010383166,0.38138115875766193,-0.759487864991315,-0.22155492951609596,0.7622351133875287
1781556042491992832,2.400085926055908,-0.15771150588989258,0.07170125842094421,0.006226950325071812,-0.1588885337114334,0.689768373966217,-0.7063810229301453,-0.024506837129592896,0.09627294540405273,-0.010187029838562012,0.8413646436471098,-0.30461072008937357,-0.23242592222078431,0.38117728811318,-0.7611690523033949,-0.22125084854232102,0.761944254275513
1781556042502027776,2.410120725631714,-0.1141858622431755,0.08019474148750305,0.01467449776828289,-0.1582794189453125,0.6907517313957214,-0.7055562734603882,-0.016693130135536194,0.07154685258865356,-0.017161011695861816,0.8412271285849161,-0.30534567532112855,-0.23234862534886255,0.3809395963977688,-0.7625281206752305,-0.22067930608639952,0.761654702871137
1781556042512063744,2.420156717300415,-0.030594034120440483,0.07944373041391373,0.027805479243397713,-0.15758198499679565,0.6913347840309143,-0.7051411271095276,-0.003993332386016846,0.04859435558319092,-0.010297656059265137,0.8411574250763446,-0.3058462165488425,-0.2321368643194797,0.38082098046593166,-0.763334821390867,-0.21986321752411048,0.7617102066452957
1781556042522098688,2.4301917552948,0.1303868591785431,0.07087208330631256,0.023916730657219887,-0.15683908760547638,0.6910344362258911,-0.705601155757904,0.0035645514726638794,0.03565013408660889,0.0035747289657592773,0.8412671553318348,-0.3058203397799479,-0.23167510675411385,0.3808808636154314,-0.7629191945586191,-0.21872139315839179,0.762246412417943
1781556042532135424,2.4402284622192383,0.24043212831020355,0.06857138127088547,0.0027986629866063595,-0.1562621295452118,0.6897141933441162,-0.7070194482803345,0.005749449133872986,0.01699662208557129,0.020053505897521973,0.8416134211177252,-0.3051690831528574,-0.2310024198907624,0.3810466947589271,-0.7610942845803831,-0.21751855670212744,0.7629822976950362
1781556042542170624,2.450263500213623,0.26979267597198486,0.05320653319358826,-0.002218466019257903,-0.15583305060863495,0.6878638863563538,-0.7089142203330994,0.008631512522697449,-0.0030799508094787598,0.041708409786224365,0.8420854040146913,-0.3041868430078533,-0.23024607038575579,0.38124702760458096,-0.7585419431632268,-0.21637797101573494,0.7637375922621427
1781556042552205568,2.460298538208008,0.2529260814189911,0.040328286588191986,0.007724445778876543,-0.1554955542087555,0.6860108375549316,-0.710781455039978,0.008187204599380493,-0.02173471450805664,0.04458272457122803,0.8425280363018905,-0.3031730698729279,-0.22955471370217356,0.3814933448929241,-0.7559920506407747,-0.21537395372853238,0.764550775762858
1781556042562240256,2.4703333377838135,0.2508946359157562,0.045902952551841736,0.004152347799390554,-0.15514157712459564,0.6842218637466431,-0.7125809192657471,0.002675771713256836,-0.026049256324768066,0.02659153938293457,0.8429470820489352,-0.3021976852234173,-0.228880121550673,0.3817469294301899,-0.7535361865282629,-0.21437247668461445,0.7653833830824479
1781556042572275456,2.4803683757781982,0.23428715765476227,0.04674797132611275,0.0003773169592022896,-0.15480084717273712,0.6824866533279419,-0.7143169641494751,-0.0020747780799865723,-0.016394734382629395,0.010276436805725098,0.843362188553723,-0.3012596557197847,-0.22821948536892073,0.3819670517350878,-0.7511594428454327,-0.2134116542259523,0.766124326354584
1781556042582310400,2.490403413772583,0.21795904636383057,0.043355368077754974,-0.0025175390765070915,-0.15448671579360962,0.6808750033378601,-0.7159212231636047,-0.001397058367729187,-0.0023776888847351074,0.005319356918334961,0.8437540115629277,-0.3003946802725779,-0.22760148813665024,0.38215160124835024,-0.748956646953194,-0.21252857847043766,0.7667606630664536
1781556042592345600,2.5004384517669678,0.20280113816261292,0.028745533898472786,-0.003566558239981532,-0.15423688292503357,0.6793512105941772,-0.7174210548400879,0.002762898802757263,-0.002730727195739746,0.0038132667541503906,0.8441172887458612,-0.299566968508461,-0.22704430498059558,0.3823304834667317,-0.7468781677977958,-0.21176464503415188,0.7673464642437888
1781556042602381568,2.510474443435669,0.1685078740119934,0.014705482870340347,-0.0034134264569729567,-0.1541082113981247,0.6779991984367371,-0.7187265157699585,0.002969905734062195,-0.02225273847579956,0.005988478660583496,0.8444286127784265,-0.2988119281714095,-0.22660134477310515,0.38249661172901395,-0.745037229788191,-0.21122022608641813,0.7678358136688406
1781556042612416512,2.5205094814300537,0.11821168661117554,0.01640484668314457,0.0001671935460763052,-0.1540234386920929,0.6769546270370483,-0.7197286486625671,-0.0031726211309432983,-0.03343045711517334,0.008897900581359863,0.8446669583443247,-0.29822604645937184,-0.22626735241428933,0.38262533396459175,-0.743617111209691,-0.21082214806922853,0.7682065166487627
1781556042622451456,2.5305445194244385,0.07648714631795883,0.034433513879776,0.0025344775058329105,-0.1538575440645218,0.6762496829032898,-0.7204264402389526,-0.01084582507610321,-0.034861743450164795,0.007795214653015137,0.8448368746248033,-0.2978554883997556,-0.2259842748374503,0.38270598475692635,-0.742659753646196,-0.21040372054159126,0.7684945705712787
1781556042632486656,2.5405795574188232,0.049966052174568176,0.06229497492313385,0.003981106448918581,-0.15349902212619781,0.6758044362068176,-0.7209205627441406,-0.01952037215232849,-0.024833977222442627,0.002948760986328125,0.8449788856500484,-0.29768603311979613,-0.22566069584123288,0.38271533067887753,-0.7420555441152985,-0.20978804236508505,0.7687017835678933
1781556042642521344,2.550614356994629,0.04852714762091637,0.08952206373214722,0.004111601505428553,-0.15291815996170044,0.6754747033119202,-0.7213529348373413,-0.019246742129325867,-0.003569185733795166,0.0004972219467163086,0.8451300714207498,-0.2976424121085382,-0.22523882682702578,0.38266397048448997,-0.7416082396989692,-0.20889545261298031,0.768870875552804
1781556042652556544,2.5606493949890137,0.07211317121982574,0.1066773533821106,0.0018945197807624936,-0.15219198167324066,0.6750470995903015,-0.7219064831733704,-0.02023233473300934,0.018113911151885986,0.00042515993118286133,0.8453244193488011,-0.29758050442680406,-0.2247056005458674,0.38259610847897013,-0.7410285557092352,-0.20777697115535582,0.7690729756663464
1781556042662591488,2.5706844329833984,0.099776491522789,0.11640600860118866,6.945553468540311e-05,-0.1513824611902237,0.6744310855865479,-0.7226521372795105,-0.016967758536338806,0.02591681480407715,0.003291785717010498,0.8455772713384142,-0.29743439429195506,-0.22406854979589697,0.3825248295219272,-0.7401939090390323,-0.2064958226177331,0.7693101492983795
1781556042672626432,2.580719470977783,0.13716886937618256,0.11881190538406372,-0.001287425053305924,-0.1505119949579239,0.6735662817955017,-0.7236398458480835,-0.01316903531551361,0.02612549066543579,-0.002785325050354004,0.8458870845771064,-0.29715741231460224,-0.22333282221561152,0.3824853227332882,-0.7390232453480066,-0.2050691639422388,0.7696542981770566
1781556042682661632,2.590754508972168,0.15564852952957153,0.10449834913015366,-0.010527262464165688,-0.14972008764743805,0.6724868416786194,-0.72480708360672,-0.005507558584213257,0.02795255184173584,-0.003143906593322754,0.8462423162820926,-0.2967430432608012,-0.22257586977843655,0.3824624540719688,-0.7375638161486247,-0.20370043509854552,0.7700002516003547
1781556042692697600,2.600790500640869,0.16297969222068787,0.08828103542327881,-0.018884794786572456,-0.1491001695394516,0.6712995171546936,-0.7260345220565796,-0.0032130777835845947,0.017009198665618896,0.00777280330657959,0.8466127789628197,-0.29623286593130405,-0.22187573022887572,0.3824448874905178,-0.735960719138548,-0.20254632968068842,0.7702741654021806
1781556042702732544,2.610825538635254,0.1549992561340332,0.09077614545822144,-0.012817580252885818,-0.14855755865573883,0.670113205909729,-0.7272406220436096,-0.0014363229274749756,-0.0015951991081237793,0.01361757516860962,0.8469771784166196,-0.29570769272349023,-0.22121632740194724,0.38242629670299905,-0.7343613061516998,-0.20150338864709275,0.7705057032621159
1781556042712767488,2.6208603382110596,0.15775057673454285,0.08202792704105377,-0.01186789758503437,-0.14797206223011017,0.6689705848693848,-0.728411078453064,-0.0017471909523010254,-0.005045413970947266,0.0015891790390014648,0.8473274980104621,-0.2952135273983751,-0.22055259465547525,0.3824155706000109,-0.7328229589206147,-0.20041643504308695,0.7707735739632903
1781556042722802432,2.6308953762054443,0.1570056825876236,0.1008097380399704,0.003006123239174485,-0.14741279184818268,0.6678114533424377,-0.7295870780944824,0.0026068836450576782,0.006230294704437256,-0.028347492218017578,0.8476607958150586,-0.294694770771215,-0.2199123962573637,0.38244559613506335,-0.7312646184444243,-0.19936558351636893,0.7711226418287503
1781556042732837376,2.640930414199829,0.14801537990570068,0.0009502558968961239,-0.030858634039759636,-0.14697442948818207,0.6666756272315979,-0.730713427066803,0.007951602339744568,0.023601412773132324,-0.06098884344100952,0.8479796374141386,-0.29416387252132903,-0.21934200484004887,0.3824750298113339,-0.7297396786480713,-0.19848981828300427,0.7714103132430685
1781556042742872576,2.650965452194214,0.12903183698654175,-0.04953156039118767,-0.0537857860326767,-0.14749011397361755,0.6655764579772949,-0.7316110134124756,0.009230226278305054,0.04858064651489258,-0.09578156471252441,0.8482334992743463,-0.29345467846088197,-0.21926886034292736,0.3824990591903654,-0.7282659229291848,-0.19893003138059775,0.7712319028395078
1781556042752907520,2.6610004901885986,0.03513437509536743,-0.1108202189207077,-0.09030172228813171,-0.1485843062400818,0.6648009419441223,-0.7320945262908936,0.013940736651420593,0.08464974164962769,-0.12920308113098145,0.8484082045449514,-0.29282456885826935,-0.21955979079598598,0.3824275204620768,-0.7272273227739092,-0.2002379881840925,0.7705538609416056
1781556042762942464,2.6710355281829834,-0.2600559890270233,-0.21832896769046783,-0.18125958740711212,-0.15063200891017914,0.6653020977973938,-0.7312203049659729,0.015118703246116638,0.1162988543510437,-0.2001609206199646,0.8483491971016864,-0.29278139580957047,-0.22061031098535452,0.3819866186878296,-0.727898390169302,-0.20315890403334913,0.7685424668146029
1781556042772977664,2.681070566177368,-0.7381833791732788,-0.3783942759037018,-0.31196272373199463,-0.15450575947761536,0.668549656867981,-0.7274402379989624,0.049082785844802856,0.14956557750701904,-0.2869335412979126,0.8477544789426581,-0.294033556818588,-0.22321322774470206,0.38083114765744674,-0.7322567784280766,-0.20928635131382117,0.7639213331154808
1781556042783013632,2.6911065578460693,-1.1642234325408936,-0.5869126915931702,-0.4090706408023834,-0.1604868471622467,0.6749436855316162,-0.720204770565033,0.11165870726108551,0.1527692675590515,-0.35793548822402954,0.8464884088845566,-0.2967814382599519,-0.2276365633982744,0.37889258959962785,-0.7408884108261782,-0.21925284402582024,0.75627811335741
1781556042793048320,2.701141357421875,-1.3889447450637817,-0.7656475901603699,-0.5352514982223511,-0.1684768944978714,0.683469295501709,-0.7102712392807007,0.1718490719795227,0.15831232070922852,-0.3665415048599243,0.8446575940057811,-0.30046698815813616,-0.23363210165379217,0.37641633028322014,-0.7525047578005166,-0.232896536546477,0.7460869801251513
1781556042803083520,2.7111763954162598,-1.3349171876907349,-0.9206708073616028,-0.6997808218002319,-0.1787758320569992,0.6920878887176514,-0.6993236541748047,0.1907387375831604,0.20634961128234863,-0.3294086456298828,0.8427214757335897,-0.30392636525570704,-0.2407632255511512,0.37347343767892155,-0.7643776180611179,-0.25028079394428127,0.7332848251030529
1781556042813118464,2.7212114334106445,-1.2180196046829224,-0.9982473850250244,-0.8764562606811523,-0.1909249871969223,0.6995852589607239,-0.6885696053504944,0.1853860467672348,0.3384701609611511,-0.36402738094329834,0.8410293480885794,-0.30659998769504976,-0.24841826704580186,0.37007359629995495,-0.7748169075123714,-0.2704825140271541,0.7181264167947274
1781556042823153408,2.7312464714050293,-0.9651784300804138,-1.0447171926498413,-1.107515811920166,-0.20489850640296936,0.7051686644554138,-0.6787884831428528,0.16354718804359436,0.4934397339820862,-0.44506704807281494,0.8398695982569138,-0.3081035929331866,-0.25627705003949125,0.36607834299357567,-0.78266095674023,-0.2931615372593704,0.700406657729176
1781556042833188608,2.741281509399414,-0.7134718894958496,-1.162210464477539,-1.3165090084075928,-0.2209378331899643,0.7082352638244629,-0.6705142855644226,0.1581021547317505,0.5572219491004944,-0.49014556407928467,0.8393586559932112,-0.3080359237640723,-0.2643042587010971,0.3615719446092263,-0.786995331930028,-0.3183011582047277,0.6804254797196415
1781556042843223552,2.751316547393799,-0.6258387565612793,-1.3418375253677368,-1.5331504344940186,-0.23941059410572052,0.7093414664268494,-0.6629610061645508,0.17044086754322052,0.5465179085731506,-0.4290800094604492,0.839213709367839,-0.30662339432999225,-0.272949814545746,0.3566522756875633,-0.7885634875588257,-0.34654955519323016,0.6583214972511733
1781556042853258496,2.7613513469696045,-0.7480719685554504,-1.50441312789917,-1.7840067148208618,-0.2606815695762634,0.709658682346344,-0.6545454263687134,0.15945476293563843,0.500180184841156,-0.3218339681625366,0.8391309945177885,-0.3046292976027149,-0.28271590379444406,0.3509015726843059,-0.7890136390500972,-0.37900850764671246,0.6327751947710922
1781556042863293440,2.7713863849639893,-0.790835440158844,-1.6574090719223022,-1.9787758588790894,-0.2844102680683136,0.7096534967422485,-0.6445950269699097,0.1416795551776886,0.47976911067962646,-0.32749664783477783,0.8389301938934307,-0.302474143279673,-0.2936186062798124,0.3442290174784815,-0.7890062450967429,-0.41553121097760043,0.603658663546392
1781556042873329408,2.7814223766326904,-0.5975179076194763,-1.8001327514648438,-2.0853798389434814,-0.31001198291778564,0.7080639600753784,-0.6344587802886963,0.14115825295448303,0.4672289490699768,-0.38272255659103394,0.8387585998818661,-0.299398405680006,-0.3051740505984909,0.3372140999150102,-0.7867527374824725,-0.45450571744670776,0.57317387017277
1781556042883364352,2.791457414627075,-0.4805731773376465,-1.9438557624816895,-2.1781134605407715,-0.33691078424453735,0.7044988870620728,-0.6246377825737,0.16389140486717224,0.42721492052078247,-0.33230191469192505,0.8386121827279476,-0.29517050991620714,-0.3171048570161662,0.3302247484441427,-0.7817168506311077,-0.4946452556530498,0.5429203231394523
1781556042893399552,2.80149245262146,-0.5256197452545166,-2.150747299194336,-2.327475070953369,-0.36545687913894653,0.699666440486908,-0.6139284372329712,0.17238742113113403,0.37047815322875977,-0.23307162523269653,0.838258216355808,-0.2902744431407451,-0.3298128705844007,0.32293546837605763,-0.774930500285595,-0.5369387389875072,0.5118393073833769
1781556042903434496,2.8115274906158447,-0.5379149913787842,-2.254593849182129,-2.430233955383301,-0.3957167863845825,0.6938702464103699,-0.6016246676445007,0.17162621021270752,0.27712273597717285,-0.1587207317352295,0.8375113678571018,-0.2849430674268602,-0.3435041764692385,0.3152568795786854,-0.7668497998280904,-0.5818019638632528,0.4796508816314879
1781556042913469440,2.8215625286102295,-0.5720242261886597,-2.2181267738342285,-2.484832525253296,-0.4260683059692383,0.6870040893554688,-0.5886350274085999,0.17863178253173828,0.18163299560546875,-0.09378379583358765,0.8366577163104723,-0.2794437305705146,-0.35720258435052044,0.30711783008827087,-0.7573580631952128,-0.6265370751747418,0.4472503978762772
1781556042923504640,2.8315975666046143,-0.6692754030227661,-2.20571231842041,-2.5116238594055176,-0.45620065927505493,0.6797223687171936,-0.5743330717086792,0.18448740243911743,0.1574510931968689,0.0138319730758667,0.8354622125767839,-0.2741828022212397,-0.3710219010132652,0.298612610246599,-0.7473840628308862,-0.6712640969466526,0.41466619860542253
1781556042933539328,2.84163236618042,-0.5497183799743652,-2.061591863632202,-2.582537889480591,-0.48557186126708984,0.6711940169334412,-0.5601058602333069,0.19496825337409973,0.15165138244628906,0.06976467370986938,0.8343595895819013,-0.2688095978675467,-0.3843025881542934,0.28964972640533676,-0.7358183531218884,-0.7142403351906735,0.38258564712388526
1781556042943574528,2.8516674041748047,-0.3311975598335266,-1.9463566541671753,-2.5960896015167236,-0.5140309929847717,0.6606595516204834,-0.5470842123031616,0.18967491388320923,0.1324312686920166,0.10195481777191162,0.8335429534159684,-0.26271363631293,-0.39678639846718283,0.28062118025205524,-0.7216969990552055,-0.7542587327669118,0.35273650959580233
1781556042953609472,2.8617024421691895,-0.2829618453979492,-1.878386378288269,-2.614522695541382,-0.5414298176765442,0.6483287215232849,-0.5352790355682373,0.1822836995124817,0.1398334503173828,0.16476517915725708,0.8329737681340815,-0.25595410021693477,-0.40847031100434217,0.2716508711003846,-0.7053872752821573,-0.7911106880085947,0.3254819397925056
1781556042963645440,2.8717384338378906,0.04036695510149002,-1.6190284490585327,-2.6841888427734375,-0.5679726004600525,0.634338915348053,-0.52442467212677,0.16683429479599,0.18154853582382202,0.2701674699783325,0.8326073542451096,-0.2486089423712531,-0.419501200039419,0.26263531988960936,-0.6871530816805043,-0.8252416080160245,0.30041613875388473
1781556042973680384,2.8817734718322754,0.30825114250183105,-1.3112525939941406,-2.7235190868377686,-0.592633068561554,0.6176354885101318,-0.5170225501060486,0.15516364574432373,0.1878911256790161,0.32782888412475586,0.8332348168457526,-0.240233522931109,-0.4286917235132224,0.2534381091683206,-0.665732661390416,-0.8534317642378572,0.2787179162453984
1781556042983715584,2.89180850982666,0.6562634706497192,-1.1003023386001587,-2.6513631343841553,-0.6152430772781372,0.5988420248031616,-0.5127027034759521,0.1602565050125122,0.1465650200843811,0.3414838910102844,0.8345647059268274,-0.23088083350573935,-0.43628279891265515,0.24464871802234245,-0.642054449017833,-0.8760578807032697,0.26129789964618544
1781556042993750528,2.901843547821045,0.9338913559913635,-0.9712415933609009,-2.6107914447784424,-0.6360739469528198,0.5782350897789001,-0.5109347105026245,0.18999844789505005,0.07311689853668213,0.32509785890579224,0.8363627178118271,-0.2204853195122975,-0.4426272496953856,0.23656888346586769,-0.6165637804137084,-0.8940688840474933,0.2483300862964449
1781556043003785472,2.9118783473968506,1.0980679988861084,-0.8583869934082031,-2.607168436050415,-0.655627965927124,0.5560703277587891,-0.5108208060264587,0.20546311140060425,0.04135704040527344,0.35100024938583374,0.8384648880607473,-0.2092794362521159,-0.44809789183143794,0.22888237396861036,-0.5896502130610844,-0.9089098523212213,0.23839162801796182
1781556043013820416,2.9219133853912354,1.2008521556854248,-0.7117171287536621,-2.569140911102295,-0.6738196611404419,0.5328935980796814,-0.5118511915206909,0.2198554277420044,0.041386187076568604,0.3964184522628784,0.8407837470912117,-0.19769077475410804,-0.4527612607346605,0.22137851513032386,-0.5620165061751432,-0.9211627254568975,0.23041138694850316
1781556043023855360,2.93194842338562,1.1820672750473022,-0.6037517189979553,-2.5200297832489014,-0.6904613375663757,0.5093162059783936,-0.5136732459068298,0.2169201374053955,0.021399736404418945,0.36667007207870483,0.8432292060503378,-0.1861056429495285,-0.456648734928969,0.2140121789597284,-0.5343900324349844,-0.9311742594141862,0.22375099024548048
1781556043033890560,2.941983461380005,1.0864036083221436,-0.5335598587989807,-2.497610330581665,-0.7059313058853149,0.4858812689781189,-0.5153448581695557,0.19448727369308472,-0.040095776319503784,0.34432440996170044,0.845594207111216,-0.17493224033386326,-0.4601372380002164,0.2065013097086111,-0.5073711665269492,-0.9402046862988099,0.21708033940434654
1781556043043926528,2.952019453048706,1.027624487876892,-0.49031081795692444,-2.4032022953033447,-0.7202468514442444,0.46286219358444214,-0.5167233943939209,0.18144375085830688,-0.10119837522506714,0.3637692928314209,0.847806613269494,-0.16424642401250752,-0.4633156867549585,0.19896130078735716,-0.4812213841675519,-0.9484709505633944,0.21043875470981396
1781556043053961472,2.962054491043091,0.9810112118721008,-0.3931770622730255,-2.315307378768921,-0.7332693934440613,0.4404645264148712,-0.5179835557937622,0.15323710441589355,-0.12021303176879883,0.3926173448562622,0.8498660799625448,-0.15403626437073578,-0.466134158803921,0.19162307424832406,-0.4561160157615374,-0.9557861108397429,0.2042585993682229
1781556043063996672,2.9720895290374756,1.0135565996170044,-0.1579914540052414,-2.2295925617218018,-0.7445221543312073,0.4184526205062866,-0.5201770663261414,0.11604321002960205,-0.09910142421722412,0.38412970304489136,0.8520953233228293,-0.14421596052395888,-0.4680953207955094,0.18445082632624163,-0.43174094411907943,-0.9609619524838453,0.19874931364014922
1781556043074031616,2.9821245670318604,1.2060521841049194,0.019331127405166626,-2.131530523300171,-0.7537247538566589,0.39633622765541077,-0.5242295265197754,0.10734719038009644,-0.10371842980384827,0.2570633888244629,0.8547064498225022,-0.13435234938263635,-0.46886532430123407,0.17774035179719352,-0.40752279884172127,-0.9630844268778364,0.19494140631810405
1781556043084066304,2.992159366607666,1.3447355031967163,0.011687321588397026,-2.036140203475952,-0.7616279721260071,0.3736533522605896,-0.5294392704963684,0.14164811372756958,-0.1546592116355896,0.10779315233230591,0.8574351116401366,-0.12391142239817232,-0.4689630274731561,0.17182734292143356,-0.38294454306525993,-0.9633385021522172,0.1935827346402354
1781556043094101504,3.002194404602051,1.2108560800552368,-0.06066117435693741,-1.9651386737823486,-0.7690262198448181,0.3514469265937805,-0.5339321494102478,0.18697983026504517,-0.2093723714351654,0.07030922174453735,0.8598373135884064,-0.1136433066549054,-0.4691685309140362,0.16627011481230894,-0.3591161698964602,-0.9639085283765575,0.19270215110959568
1781556043104136448,3.0122294425964355,0.9460771679878235,-0.15899254381656647,-1.8832554817199707,-0.7761673331260681,0.33074578642845154,-0.5368161201477051,0.21923679113388062,-0.27808770537376404,0.03213167190551758,0.8617587958001682,-0.10437216406643798,-0.46978547403772936,0.16056107391852076,-0.33709372287293254,-0.9657138334944673,0.19046928774716002
1781556043114171392,3.0222644805908203,0.7076403498649597,-0.37380310893058777,-1.7946537733078003,-0.7835040092468262,0.31192854046821594,-0.5374216437339783,0.23284488916397095,-0.34005048871040344,-0.02190452814102173,0.8630064280155536,-0.09625966954061585,-0.47119343892535726,0.15469561510245552,-0.3172221796227413,-0.9695821859846919,0.18663228448491656
1781556043124207616,3.0323004722595215,0.4345041513442993,-0.5106958150863647,-1.67559015750885,-0.7912042737007141,0.2952251732349396,-0.5355725288391113,0.2235010266304016,-0.34539610147476196,-0.015162885189056396,0.8635176663398894,-0.08937953690993859,-0.47352407329880636,0.14873958879092183,-0.2996911848067969,-0.9757370325224457,0.18125758781173415
1781556043134242560,3.0423355102539062,0.3775061070919037,-0.5499175190925598,-1.5404562950134277,-0.7986651062965393,0.28045687079429626,-0.5324264764785767,0.18819153308868408,-0.28974947333335876,-0.01701200008392334,0.8635811498615125,-0.08353477641007007,-0.4762443679400961,0.1429715185104386,-0.2842700562864332,-0.9828084021288984,0.17526290365481154
1781556043144277504,3.052370548248291,0.474993497133255,-0.5414553284645081,-1.3715027570724487,-0.8055400252342224,0.2666323184967041,-0.5291621088981628,0.1528148055076599,-0.2556459903717041,-0.04255419969558716,0.8634546333515486,-0.07789206273314414,-0.4789068616161616,0.13793893107249197,-0.26989716519421625,-0.9895832923433909,0.17057299893545802
1781556043154312448,3.0624053478240967,0.4549905061721802,-0.5009657144546509,-1.2188674211502075,-0.8116584420204163,0.25368133187294006,-0.5261714458465576,0.13551098108291626,-0.2764168977737427,-0.04650616645812988,0.863253705241235,-0.072379257614092,-0.48132681984452363,0.13371163824426138,-0.25648418316874094,-0.9956402618869161,0.1674096381377607
1781556043164347392,3.0724403858184814,0.012640253640711308,-0.4005207419395447,-1.1202033758163452,-0.8169867992401123,0.2428259402513504,-0.5230374932289124,0.1221168041229248,-0.3698706328868866,-0.06914085149765015,0.8629831063576938,-0.0681056853069473,-0.4835730341070046,0.1295335100463397,-0.24527792071531482,-1.0013390633158374,0.16329271584315727
1781556043174382336,3.082475423812866,-0.6407021284103394,-0.5016326904296875,-0.9613008499145508,-0.8218898773193359,0.23572354018688202,-0.5185861587524414,0.12915605306625366,-0.5018825531005859,-0.0907888412475586,0.8624257437262985,-0.06645658213104261,-0.48609716723832364,0.12455925672729277,-0.2379630196062304,-1.0079169797646643,0.15521643828464238
1781556043184417536,3.092510461807251,-1.6001216173171997,-0.6152068972587585,-0.8456043004989624,-0.8268625140190125,0.23409441113471985,-0.5113689303398132,0.14566439390182495,-0.625009298324585,-0.10418587923049927,0.861244207063345,-0.06879627334182963,-0.4894717621864059,0.11807997613637022,-0.23628699328946923,-1.0169246595831287,0.14039262804086616
1781556043194452480,3.1025454998016357,-2.3284339904785156,-0.8206996321678162,-0.6728106737136841,-0.8322614431381226,0.2378227859735489,-0.5007805824279785,0.18519723415374756,-0.6686546802520752,-0.09295409917831421,0.8592174760945464,-0.07506640060372395,-0.4939379829801823,0.11016166505165126,-0.24012370894821555,-1.0291198989404762,0.11883021648280404
1781556043204488448,3.112581491470337,-2.760909080505371,-1.199384093284607,-0.4858042895793915,-0.8386942148208618,0.2459769994020462,-0.48588818311691284,0.22835791110992432,-0.57950359582901,-0.04594165086746216,0.8559427284939103,-0.0843931568321559,-0.4999336975923244,0.10151904441244375,-0.2485275333619941,-1.0457073532161907,0.09237236249097058
1781556043214523648,3.1226165294647217,-2.759723424911499,-1.0852478742599487,-0.4264967739582062,-0.8452261090278625,0.25529178977012634,-0.46948811411857605,0.21961575746536255,-0.45617374777793884,0.03145402669906616,0.8520999750969076,-0.09447741384248699,-0.5062903979769005,0.09311197484592468,-0.2581494932520779,-1.0637719245330592,0.06522127450152784
1781556043224558592,3.1326515674591064,-2.7436118125915527,-1.174882173538208,-0.23393423855304718,-0.8512716293334961,0.2650362253189087,-0.4528713524341583,0.1328878402709961,-0.3963075876235962,0.05544090270996094,0.848037784441334,-0.10475086313566481,-0.512436906294152,0.08525035876944669,-0.2682415061903399,-1.0818823567401603,0.03862519089594481
1781556043234593280,3.142686367034912,-2.516263246536255,-0.9370615482330322,-0.14284588396549225,-0.8565979599952698,0.27523073554039,-0.43644919991493225,0.08605968952178955,-0.3290790617465973,0.10371610522270203,0.8438438940320027,-0.11491151882525853,-0.5182381162409125,0.0784349636887439,-0.278829706548363,-1.0995660244549612,0.013804238343099075
1781556043244628480,3.152721405029297,-2.4432358741760254,-0.7574968934059143,-0.1917084902524948,-0.8606666326522827,0.2845343053340912,-0.4222477674484253,0.04313129186630249,-0.2161749303340912,0.11302840709686279,0.8402292798779464,-0.12471640045735038,-0.5228020018663192,0.07168445207934769,-0.28852060634056154,-1.114692539549293,-0.010370031007303585
1781556043254663424,3.1627564430236816,-2.125850200653076,-0.6876221895217896,-0.17636042833328247,-0.8643434643745422,0.2926853895187378,-0.4089568853378296,0.04662489891052246,-0.1200169026851654,0.10584098100662231,0.8367855284940882,-0.1337470786320729,-0.526909169259159,0.06533398498443706,-0.29703400872097874,-1.1288653343423793,-0.03305743965549702
1781556043264698624,3.1727914810180664,-1.9661494493484497,-0.6157562136650085,-0.16189414262771606,-0.8674771785736084,0.2993909418582916,-0.39730140566825867,0.0767362117767334,-0.10232371091842651,0.10485151410102844,0.8337231998118607,-0.14161382747371415,-0.5303723355187082,0.05963497673244144,-0.30405426073602637,-1.141312524802461,-0.05324427257154022
1781556043274733568,3.182826519012451,-1.8437297344207764,-0.6206263303756714,-0.05146218091249466,-0.8702086210250854,0.3059292137622833,-0.3861919939517975,0.08349597454071045,-0.15436366200447083,0.10823792219161987,0.8307356509489927,-0.14910499976844754,-0.5335463463376894,0.05453652514215321,-0.31091427704840524,-1.153116595528145,-0.07200978053482432
1781556043284769536,3.1928625106811523,-1.9343461990356445,-0.7311315536499023,0.039849624037742615,-0.8727459907531738,0.31300219893455505,-0.3746250569820404,0.1003919243812561,-0.19541800022125244,0.11264696717262268,0.8275302674157667,-0.15664494796588582,-0.536795889142134,0.05006122559001305,-0.3183524183977803,-1.1653325275563733,-0.08995348570832776
1781556043294804480,3.202897548675537,-1.696044683456421,-0.78338623046875,0.011476839892566204,-0.875525176525116,0.32005774974823,-0.36196526885032654,0.07674276828765869,-0.10286414623260498,0.12035763263702393,0.8239365805706894,-0.16408518509852266,-0.5404566761838978,0.04594834157875364,-0.3257904416134078,-1.17876926991338,-0.10749531181945576
1781556043304839424,3.2129323482513428,-1.487953543663025,-0.7793353796005249,-0.033316463232040405,-0.8784047961235046,0.32561397552490234,-0.3498295247554779,-0.005353748798370361,0.005105018615722656,0.11858260631561279,0.8204487101185357,-0.17046751919096778,-0.5440827704826705,0.0421758143135451,-0.3316610246137417,-1.1917947487227118,-0.12330572152778231
1781556043314874368,3.2229673862457275,-1.214779257774353,-0.6547324657440186,-0.019702652469277382,-0.8809739351272583,0.33009234070777893,-0.3390045166015625,-0.0937575101852417,0.08740338683128357,0.15948486328125,0.8173021118513007,-0.1758347889388221,-0.5473389016159792,0.03898137219669255,-0.33640138765433397,-1.2034559990224711,-0.1368358678304703
1781556043324909568,3.2330024242401123,-0.948273777961731,-0.6242836713790894,0.005319611169397831,-0.8830981254577637,0.33359700441360474,-0.3299254775047302,-0.15640687942504883,0.13770121335983276,0.17398065328598022,0.8146350860902569,-0.1801035025683258,-0.5500908938534145,0.0365028250400301,-0.3401165924485253,-1.2132535994270406,-0.1476358830004647
1781556043334944512,3.243037462234497,-0.6282603740692139,-0.34419021010398865,-0.10548919439315796,-0.8847665190696716,0.3356969356536865,-0.3232581913471222,-0.18083101511001587,0.17567086219787598,0.18382340669631958,0.8126684351795311,-0.18301194494558826,-0.5521571590381755,0.03462860279586365,-0.34234499027552756,-1.2205039170276961,-0.15542780612759652
1781556043344979456,3.253072500228882,-0.38294729590415955,-0.1655523031949997,-0.1792811155319214,-0.8860941529273987,0.33597657084465027,-0.31930723786354065,-0.21569734811782837,0.1708594262599945,0.18515196442604065,0.8115261734582248,-0.18460202281334356,-0.5534152814330564,0.03284857913361052,-0.34264186678809144,-1.2249277258464095,-0.16102294968018555
1781556043355014656,3.2631075382232666,-0.21982841193675995,-0.04644136130809784,-0.15155814588069916,-0.8869884014129639,0.335426390171051,-0.3173966705799103,-0.21182745695114136,0.08429709076881409,0.18826153874397278,0.8109932973198506,-0.18532451222979837,-0.5540365383790117,0.0314352100818428,-0.34205779915986056,-1.2271574939552194,-0.16460078452595453
1781556043365050624,3.2731435298919678,-0.11081749945878983,0.061958082020282745,-0.12694893777370453,-0.8874372839927673,0.33469095826148987,-0.31691789627075195,-0.1939835548400879,-0.021687448024749756,0.17528584599494934,0.810884493021208,-0.18558655073921812,-0.5541648501602902,0.030417355089117446,-0.3412772681210052,-1.2277963490856878,-0.1667017505329861
1781556043375085568,3.2831785678863525,-0.07737032324075699,0.16683469712734222,-0.09164288640022278,-0.8874214291572571,0.3340252637863159,-0.31766384840011597,-0.17385786771774292,-0.056544214487075806,0.15550869703292847,0.8111445185032313,-0.18568482512626888,-0.5537952907368641,0.029605544625753544,-0.340570923471884,-1.2270454020049817,-0.16802913296265307
1781556043385120512,3.293213367462158,-0.047285132110118866,0.2173779010772705,-0.08185151219367981,-0.8870798349380493,0.33346936106681824,-0.31919825077056885,-0.14383447170257568,-0.05665966868400574,0.11038172245025635,0.8116424728231654,-0.1857305688004965,-0.5530868232575389,0.02890660320932382,-0.3399811900997474,-1.225390943916383,-0.16895410404213704
1781556043395155456,3.303248405456543,-0.10018935799598694,0.2540760040283203,-0.10444949567317963,-0.8866451382637024,0.3328530490398407,-0.32104384899139404,-0.12128937244415283,-0.056073904037475586,0.07899370789527893,0.8122379343458478,-0.1857715170727278,-0.5522381868550487,0.02813252982931783,-0.33932754967115575,-1.2233932532815868,-0.1699400504223381
1781556043405190400,3.3132834434509277,-0.18136517703533173,0.29113322496414185,-0.10556749254465103,-0.8861172795295715,0.33235064148902893,-0.32301589846611023,-0.09587734937667847,-0.05869951844215393,0.07399249076843262,0.8128820122950665,-0.18609477576866246,-0.5512356878215574,0.027034204494368205,-0.3387947850823705,-1.2212367163237552,-0.17177271560129626
1781556043415225600,3.3233184814453125,-0.2714540660381317,0.2727113366127014,-0.0678028017282486,-0.8854866623878479,0.3322933614253998,-0.324799120426178,-0.0551108717918396,-0.09616360068321228,0.06878715753555298,0.8134702053799442,-0.18679289068079508,-0.550189841856877,0.025802416788677767,-0.3387340633098329,-1.2192314211792952,-0.1742996294487619
1781556043425260544,3.3333535194396973,-0.37816718220710754,0.26024186611175537,-0.060761671513319016,-0.8848327398300171,0.33279699087142944,-0.3260629177093506,-0.017083704471588135,-0.11749550700187683,0.07165315747261047,0.8139019099747494,-0.18798524456987029,-0.5492086031039977,0.024393195340316864,-0.33926810417735065,-1.2177343874045787,-0.17779543201726092
1781556043435295488,3.343388557434082,-0.4338621497154236,0.24575534462928772,-0.05211971327662468,-0.884196400642395,0.33363407850265503,-0.3269326090812683,0.003215014934539795,-0.1148383617401123,0.0477120578289032,0.8142158706699067,-0.1895439503879864,-0.5482761902851286,0.022775657550030814,-0.3401559245638116,-1.21663531648332,-0.18214022779872913
1781556043445331456,3.353424549102783,-0.41450735926628113,0.20582537353038788,-0.031281810253858566,-0.8836000561714172,0.33465269207954407,-0.3275032341480255,0.02024257183074951,-0.09873658418655396,0.0026436150074005127,0.814433105246213,-0.19118938242438954,-0.547444070532299,0.021217476006845655,-0.3412366428898907,-1.2158479170507692,-0.18654417206664842
1781556043455366400,3.363459348678589,-0.3873519003391266,0.17481286823749542,-0.020688820630311966,-0.8830639719963074,0.3357512354850769,-0.327825129032135,0.03298157453536987,-0.0729796290397644,-0.01101154088973999,0.8145669000073443,-0.19277793960589149,-0.5467395170773757,0.01983594181270173,-0.3424026573357612,-1.2153296788453714,-0.19063513482173447
1781556043465401344,3.3734943866729736,-0.3101188838481903,0.12889011204242706,-0.0368262454867363,-0.8826615214347839,0.3366634249687195,-0.3279730975627899,0.040971457958221436,-0.012337863445281982,-0.00935298204421997,0.814641253186699,-0.19415827911205302,-0.5461831277143089,0.01860615617678662,-0.34337122035125217,-1.2150336170267817,-0.19426594243318693
1781556043475436544,3.3835294246673584,-0.21796846389770508,0.12754201889038086,-0.06023463234305382,-0.882405161857605,0.3371201455593109,-0.32819369435310364,0.03734290599822998,0.05106344819068909,0.010704100131988525,0.8147321684036323,-0.19512766206874657,-0.545736514112441,0.01756029174224191,-0.34385630315651255,-1.2147191363677827,-0.1970997367636565
1781556043485471488,3.393564462661743,-0.10064581781625748,0.16662684082984924,-0.07800351083278656,-0.8821651935577393,0.3370027542114258,-0.3289586007595062,0.019738435745239258,0.09533977508544922,0.023096144199371338,0.8149850396883146,-0.19558431340679516,-0.5452224076694114,0.01669610001113622,-0.3437316096974,-1.2138688241553672,-0.1989292289167739
1781556043495506432,3.403599500656128,0.013388335704803467,0.20197337865829468,-0.08709607273340225,-0.8818438649177551,0.3363856375217438,-0.3304484486579895,0.00014525651931762695,0.10181629657745361,-0.003535926342010498,0.8154545219352544,-0.19552621507516846,-0.5445597078245504,0.016068165218106372,-0.3430762123367291,-1.2122672632215996,-0.19962506341864888
1781556043505541632,3.4136345386505127,-0.026411540806293488,0.23393157124519348,-0.07202257961034775,-0.8813899159431458,0.3356668949127197,-0.33238428831100464,-0.008838236331939697,0.051738470792770386,-0.031492024660110474,0.8160582036550486,-0.19531960935620357,-0.543744516206763,0.015524335755802586,-0.3423131001126287,-1.2101737549807883,-0.19992171471720857
1781556043515576320,3.4236693382263184,-0.0885729119181633,0.20834046602249146,-0.04624371603131294,-0.880842924118042,0.3353263735771179,-0.3341737985610962,0.005598664283752441,-0.012648731470108032,-0.051827818155288696,0.8166182713290377,-0.1954176035283434,-0.5428858632428942,0.0148863744807531,-0.34195164223232255,-1.2081915782243382,-0.20075727753697747
1781556043525612544,3.4337055683135986,-0.10185728967189789,0.13448315858840942,-0.01508366409689188,-0.8803664445877075,0.3353898227214813,-0.3353636860847473,0.03986644744873047,-0.028077781200408936,-0.05185863375663757,0.8169923578854684,-0.19574557569258466,-0.5422193563001139,0.014334194894540695,-0.34201900202570606,-1.206831266633747,-0.2018306567038269
1781556043535646976,3.443739891052246,-0.04688326269388199,0.07893946766853333,0.013578340411186218,-0.8800020813941956,0.3356751501560211,-0.3360333740711212,0.04818451404571533,-0.020749062299728394,-0.055125683546066284,0.8172027204331364,-0.1960915505885193,-0.5417853951022467,0.01401113511497457,-0.3423218794653566,-1.2060291913604257,-0.20264054852937943
1781556043545681920,3.453774929046631,0.08135247230529785,0.017693549394607544,0.054168909788131714,-0.8797422051429749,0.33587151765823364,-0.33651748299598694,0.030529558658599854,-0.04459652304649353,-0.08444195985794067,0.8173482813920715,-0.19608107827897142,-0.5415657508657822,0.014161220875974592,-0.3425303583487652,-1.205450602664197,-0.20227983357889312
1781556043555716864,3.4638099670410156,0.049303192645311356,0.011878270655870438,0.08922569453716278,-0.8794533014297485,0.33628565073013306,-0.3368588089942932,0.01687401533126831,-0.08157071471214294,-0.0505770742893219,0.8174442527621598,-0.19599656712455385,-0.5414387714741472,0.014639804821878646,-0.3429700552528633,-1.20500252438699,-0.2013078796772118
1781556043565751808,3.4738447666168213,0.0100343506783247,0.02767760679125786,0.09916780889034271,-0.8790782690048218,0.337011456489563,-0.33711257576942444,-0.003474891185760498,-0.0885525643825531,-0.012542545795440674,0.8175139928525555,-0.19613807270759331,-0.5412703290916804,0.015075836324658342,-0.34374083875240347,-1.2046083222589785,-0.20068360109884523
1781556043575786752,3.483879804611206,-0.04069993272423744,0.06096046045422554,0.12790518999099731,-0.8785421848297119,0.338064044713974,-0.33745598793029785,-0.008848071098327637,-0.08423402905464172,0.024818629026412964,0.8176117891399912,-0.19650848922543065,-0.5409772879353179,0.015461569879373398,-0.3448590520093103,-1.2040636710885475,-0.20038796970607467
1781556043585821952,3.493914842605591,-0.08717288821935654,0.09606905281543732,0.1282103806734085,-0.8778426051139832,0.33944207429885864,-0.3378927707672119,0.0008131861686706543,-0.03151971101760864,0.046602487564086914,0.8177398879398811,-0.1971407267531083,-0.5405452304912086,0.015745588962177412,-0.34632369518071704,-1.2033635068653505,-0.20054417787136986
1781556043595857920,3.503950834274292,-0.10738734900951385,0.1156691163778305,0.1078350692987442,-0.8770860433578491,0.34080803394317627,-0.3384818732738495,0.0040392279624938965,0.004666179418563843,0.0343589186668396,0.817917894949735,-0.19787253277253167,-0.5400051163440103,0.01585269887646947,-0.34777626772965237,-1.202489656234158,-0.20108149511815662
1781556043605892864,3.5139858722686768,-0.1352544128894806,0.1108354777097702,0.1163657009601593,-0.8763253688812256,0.34219735860824585,-0.3390500247478485,0.008710622787475586,-0.01941293478012085,0.024383246898651123,0.8180914525412716,-0.198687672996584,-0.5394424898005131,0.015857087705433353,-0.34925443388506905,-1.2016340755802826,-0.20189065114072535
1781556043615927808,3.5240209102630615,-0.1562236100435257,0.08621001988649368,0.12017402797937393,-0.8755742907524109,0.3437331020832062,-0.3394366502761841,0.011499583721160889,-0.05375507473945618,0.03175842761993408,0.8182097427561241,-0.1996136189627918,-0.5389212185962386,0.015847848976824303,-0.3508893467506589,-1.2009614986776012,-0.20288498448002643
1781556043625963008,3.5340559482574463,-0.22210381925106049,0.08669086545705795,0.1246262937784195,-0.874875009059906,0.34543871879577637,-0.339508056640625,-0.0015439987182617188,-0.07024648785591125,0.03604128956794739,0.8182333401692259,-0.20072085918093266,-0.5384766516127187,0.015753434617670457,-0.35270623449072386,-1.2006211989711846,-0.20429389562611666
1781556043635997952,3.544090986251831,-0.2815551459789276,0.10042877495288849,0.12593364715576172,-0.8741344213485718,0.34735560417175293,-0.3394598960876465,-0.019023478031158447,-0.07774809002876282,0.017331629991531372,0.8182236907499644,-0.20207830306355967,-0.5379910852237325,0.015488257439822514,-0.3547496331676422,-1.2003833583672698,-0.20630198891840082
1781556043646032896,3.5541257858276367,-0.347574919462204,0.09594374150037766,0.14801524579524994,-0.873317539691925,0.3496139943599701,-0.33924394845962524,-0.023883938789367676,-0.09340369701385498,0.00033101439476013184,0.8181649027954849,-0.20373632281699502,-0.53746585169117,0.015102505851745588,-0.35715905072392495,-1.2002826049625757,-0.2088926001742115
1781556043656067840,3.5641608238220215,-0.4344554841518402,0.05572096258401871,0.1777113676071167,-0.8724757432937622,0.35238412022590637,-0.338543176651001,-0.010519862174987793,-0.09318307042121887,0.00042366981506347656,0.817958971283064,-0.20578425698861655,-0.537011403724949,0.014653272240776432,-0.36011740188212993,-1.200654887113389,-0.2121387043676006
1781556043666103808,3.5741968154907227,-0.5102908611297607,0.043274011462926865,0.17336560785770416,-0.8716805577278137,0.3555787205696106,-0.3372487425804138,0.007895827293395996,-0.04240736365318298,0.047026604413986206,0.8175736051168261,-0.20823019153717368,-0.5366710439691266,0.014060478405675276,-0.3635331805070274,-1.2016382426394512,-0.2162123529887885
1781556043676138752,3.5842318534851074,-0.5554961562156677,0.08082564920186996,0.11979159712791443,-0.870954155921936,0.35868963599205017,-0.33582839369773865,0.003003716468811035,0.03391897678375244,0.07578811049461365,0.8171542211897314,-0.21083645961032305,-0.5363150035843235,0.01316187906855118,-0.3668637346337374,-1.2027765430606598,-0.22102211650780196
1781556043686173952,3.594266891479492,-0.5206210017204285,0.1411134898662567,0.09493817389011383,-0.8702018857002258,0.3614189624786377,-0.33485084772109985,-0.00594252347946167,0.0740973949432373,0.06795936822891235,0.8168730118351292,-0.21335231689949555,-0.535775484654739,0.011997048254342207,-0.3697892629917215,-1.2034645232191137,-0.2260922152047498
