time,seconds_elapsed,rotationRateX,rotationRateY,rotationRateZ,gravityX,gravityY,gravityZ,accelerationX,accelerationY,accelerationZ,quaternionW,quaternionX,quaternionY,quaternionZ,pitch,roll,yaw
1781116370099865344,0.18762445449829102,-0.09709064662456512,0.026911329478025436,0.01625211164355278,0.3103310763835907,-0.39878714084625244,-0.8629388213157654,-0.005185812711715698,0.008024811744689941,0.01932615041732788,0.8749718404631598,0.11945081731014967,0.2329422516131478,0.40730040594903494,0.41019390000573785,0.34522019476551885,0.7988358308614963
1781116370109900288,0.19765925407409668,-0.048829372972249985,0.03505580872297287,0.012234201654791832,0.3105272650718689,-0.3982089161872864,-0.8631352782249451,-0.0010027289390563965,0.012085258960723877,0.011694848537445068,0.8749503598369105,0.11909137651514203,0.23291545254567392,0.40746720736891856,0.4095634309823689,0.345348958440247,0.7992550478864442
1781116370119935232,0.20769429206848145,-0.018802231177687645,0.049959924072027206,0.01225018035620451,0.3108292818069458,-0.39796966314315796,-0.863136887550354,-0.002800077199935913,0.01691192388534546,0.007225632667541504,0.87489679418622,0.1188820687961517,0.23302059998580624,0.40758326105806403,0.40930264663678806,0.3456581230962873,0.7995012913306322
1781116370129970432,0.2177293300628662,0.024033648893237114,0.04368271678686142,0.01192500814795494,0.31115132570266724,-0.3980307877063751,-0.8629926443099976,-0.0022066235542297363,0.02341228723526001,0.001664578914642334,0.8748152736788004,0.1188177000690844,0.23320811220871204,0.40766958457479535,0.4093692622998341,0.3460416838188253,0.7996405884849143
1781116370140004352,0.22776341438293457,0.027245156466960907,0.04272930696606636,0.015977008268237114,0.3114629089832306,-0.39832261204719543,-0.8627455830574036,0.002410382032394409,0.013511210680007935,-0.0062119364738464355,0.8747237900026776,0.11887523167195219,0.23344352641834956,0.40771449898649426,0.4096873898147138,0.3464526064360931,0.7996593440490408
1781116370150039552,0.23779845237731934,0.015617527067661285,0.034364983439445496,0.023508161306381226,0.3117111325263977,-0.39857661724090576,-0.8625386357307434,0.002726733684539795,0.006959795951843262,-0.002939879894256592,0.8746250420769555,0.11891802649259262,0.233643302578765,0.40779949927588494,0.40996432718695586,0.3467838276115149,0.7997841701291079
1781116370160074496,0.2478334903717041,-0.01395474560558796,0.02722425013780594,0.022649824619293213,0.3118864595890045,-0.3986610472202301,-0.8624361753463745,0.006076186895370483,-5.334615707397461e-06,-0.004934430122375488,0.874540379588094,0.11888784636303665,0.23376821675696896,0.40791818079339937,0.41005640329550225,0.34700157040934815,0.8000177759666213
1781116370170109184,0.25786828994750977,-0.047802455723285675,0.022731631994247437,0.030537042766809464,0.31199681758880615,-0.39848557114601135,-0.8624773621559143,0.00747641921043396,-0.009732812643051147,-0.002421259880065918,0.8744752267323265,0.11873707425751436,0.23380080019700933,0.40808310104426554,0.4098650632010594,0.34709946056363405,0.8003986389794466
1781116370180143360,0.2679023742675781,-0.08128877729177475,0.026344209909439087,0.03352164849638939,0.3120744228363037,-0.3980535566806793,-0.8626487851142883,0.007383555173873901,-0.009859651327133179,0.00290757417678833,0.8744181945755529,0.11845606559912303,0.233760056057686,0.4083102855001452,0.4093940750873941,0.34711544975915265,0.8009579007556066
1781116370190178304,0.2779374122619629,-0.10946528613567352,0.022434022277593613,0.041263189166784286,0.3121252655982971,-0.3972988426685333,-0.8629782199859619,0.008370310068130493,-0.008829087018966675,0.011446237564086914,0.8743718531540455,0.11800948195053834,0.2336335619621438,0.40861103169281787,0.40857152811124803,0.34704541554371626,0.80172829578873
1781116370200213504,0.28797245025634766,-0.12611830234527588,0.020985528826713562,0.040049053728580475,0.3121744990348816,-0.39638009667396545,-0.8633828163146973,0.011189788579940796,-0.009732574224472046,0.012720584869384766,0.8743314629928151,0.11747744837001232,0.23346871293394666,0.4089448066139181,0.40757059277811136,0.3469459578612055,0.8025941171499683
1781116370210247168,0.2980062961578369,-0.09980733692646027,0.01672274060547352,0.038780324161052704,0.3121810257434845,-0.3954937160015106,-0.8637868762016296,0.012617528438568115,-0.006560087203979492,0.015108287334442139,0.8742967963399654,0.11697361420023046,0.2332889829418879,0.4092657811907306,0.40660532272522293,0.34680306532769534,0.803433345694737
1781116370220282368,0.3080413341522217,-0.061770737171173096,0.0259974654763937,0.04171352833509445,0.31221142411231995,-0.39492419362068176,-0.8640364408493042,0.013334840536117554,0.005077391862869263,0.007087588310241699,0.874238587432696,0.11662542019688284,0.23319583794005982,0.40954272611311365,0.40598534685183435,0.34674183898877636,0.8041303037947373
1781116370230317312,0.31807637214660645,-0.028733424842357635,0.036768220365047455,0.04303579032421112,0.31232908368110657,-0.39466992020606995,-0.8641101121902466,0.010958880186080933,0.02113473415374756,0.006230473518371582,0.8741374258667531,0.11641057860037965,0.2332242039802093,0.40980356622233177,0.4057085681439672,0.3468350202580247,0.8047392793341175
1781116370240352512,0.3281114101409912,-0.022351691499352455,0.04016801342368126,0.0501999594271183,0.3124805688858032,-0.3946247696876526,-0.8640759587287903,0.009250998497009277,0.019945204257965088,0.004533112049102783,0.8740098391980613,0.11628910726816695,0.23332138893549262,0.4100548100917293,0.4056594356559609,0.3470027104692022,0.8052962196006841
1781116370250386176,0.33814525604248047,-0.047981686890125275,0.038960400968790054,0.05849943310022354,0.3126267194747925,-0.39447909593582153,-0.8640895485877991,0.0065261125564575195,-0.0016543269157409668,0.0030360817909240723,0.8738715924623587,0.11610782801249273,0.23339706527071624,0.4103574224631962,0.4055009131055117,0.34714723699777106,0.805983570856011
1781116370260421376,0.34818029403686523,-0.09380776435136795,0.04370402172207832,0.06681010127067566,0.31273311376571655,-0.3940798044204712,-0.8642332553863525,0.00405457615852356,-0.019677549600601196,0.006063699722290039,0.8737380310227915,0.11579765080795718,0.23339724374606835,0.41072928668939884,0.40506640196382665,0.3472029183223382,0.8068660524253207
1781116370270456320,0.35821533203125,-0.12534518539905548,0.04057680815458298,0.06872278451919556,0.3128109872341156,-0.39331889152526855,-0.8645516037940979,0.005319535732269287,-0.022300004959106445,0.013294339179992676,0.8736139371346872,0.11530128399972452,0.23330194778890034,0.41118662779094667,0.40423866310531736,0.34716471320681613,0.8079917400393
1781116370280491264,0.36825037002563477,-0.1692468672990799,0.04623469337821007,0.07678843289613724,0.3129112422466278,-0.39223748445510864,-0.8650065660476685,0.004151135683059692,-0.020482242107391357,0.016694188117980957,0.873502106557803,0.11463474231379392,0.23314288726269763,0.41170055891103985,0.403062750841526,0.3470989434323555,0.8092818923047939
1781116370290525440,0.3782844543457031,-0.1771061271429062,0.049588412046432495,0.081037238240242,0.3130128085613251,-0.39099666476249695,-0.8655313849449158,0.0011351406574249268,-0.016901284456253052,0.02312415838241577,0.873381608241781,0.11387753197610016,0.232951095810596,0.4122744642310965,0.40171420905306565,0.3470087435538218,0.8107281194864701
1781116370300560128,0.3883192539215088,-0.19393916428089142,0.05911906808614731,0.0847877636551857,0.3131489157676697,-0.3896470367908478,-0.8660905957221985,-0.00042003393173217773,-0.013551205396652222,0.02125728130340576,0.8732534100134988,0.11305246764301072,0.23275272208692208,0.41288480378550346,0.4002482999907408,0.3469412232820997,0.8122656077292622
1781116370310595328,0.39835429191589355,-0.20056778192520142,0.057166434824466705,0.08801844716072083,0.3133300244808197,-0.3881750702857971,-0.8666858673095703,0.0008179247379302979,-0.007683664560317993,0.021516799926757812,0.8731150469639795,0.11214944270049078,0.23255011549438634,0.4135374255566683,0.3986505734927237,0.34690639725667816,0.8139078366249507
1781116370320630272,0.4083893299102783,-0.15698541700839996,0.04084978252649307,0.07621292024850845,0.3134177327156067,-0.3868772089481354,-0.8672342896461487,0.0038888156414031982,-0.006296008825302124,0.014664709568023682,0.8729907427412192,0.11136488356436522,0.23233749092217945,0.4141307080981251,0.3972426787125601,0.34679363209081504,0.8154073609953848
1781116370330664448,0.4184234142303467,-0.13271255791187286,0.04933168366551399,0.0761713758111,0.31354331970214844,-0.3858381509780884,-0.8676517009735107,0.0052585601806640625,-0.0001024007797241211,0.002814054489135742,0.872861681976222,0.11071188426620784,0.2322003951224512,0.41465441273813985,0.39611615918136556,0.3467678832444873,0.8167114957412471
1781116370340699392,0.42845845222473145,-0.10574431717395782,0.04780569300055504,0.07213695347309113,0.31366658210754395,-0.3850736618041992,-0.8679467439651489,0.005242109298706055,0.02402019500732422,0.005626797676086426,0.8727141137859767,0.11019739084867464,0.23212747408268425,0.4151426653057129,0.3952876503342449,0.34678484135247095,0.8179025180636299
1781116370350734592,0.4384934902191162,-0.10490089654922485,0.047128982841968536,0.06496533006429672,0.3137987554073334,-0.38440096378326416,-0.8681970834732056,0.005460858345031738,0.020143181085586548,-0.0006840825080871582,0.8725740446205194,0.10973545991926106,0.23207666434124977,0.4155875432732564,0.3945588481873963,0.34682734444662827,0.8189821583125232
1781116370360768256,0.44852733612060547,-0.15526260435581207,0.039842307567596436,0.06887617707252502,0.31390896439552307,-0.3834809362888336,-0.8685640692710876,-0.001347959041595459,0.002484232187271118,0.0007357001304626465,0.8724559198444528,0.10915679445366887,0.23195422665833587,0.4160561114193607,0.3935624415810257,0.3468045072487737,0.8201486133403143
1781116370370803456,0.45856237411499023,-0.23170225322246552,0.03368960693478584,0.06860879808664322,0.31397372484207153,-0.38201960921287537,-0.8691843748092651,-0.0057308971881866455,-0.016005873680114746,0.006589770317077637,0.8723731399887239,0.10831548033536025,0.23167987857266545,0.41660196954914824,0.3919806819160103,0.34664225086237255,0.8215623953448189
1781116370380838400,0.468597412109375,-0.2638796269893646,0.02170325070619583,0.06709052622318268,0.31393569707870483,-0.38004055619239807,-0.8700652718544006,-0.007035672664642334,-0.02595004439353943,0.012261927127838135,0.8723349292914423,0.10723983672471223,0.23122930690168353,0.4172101857073757,0.38984014066623845,0.3462800446129948,0.8231942650232622
1781116370390873344,0.47863245010375977,-0.2731005549430847,0.027688438072800636,0.06365957856178284,0.31390222907066345,-0.3778928220272064,-0.871012270450592,-0.00622403621673584,-0.01946130394935608,0.008844912052154541,0.8723146048530536,0.10608526957445644,0.2307374514868579,0.4178198210318123,0.38751929528386847,0.345898884784973,0.8248478112563716
1781116370400907264,0.488666296005249,-0.2794750928878784,0.03741137310862541,0.06657201051712036,0.31394121050834656,-0.3756786584854126,-0.8719555139541626,-0.004920244216918945,0.003959327936172485,0.014381110668182373,0.872284925810149,0.10488044395740798,0.23026577939328166,0.4184456119162976,0.38512897826351333,0.34559337232919884,0.8265353561657698
1781116370410942208,0.4987013339996338,-0.283126562833786,0.04018612205982208,0.06678000837564468,0.31403547525405884,-0.37341731786727905,-0.872892439365387,-0.0010166764259338379,0.01369139552116394,0.015775740146636963,0.872245903449019,0.10363850625193897,0.22981043893311104,0.41908627703040835,0.38269010275723236,0.34534684323146747,0.8282545160336553
1781116370420977408,0.5087363719940186,-0.27491283416748047,0.03312395140528679,0.06253039836883545,0.3141099512577057,-0.3711889386177063,-0.8738155961036682,0.0003279149532318115,0.0010107159614562988,0.006246626377105713,0.8722097184819011,0.10242143612678346,0.229351347244788,0.4197119546886264,0.38028911896665274,0.34508574681163817,0.8299378748916146
1781116370431012352,0.5187714099884033,-0.2543814480304718,0.02483246475458145,0.06017589569091797,0.31415414810180664,-0.36902979016304016,-0.8747137784957886,0.0020384788513183594,-0.002536982297897339,-0.0016900300979614258,0.8721790112326082,0.10125161180287391,0.22889127492398736,0.4203103167205665,0.37796491360177,0.34480358633886343,0.8315542227277859
1781116370441046272,0.5288052558898926,-0.19034044444561005,0.018065905198454857,0.049382634460926056,0.31410592794418335,-0.3672518730163574,-0.8754790425300598,0.007595151662826538,0.016299724578857422,-0.0057770609855651855,0.8721540461568154,0.10030458324937697,0.2284720424237831,0.42081684597803715,0.37605269301233485,0.34447669946605236,0.832927650692113
1781116370451081216,0.5388402938842773,-0.13495761156082153,0.0182332843542099,0.04295429587364197,0.3141045570373535,-0.36598309874534607,-0.8760107159614563,0.012647151947021484,0.03511151671409607,-0.016735315322875977,0.8721172709448817,0.09961379800957068,0.2281923462353346,0.4212088496483382,0.37468897328949374,0.3442823866013858,0.833973252397476
1781116370461116416,0.5488753318786621,-0.10843304544687271,0.014820711687207222,0.031456898897886276,0.3141140341758728,-0.36506617069244385,-0.8763898015022278,0.012973368167877197,0.04482996463775635,-0.020292937755584717,0.8720783242606808,0.09910665515254041,0.2279977544857842,0.42151432892966506,0.37370388024363266,0.34415455443179443,0.8347782560539541
1781116370471151360,0.5589103698730469,-0.13131439685821533,0.004267002921551466,0.027218744158744812,0.3141031861305237,-0.36411985754966736,-0.8767872452735901,0.01063433289527893,0.030288100242614746,-0.017896533012390137,0.872064322494544,0.09860142589339077,0.2277808879532848,0.42177879063675977,0.3726876218237107,0.34399959142113373,0.8354950937786775
1781116370481185536,0.5689444541931152,-0.14929313957691193,-0.013914665207266808,0.017415381968021393,0.3139849901199341,-0.36293986439704895,-0.8773186802864075,0.0034436285495758057,0.00812724232673645,-0.01010197401046753,0.8720877900771445,0.09801193010876842,0.22745180923125027,0.4220451267321658,0.371420964350678,0.343687819383378,0.836256781576683
1781116370491220224,0.5789792537689209,-0.18133948743343353,-0.016203517094254494,0.01728222332894802,0.3137928545475006,-0.36154958605766296,-0.8779612183570862,-0.0029865801334381104,-0.005607396364212036,-0.004424035549163818,0.8721509664335757,0.09734633298349663,0.22703099935784113,0.42229515250636407,0.369929366774833,0.34326156805488156,0.8370142645520382
1781116370501255168,0.5890142917633057,-0.1653037965297699,-0.0247179102152586,0.011699439026415348,0.3135663568973541,-0.3600379526615143,-0.8786630630493164,-0.005216747522354126,0.008948475122451782,0.009598731994628906,0.8722260505189197,0.09663000054360282,0.22656367324556392,0.42255573663006674,0.36830858946510014,0.3427797649380842,0.837813679680543
1781116370511289344,0.599048376083374,-0.11366935819387436,-0.024967050179839134,0.0015887478366494179,0.31332001090049744,-0.3588317632675171,-0.8792442083358765,-0.0043600499629974365,0.01773679256439209,0.004869818687438965,0.8723102591814027,0.09608343793127944,0.2261545495704507,0.42272558213849526,0.3670160034210821,0.3423219564591535,0.8383718791880835
1781116370521324288,0.6090834140777588,-0.06835806369781494,-0.018908090889453888,-0.0074771856889128685,0.31314414739608765,-0.3580230474472046,-0.8796364068984985,-0.009982526302337646,0.01975095272064209,0.0016762018203735352,0.8723871419853801,0.09573009768895101,0.22587064085819403,0.42279871937168223,0.3661497295891196,0.3420035421413585,0.8386537420031049
1781116370531359488,0.6191184520721436,-0.04586447402834892,-0.014430118724703789,-0.015375055372714996,0.3130267560482025,-0.35749390721321106,-0.8798933625221252,-0.013725638389587402,0.024837076663970947,0.0028182268142700195,0.8724567646809545,0.09550970824013601,0.22567944709693913,0.4228070837508716,0.36558309844092207,0.3417928364369074,0.8387478654228309
1781116370541394432,0.6291534900665283,-0.03520756959915161,-0.024755727499723434,-0.015745768323540688,0.3129003345966339,-0.357073575258255,-0.8801090121269226,-0.013065129518508911,0.018603116273880005,0.0035220980644226074,0.8725343938217673,0.09535229496252255,0.22550708043877857,0.42277443828868894,0.3651330455153298,0.3415879523985465,0.8387366245756059
1781116370551428352,0.6391873359680176,-0.02719678170979023,-0.034754831343889236,-0.01858150213956833,0.31269600987434387,-0.35675379633903503,-0.8803113102912903,-0.01003795862197876,0.003802746534347534,0.0011761784553527832,0.8726198331660089,0.09526519670319367,0.225319551271593,0.42271785062961886,0.36479071968240534,0.3413093383161815,0.8386686992198065
1781116370561463296,0.6492223739624023,-0.03453671932220459,-0.03880070522427559,-0.022176235914230347,0.31244364380836487,-0.35640162229537964,-0.8805434703826904,-0.008885294198989868,-0.0037973523139953613,0.00507044792175293,0.8727187721916956,0.09517667728358947,0.22509921234738733,0.4226506779546434,0.36441376303420137,0.34097161696853634,0.8385859627336458
1781116370571498496,0.6592574119567871,-0.037504278123378754,-0.03786846622824669,-0.02323218062520027,0.31217673420906067,-0.35600948333740234,-0.8807967305183411,-0.011441290378570557,-0.0037622153759002686,0.00887906551361084,0.8728318290040338,0.09507715951782116,0.22485986866580118,0.42256707878943967,0.3639941201158387,0.3406118230659401,0.8384719359128904
1781116370581533440,0.6692924499511719,-0.05602363497018814,-0.030258750542998314,-0.02039964124560356,0.3119497001171112,-0.35554376244544983,-0.881065309047699,-0.016875237226486206,-0.007279723882675171,0.0109328031539917,0.8729380052368103,0.0949285411760379,0.22462397728284408,0.4225067599103202,0.36349577667916866,0.3402868939078615,0.8384145978809837
1781116370591567360,0.6793262958526611,-0.08252448588609695,-0.025343485176563263,-0.017101317644119263,0.3117660880088806,-0.35488203167915344,-0.881397008895874,-0.015959203243255615,-0.01532667875289917,0.012897253036499023,0.8730398790687208,0.0946676256563978,0.22436477166511604,0.4224923822003009,0.36278789036247217,0.3399833302527688,0.8384791262094361
1781116370601602304,0.6893613338470459,-0.10638374835252762,-0.0284053236246109,-0.0023729705717414618,0.3115755021572113,-0.3539853096008301,-0.8818248510360718,-0.012152284383773804,-0.019610852003097534,0.011890828609466553,0.8731331642877187,0.09428041589881472,0.22405081777014108,0.42255279683681196,0.3618289109357772,0.33963863997268895,0.8387422710442738
1781116370611637248,0.6993963718414307,-0.11566699296236038,-0.022925470024347305,-0.0015918654389679432,0.31135156750679016,-0.3530060946941376,-0.8822963833808899,-0.002635747194290161,-0.016256600618362427,0.007601559162139893,0.8732180999202818,0.09385168193364761,0.22370445262720368,0.42265613941043817,0.3607821053556666,0.3392451031039076,0.839116808085856
1781116370621672448,0.7094314098358154,-0.1298145055770874,-0.017576776444911957,0.003377859480679035,0.31120002269744873,-0.3518836498260498,-0.8827980756759644,0.00828850269317627,-0.001433640718460083,0.0072640180587768555,0.8732956374068409,0.09333198633582702,0.22336091493874696,0.4227928654189314,0.35958268143758465,0.3389140607479817,0.8395748961947437
1781116370631706112,0.7194652557373047,-0.1116538718342781,-0.016504188999533653,-0.0009010414942167699,0.31104376912117004,-0.35084688663482666,-0.8832656741142273,0.017645806074142456,0.00935518741607666,0.002726733684539795,0.8733678676484892,0.09285559074617313,0.22303588683901648,0.4229200664738247,0.3584753216579424,0.3385906788493715,0.8400017094054355
1781116370641741312,0.7295002937316895,-0.10108458995819092,-0.012385610491037369,0.000145847094245255,0.3109188675880432,-0.349854052066803,-0.883703351020813,0.016366928815841675,0.0026403069496154785,-0.0010927915573120117,0.8734375980056924,0.092395782301854,0.22273606380440145,0.4230346866190844,0.35741531652997655,0.33830973684831483,0.8403907362597092
1781116370651776256,0.7395353317260742,-0.07832121849060059,0.00014869077131152153,0.003721407148987055,0.3108479678630829,-0.34907859563827515,-0.8840348720550537,0.010929375886917114,0.0061983466148376465,0.002061605453491211,0.8734803998512088,0.09202612697066115,0.222516870876063,0.42314220553302057,0.3565876653699939,0.3381209549138509,0.8407324681201618
1781116370661811456,0.749570369720459,-0.0746319368481636,0.00693948520347476,0.01050527673214674,0.3108532130718231,-0.3484216332435608,-0.8842921853065491,0.00836065411567688,0.009447634220123291,0.008147776126861572,0.8734969867752148,0.09169145641585892,0.2223658985941325,0.4232600411640385,0.3558866796712923,0.3380351843504474,0.8410754088588986
1781116370671845120,0.7596042156219482,-0.05669049173593521,0.006984226405620575,0.018445491790771484,0.3108513355255127,-0.34790515899658203,-0.8844961524009705,0.010346174240112305,0.012272834777832031,0.010945737361907959,0.8734882841711488,0.09141809438259552,0.2222490720681161,0.4233985992146335,0.3553357499389751,0.33796112210012363,0.8414508714916538
1781116370681880320,0.769639253616333,-0.06787310540676117,0.019137561321258545,0.021762724965810776,0.3109000325202942,-0.3474138677120209,-0.8846721649169922,0.006375998258590698,0.001680225133895874,0.015516281127929688,0.873460950447715,0.0911394545005821,0.2221655478705153,0.42355881947686475,0.3548117674310681,0.3379478832490677,0.8418670699683161
1781116370691915264,0.7796742916107178,-0.09013020992279053,0.027394026517868042,0.031921885907649994,0.31100693345069885,-0.34680452942848206,-0.884873628616333,0.0031715333461761475,-0.002362370491027832,0.019364595413208008,0.8734138200323047,0.09077898753544063,0.22208638841290632,0.42377489748835007,0.3541620234631448,0.3379841950379927,0.8424176153677785
1781116370701949184,0.789708137512207,-0.13927724957466125,0.03116719424724579,0.04120832681655884,0.31116610765457153,-0.3458753228187561,-0.8851813077926636,0.0011965632438659668,-0.011439740657806396,0.016925692558288574,0.8733581188846564,0.09023880542523004,0.22196016821654363,0.4240709834504702,0.35317152327707785,0.3380355239345766,0.8431811921572877
1781116370711984128,0.7997431755065918,-0.1696101278066635,0.03844854235649109,0.04439293593168259,0.31131047010421753,-0.34468740224838257,-0.8855937719345093,-0.002808302640914917,-0.019402533769607544,0.018253743648529053,0.8732941535030408,0.08956282316717429,0.22176925337966497,0.424445756930625,0.35190577522424643,0.33803486243014136,0.8441559393731911
1781116370722019072,0.8097782135009766,-0.20885713398456573,0.042984168976545334,0.059736739844083786,0.31147560477256775,-0.34313851594924927,-0.886137068271637,-0.004300892353057861,-0.024827182292938232,0.013792097568511963,0.8732244967127174,0.0886935512579868,0.22150601684874777,0.42490889929663406,0.3502562590270296,0.3380089089723734,0.8453713883434629
1781116370732054272,0.8198132514953613,-0.18574514985084534,0.03319492191076279,0.06298819929361343,0.31158068776130676,-0.3415493071079254,-0.8867139220237732,-0.0032463371753692627,-0.022174447774887085,0.011835992336273193,0.8731385557440186,0.08780653232975609,0.2212081809509539,0.42542451469981285,0.3485648389986103,0.3379108637244383,0.8467185623220944
1781116370742088192,0.8298473358154297,-0.15511320531368256,0.040171340107917786,0.06469235569238663,0.31166940927505493,-0.34025049209594727,-0.8871819376945496,0.0006932616233825684,-0.015935420989990234,0.0031182169914245605,0.8730386286851004,0.08706657348321414,0.22097159001209635,0.4259043906994362,0.34718328410619587,0.33783486848380184,0.8479533352859903
1781116370752123136,0.8398821353912354,-0.11512557417154312,0.039985716342926025,0.0686040073633194,0.3118276596069336,-0.3392046093940735,-0.8875267505645752,0.005311012268066406,0.009797871112823486,0.005645036697387695,0.8729105742288592,0.08643141819646348,0.22083076682597239,0.4263690380473571,0.3460712403732259,0.33787210405704426,0.849117268720009
1781116370762158080,0.8499171733856201,-0.06537958979606628,0.03886213153600693,0.0620528906583786,0.3119717836380005,-0.33863580226898193,-0.8876932859420776,0.009271502494812012,0.022015929222106934,0.0038584470748901367,0.8727628502282438,0.08603564806088813,0.22079677271719048,0.42676884111405605,0.3454666576580626,0.3379579346353654,0.8500809979686577
1781116370772193280,0.8599522113800049,-0.044020768254995346,0.04337325692176819,0.06544256210327148,0.3121252954006195,-0.3383527994155884,-0.8877472281455994,0.008507579565048218,0.014469772577285767,-0.0021147727966308594,0.8726037863164218,0.08578015653388361,0.22083510236431428,0.4271254976144672,0.3451658869611206,0.3380928584161374,0.8509130222090148
1781116370782227200,0.8699862957000732,-0.040159452706575394,0.042148735374212265,0.06855526566505432,0.3122721016407013,-0.3381989002227783,-0.8877542614936829,0.005476921796798706,0.01350712776184082,-0.0008413195610046387,0.8724281914252784,0.08558400068876473,0.2209032380511766,0.42748829123858595,0.34500234641329486,0.33823754061588607,0.8517456621414616
1781116370792262400,0.880021333694458,-0.05776640772819519,0.04177483171224594,0.06857657432556152,0.31240564584732056,-0.3379836976528168,-0.887789249420166,0.0018948912620544434,0.009111016988754272,-0.0012030601501464844,0.8722553109372471,0.08536002715023316,0.22095031707952065,0.4278614206203937,0.3447737041826877,0.33835906340506533,0.8526104991612349
1781116370802297088,0.8900561332702637,-0.08496473729610443,0.04001608118414879,0.07288184016942978,0.3125280439853668,-0.3375927209854126,-0.8878949284553528,0.005297273397445679,0.00385245680809021,0.0010693669319152832,0.8720859545701026,0.08504926292387391,0.22095059264353448,0.4282680885799188,0.3443582911917044,0.3384444569517818,0.8535733039698865
1781116370812332032,0.9000911712646484,-0.11816157400608063,0.03990768641233444,0.07500970363616943,0.31263312697410583,-0.33692440390586853,-0.8881117105484009,0.008030295372009277,-9.644031524658203e-05,0.0023848414421081543,0.8719236068793466,0.08460238216746095,0.22087682219247387,0.4287248965491343,0.3436484029404276,0.33847328310280106,0.8546842618831649
1781116370822366208,0.9101252555847168,-0.14983002841472626,0.03941287100315094,0.07647711038589478,0.3127290904521942,-0.33596184849739075,-0.8884425759315491,0.007522374391555786,-0.001104801893234253,0.0032802224159240723,0.8717723772893857,0.08401156892063692,0.2207278348805386,0.4292252445885895,0.3426262494370863,0.33845274600535835,0.855929307952133
1781116370832401152,0.9201602935791016,-0.16173675656318665,0.04357112944126129,0.07671652734279633,0.31284475326538086,-0.33479949831962585,-0.8888404965400696,0.00835275650024414,-0.0003598332405090332,0.0044716596603393555,0.8716268567864162,0.08331803422218666,0.22053988859037454,0.4297522223576701,0.34139242866589403,0.3384283102036561,0.8572558004065667
1781116370842436352,0.9301953315734863,-0.15703973174095154,0.043298423290252686,0.07947023212909698,0.31299328804016113,-0.33356916904449463,-0.8892506957054138,0.007426023483276367,0.002834916114807129,0.006255090236663818,0.8714755753292349,0.08258151377041446,0.22035184016525416,0.4302973382225655,0.34008705781728643,0.3384324597727955,0.8586282727418052
1781116370852471040,0.940230131149292,-0.09593003988265991,0.04619687423110008,0.07452154904603958,0.3131292164325714,-0.3326949179172516,-0.8895303010940552,0.007580012083053589,0.012763887643814087,0.0010873079299926758,0.871309198785071,0.08202317639960623,0.22024315127152105,0.4307961972558537,0.33915985116055297,0.3384700026766239,0.8598563737378638
1781116370862505216,0.9502642154693604,-0.040097933262586594,0.05195782706141472,0.07549573481082916,0.31332477927207947,-0.33230090141296387,-0.8896087408065796,0.005721241235733032,0.021677732467651367,-0.00370180606842041,0.8711236597032994,0.08169115342704641,0.22027753666862238,0.4312166832859905,0.33874205026086224,0.3386379629740908,0.8608449937869265
1781116370872540160,0.9602992534637451,0.018014106899499893,0.058064986020326614,0.06982453167438507,0.3135792911052704,-0.3324297070503235,-0.8894709348678589,0.007984429597854614,0.037370502948760986,-0.004007458686828613,0.8709126159604965,0.08160378030759004,0.2204662381297196,0.43156306158956825,0.33887861630164406,0.33894105404752584,0.8615991634520751
1781116370882575360,0.9703342914581299,0.034812528640031815,0.061017367988824844,0.06723859906196594,0.3138848841190338,-0.3328861594200134,-0.8891923427581787,0.006320744752883911,0.033173054456710815,-0.004362285137176514,0.8706857935190839,0.08166724773421352,0.2207584081510383,0.43185930335590167,0.3393626603316531,0.33934491207763007,0.8621963155514236
1781116370892609024,0.9803681373596191,0.022547606378793716,0.05230896547436714,0.0611514113843441,0.3141758143901825,-0.3333722949028015,-0.8889074325561523,0.004458189010620117,0.0180494487285614,-0.0008324980735778809,0.8704733083830887,0.0817558166651563,0.22104808585989977,0.43212270721490226,0.339878247569084,0.33973648901857817,0.8627163476570623
1781116370902644224,0.9904031753540039,-0.006451822351664305,0.047813281416893005,0.05836281552910805,0.31442275643348694,-0.33364641666412354,-0.8887172937393188,0.0003813505172729492,0.0005317926406860352,0.0022579431533813477,0.8702844554421278,0.08175558029026053,0.22126316572381327,0.432392768884528,0.34016899383398996,0.34005067327554456,0.86328004774181
1781116370912679168,1.0004382133483887,-0.03970218449831009,0.04117988049983978,0.05349721759557724,0.314626008272171,-0.3336082398891449,-0.888659656047821,-0.0052693188190460205,-0.010919928550720215,0.007846057415008545,0.8701220628949914,0.08161640657409291,0.221379624892184,0.43268611659548484,0.3401285202849803,0.34027434282490565,0.8639370387135302
1781116370922714112,1.0104732513427734,-0.07241565734148026,0.03876598924398422,0.05072992667555809,0.3148159384727478,-0.3332726061344147,-0.88871830701828,-0.010357320308685303,-0.009546607732772827,0.01553410291671753,0.8699854139296473,0.08134016237388418,0.22141501993501558,0.4329947532134641,0.3397724858582145,0.3404434639336452,0.8646641393673667
1781116370932748288,1.0205073356628418,-0.09579688310623169,0.036405764520168304,0.04687313735485077,0.3149949610233307,-0.33267709612846375,-0.8888780474662781,-0.010948330163955688,-0.009394437074661255,0.0210801362991333,0.8698695440753369,0.08094334058852194,0.221380139847767,0.4333198457264855,0.33914096468127086,0.34056586394798194,0.8654596059861498
1781116370942783232,1.0305421352386475,-0.10437678545713425,0.03439987078309059,0.04163336753845215,0.3151557147502899,-0.3319218158721924,-0.889103353023529,-0.012192457914352417,-0.00964614748954773,0.022160053253173828,0.8697726667289454,0.08047792853741005,0.22129532834605498,0.4336440497237063,0.33834015809815327,0.34064667999872184,0.8662729547561846
1781116370952818176,1.0405771732330322,-0.11563210189342499,0.034310922026634216,0.03919124975800514,0.3153283894062042,-0.3310745358467102,-0.8893579840660095,-0.014318257570266724,-0.008540332317352295,0.01959174871444702,0.8696917404004195,0.07997165662048063,0.22119117243698283,0.43395301166612693,0.3374420975521839,0.3407290098530675,0.8670605788918794
1781116370962853120,1.050612211227417,-0.12025827914476395,0.02451155334711075,0.034322723746299744,0.3154686391353607,-0.3301296830177307,-0.8896594047546387,-0.009606271982192993,-0.003961473703384399,0.014659464359283447,0.8696262239234941,0.07942952619554981,0.2210457882849393,0.4342577571425663,0.33644096932216105,0.34076235207147976,0.8678529880719325
1781116370972887296,1.0606462955474854,-0.11777914315462112,0.01703060232102871,0.032407913357019424,0.3155492842197418,-0.32916566729545593,-0.8899880051612854,-0.008252531290054321,-0.0038879215717315674,0.0078468918800354,0.8695761277229143,0.07889650482223202,0.2208649900207354,0.4345474292686178,0.3354198606031448,0.34072655439518307,0.8686192682901392
1781116370982922240,1.0706813335418701,-0.10653181374073029,0.010142335668206215,0.02528502233326435,0.3155641257762909,-0.32827067375183105,-0.8903132677078247,-0.008389443159103394,-0.004477769136428833,2.396106719970703e-05,0.8695407599259586,0.07841864454634999,0.2206669290071807,0.4348051755543815,0.33447219662483935,0.34062627041627824,0.8693110074272582
1781116370992957184,1.0807161331176758,-0.09989495575428009,0.00888039730489254,0.02226632833480835,0.3155757188796997,-0.3274308741092682,-0.8906183242797852,-0.007805943489074707,-0.0008924901485443115,-0.00018978118896484375,0.869520354835177,0.07797745790377812,0.22047755760178803,0.4350213551060521,0.3335832694970097,0.340529991457312,0.8699012930530942
1781116371002992128,1.0907511711120605,-0.07566604763269424,0.0028635174967348576,0.0205288827419281,0.3155490756034851,-0.3267093300819397,-0.8908926844596863,-0.009793490171432495,0.0032840073108673096,0.0013816356658935547,0.8695009431988947,0.07760431182764455,0.2202980117397912,0.4352179032529152,0.33281973164666645,0.34040645716688234,0.8704370167395427
1781116371013026304,1.100785255432129,-0.07727459818124771,0.009593458846211433,0.018867336213588715,0.31554555892944336,-0.32610586285591125,-0.8911150097846985,-0.01337575912475586,0.002054959535598755,0.0032060742378234863,0.8694811426739515,0.07728726179608797,0.220157146599032,0.43538496958050527,0.3321813005692289,0.34032441807622327,0.8708892590713533
1781116371023061248,1.1108202934265137,-0.05943834036588669,0.009954316541552544,0.01757117547094822,0.3155495524406433,-0.3255482614040375,-0.8913174867630005,-0.013562828302383423,0.005037397146224976,0.010961651802062988,0.8694583407541739,0.07699081146412032,0.22003109098659143,0.4355467500269404,0.331591516685661,0.3402569255965543,0.8713235043301916
1781116371033096192,1.1208553314208984,-0.05774430185556412,0.015246683731675148,0.012400914914906025,0.3156125247478485,-0.3250836431980133,-0.8914647102355957,-0.01483127474784851,0.0019787847995758057,0.010056018829345703,0.8694320990714424,0.07672939299522881,0.21995507724171182,0.43568363998846876,0.33110018302176636,0.3402677443134359,0.8716842206004881
1781116371043131136,1.130890130996704,-0.06781823933124542,0.020513352006673813,0.016543196514248848,0.3157539963722229,-0.32455405592918396,-0.8916075825691223,-0.0130959153175354,0.00846824049949646,0.011434853076934814,0.8694017190087043,0.07641857960655289,0.21990089719837264,0.43582626042092354,0.33054022871768535,0.34035831943684997,0.8720577199542227
1781116371053165312,1.1409242153167725,-0.07564793527126312,0.029977159574627876,0.011615549214184284,0.3159134089946747,-0.3239889442920685,-0.8917566537857056,-0.00553441047668457,0.009963065385818481,0.012072205543518066,0.869371737584058,0.07608672463326954,0.21984652220578269,0.435971549522366,0.32994284190701556,0.3404645746321055,0.8724396769627912
1781116371063200256,1.1509592533111572,-0.0916530042886734,0.02772119641304016,0.014900824055075645,0.31615233421325684,-0.32323920726776123,-0.8919439911842346,-6.651878356933594e-05,0.00806891918182373,0.010733723640441895,0.8693446853214996,0.07564801625570805,0.21978482087497753,0.4361329548322095,0.3291504576116055,0.3406364479710726,0.8728718249449079
1781116371073235200,1.160994291305542,-0.07791455090045929,0.03504076227545738,0.010586237534880638,0.3163921535015106,-0.3225351870059967,-0.8921138048171997,0.0013110935688018799,0.008539855480194092,0.006859958171844482,0.8693092837149394,0.07522840075381723,0.21973569020875863,0.43630072580286233,0.32840658182041854,0.34081529016337353,0.8733135977313013
1781116371083270400,1.1710293292999268,-0.07913774251937866,0.04158841073513031,0.017430560663342476,0.3167162835597992,-0.32184386253356934,-0.8922484517097473,0.005228906869888306,0.009557485580444336,0.0029509663581848145,0.86926435873864,0.07479516887970965,0.21973038850315663,0.4364674525958288,0.3276763400828273,0.34109041539886004,0.8737437036647344
1781116371093304064,1.181063175201416,-0.03881268948316574,0.04577130079269409,0.010004869662225246,0.3170676529407501,-0.3213747441768646,-0.8922927379608154,0.00989764928817749,0.02343165874481201,0.004139721393585205,0.8692032391855834,0.0744619041070827,0.21979319795232988,0.4366142676352798,0.32718089206073997,0.34142446644593705,0.8741005250182874
1781116371103339264,1.1910982131958008,-0.02959735505282879,0.05249418690800667,0.012463766150176525,0.3174985647201538,-0.3210909962654114,-0.8922416567802429,0.011892884969711304,0.021850883960723877,-0.0004127621650695801,0.8691373928550864,0.07420586807176699,0.21993782322902336,0.4367161680504829,0.3268812589321915,0.34187125798352613,0.8743257888551722
1781116371113374208,1.2011332511901855,0.0038764490745961666,0.051931463181972504,0.015533591620624065,0.3179336190223694,-0.32103195786476135,-0.8921080231666565,0.010542303323745728,0.02292102575302124,-0.002362191677093506,0.8690525181619002,0.0740536770201341,0.2201409907665152,0.43680846078522806,0.32681892643850036,0.3423513658846329,0.8745032470752716
1781116371123408384,1.211167335510254,0.0005967661854811013,0.057831428945064545,0.020987212657928467,0.3183784484863281,-0.32109758257865906,-0.8919256925582886,0.011470764875411987,0.015357255935668945,-0.00674062967300415,0.8689523525617865,0.07395527431535115,0.22038094046503617,0.4369034180670457,0.3268882230754602,0.34285842284190454,0.8746718787305591
1781116371133443072,1.2212021350860596,-0.0012895507970824838,0.04708850011229515,0.0223371684551239,0.31876641511917114,-0.32118380069732666,-0.8917561173439026,0.012639224529266357,0.01152193546295166,-0.007276475429534912,0.8688461685875357,0.07387463415888261,0.2206003017113402,0.43701756541377595,0.32697925249047366,0.34330447929658675,0.8748878216533393
1781116371143478272,1.2312371730804443,-0.006306413561105728,0.042181093245744705,0.023921484127640724,0.3190845847129822,-0.3212459981441498,-0.891619861125946,0.018561869859695435,0.006533503532409668,-0.00796198844909668,0.8687453626076832,0.07379725926266395,0.22078048832343816,0.4371399838212299,0.32704494629264386,0.3436692538890539,0.8751322057262928
1781116371153513216,1.241272211074829,-0.011434064246714115,0.0350121334195137,0.02780810184776783,0.3193415105342865,-0.32124316692352295,-0.8915289640426636,0.017587780952453613,0.004363894462585449,-0.005016446113586426,0.8686489104245665,0.0737001120102625,0.22091587368060817,0.43727983198419906,0.3270419310119612,0.34395706152405625,0.8754301059951888
1781116371163547392,1.2513062953948975,-0.018994776532053947,0.03529895469546318,0.03131894767284393,0.3195720613002777,-0.32119786739349365,-0.8914626240730286,0.01403084397315979,0.004120230674743652,-0.0029312968254089355,0.8685494407954296,0.07358473830074753,0.2210293240062447,0.43743947935905675,0.32699411201046075,0.3442098391455362,0.8757809487984051
1781116371173582336,1.2613413333892822,-0.02353626675903797,0.02712065353989601,0.0323256216943264,0.31977197527885437,-0.321094274520874,-0.8914282917976379,0.01390722393989563,0.0029790401458740234,-0.0006005167961120605,0.8684498271508262,0.07344525909895577,0.22111458485514876,0.4376175004991935,0.3268847148029261,0.3444208173332686,0.8761837342030756
1781116371183617024,1.271376132965088,-0.009913398884236813,0.021623622626066208,0.028558846563100815,0.3198944628238678,-0.3210722804069519,-0.8913922309875488,0.017965644598007202,-0.0010254979133605957,-0.0003008842468261719,0.8683569524995675,0.07336476103778466,0.22118202146901111,0.43778122482300263,0.3268614891582841,0.3445553886056081,0.8765517156173733
1781116371193652224,1.2814111709594727,-0.013482567854225636,0.014047462493181229,0.027885865420103073,0.3199727237224579,-0.3210509419441223,-0.8913718461990356,0.014683008193969727,-0.00020760297775268555,-0.0028542280197143555,0.8682793705499343,0.07330045395544721,0.22122642483677366,0.43792325835438695,0.326838960950762,0.3446404634576065,0.8768738341072575
1781116371203686144,1.291445255279541,-0.005711729638278484,0.006662782747298479,0.0285244919359684,0.31997787952423096,-0.32105791568756104,-0.891367495059967,0.00829973816871643,0.006650567054748535,0.001398622989654541,0.8682091064727182,0.073267563320958,0.22124224179232382,0.43806003791081033,0.32684631357576904,0.3446471259141,0.8771876157121087
1781116371213721344,1.3014802932739258,-0.012464974075555801,0.003449545707553625,0.025865858420729637,0.31993526220321655,-0.3210771381855011,-0.8913758397102356,0.004603922367095947,0.001680135726928711,0.002536177635192871,0.8681468775177461,0.07325362874924658,0.22123736468343233,0.43818843619825265,0.3268666152480849,0.34460178656891105,0.8774853355727936
1781116371223756288,1.3115153312683105,-0.021612398326396942,0.0015304717235267162,0.0312342569231987,0.319865882396698,-0.3210248053073883,-0.8914195895195007,-4.166364669799805e-05,-0.005162328481674194,0.007401645183563232,0.8680854498871273,0.07320878878764568,0.22120278189872025,0.43833499434852047,0.3268113719310208,0.3445172313114241,0.8778355029430709
1781116371233791232,1.3215501308441162,-0.042316876351833344,0.006761586293578148,0.03183160349726677,0.31979432702064514,-0.3208462595939636,-0.8915095329284668,-0.005127549171447754,-0.011444389820098877,0.009704113006591797,0.8680215532336224,0.07309905481957188,0.22113739443111796,0.4385127515004007,0.32662283426949834,0.3444140274385813,0.8782721901284847
1781116371243825152,1.3315842151641846,-0.046421341598033905,0.0177798829972744,0.031131725758314133,0.3197982609272003,-0.32052773237228394,-0.8916227221488953,-0.009541302919387817,-0.011884987354278564,0.011816203594207764,0.8679596177874654,0.0729054871248764,0.22107337517644812,0.4386998276543459,0.32628657043380777,0.34437763357156825,0.87873921693337
1781116371253860352,1.3416192531585693,-0.04849701002240181,0.014935893006622791,0.02774818055331707,0.31990012526512146,-0.3202008903026581,-0.8917036056518555,-0.00472983717918396,-0.008824378252029419,0.011408805847167969,0.8678905403992668,0.07268618972885281,0.2210541011376489,0.43888258088830884,0.32594154692062305,0.34444999771186335,0.8791880604811131
1781116371263895296,1.351654291152954,-0.029944896697998047,0.017693862318992615,0.02346981130540371,0.32001668214797974,-0.31993019580841064,-0.891758918762207,-0.005899250507354736,-0.0027016103267669678,0.008076727390289307,0.8678279968702303,0.07249604450141735,0.22105396949530615,0.43903756200330646,0.32565579930593164,0.34454607033568696,0.8795651192694063
1781116371273930240,1.3616893291473389,-0.018791578710079193,0.030319377779960632,0.02474093809723854,0.32017776370048523,-0.31979119777679443,-0.8917509913444519,-0.009691953659057617,0.0033849775791168213,0.006268203258514404,0.8677539290108479,0.0723586684654227,0.22110798673447074,0.43917946379149125,0.3255091194034584,0.34470893941625724,0.8798929713691581
1781116371283964160,1.3717231750488281,-0.013605073094367981,0.0249381922185421,0.024065561592578888,0.32038599252700806,-0.3197186589241028,-0.8917021751403809,-0.011883795261383057,0.013993561267852783,0.004220485687255859,0.8676741073885439,0.07224338771749685,0.22120079444188726,0.43930953562361347,0.3254325586352574,0.3449331557182437,0.8801816526897951
1781116371293999104,1.381758213043213,-0.019811568781733513,0.030350536108016968,0.03002544865012169,0.3205801248550415,-0.319660484790802,-0.891653299331665,-0.008537888526916504,0.013202965259552002,0.005422830581665039,0.86758705690857,0.07213436746230842,0.2212916384365909,0.4394535643859505,0.3253711513439471,0.34514342063092446,0.8805021856701251
1781116371304034304,1.3917932510375977,-0.025705143809318542,0.02874145284295082,0.030925065279006958,0.32074278593063354,-0.3196006715297699,-0.8916162252426147,-0.008334338665008545,0.0056663453578948975,0.006606459617614746,0.8674878531567337,0.0720241846472527,0.2213693890631943,0.43962823163013626,0.32530803123958607,0.34531820485377046,0.8808965278323436
1781116371314069248,1.4018282890319824,-0.061225321143865585,0.034630633890628815,0.028096521273255348,0.320917010307312,-0.3193690776824951,-0.8916365504264832,-0.008676409721374512,-0.0018131732940673828,0.006657302379608154,0.8673985624272943,0.07182979196856229,0.22140961791954164,0.4398159166981372,0.32506360942428114,0.34548394227172535,0.8813395735660348
1781116371324103168,1.4118621349334717,-0.07680507749319077,0.031124316155910492,0.024991009384393692,0.32108908891677856,-0.31890374422073364,-0.8917410969734192,-0.0070632100105285645,-0.0030261874198913574,0.01185828447341919,0.8673187729580317,0.07152220194205382,0.22139109041134108,0.44003274309447066,0.3245726249965002,0.3456174005819857,0.8818769224308014
1781116371334138112,1.4218971729278564,-0.08307123184204102,0.029352249577641487,0.025890091434121132,0.3212689161300659,-0.3182949125766754,-0.8918938636779785,-0.002772212028503418,-0.006610482931137085,0.009661197662353516,0.86725654179282,0.0711494372671313,0.22133871138510977,0.44024216895433127,0.32393029704069726,0.3457413124729339,0.8824130831475926
1781116371344173312,1.4319322109222412,-0.08049116283655167,0.03279384970664978,0.022071918472647667,0.3214625418186188,-0.3176459074020386,-0.8920554518699646,-0.005727708339691162,-0.0033227205276489258,0.0098685622215271,0.8672000840737455,0.07075692305556908,0.22128203365561638,0.4404449065855415,0.32324578103380663,0.34587567527460106,0.8829372625296037
1781116371354208256,1.441967248916626,-0.07128967344760895,0.03199903294444084,0.015968220308423042,0.32168978452682495,-0.31703001260757446,-0.8921926021575928,-0.0013315081596374512,0.004987776279449463,0.009654760360717773,0.8671485936591837,0.07037751055512825,0.22124803652291114,0.4406242570382311,0.32259632581301817,0.34605203439579285,0.8834009391618015
1781116371364242432,1.4520013332366943,-0.06453323364257812,0.02909592166543007,0.012784676626324654,0.32190805673599243,-0.31646353006362915,-0.8923149704933167,0.0010594725608825684,0.01153188943862915,0.009044766426086426,0.867106801025849,0.0700297635554607,0.22122009946315097,0.4407758950811277,0.3219990956760801,0.3462247343979825,0.8837959846565892
1781116371374277120,1.4620361328125,-0.05391627550125122,0.024539118632674217,0.011033382266759872,0.32210686802864075,-0.3159450888633728,-0.8924269676208496,0.004187077283859253,0.007610738277435303,0.006303310394287109,0.8670698502008217,0.06971245382582011,0.22119380959640936,0.44091187152587985,0.3214525992468813,0.34638182163779374,0.8841512563519958
1781116371384312064,1.4720711708068848,-0.030219202861189842,0.01878402754664421,0.003691846039146185,0.3222658038139343,-0.3155839443206787,-0.8924973607063293,0.002868473529815674,0.002061605453491211,0.0034745335578918457,0.8670455257159062,0.06948836983713728,0.22118475026983736,0.44099965901406313,0.3210719991225498,0.34651417672507284,0.8843810540912528
1781116371394347264,1.4821062088012695,-0.012827429920434952,0.013988073915243149,0.003531523747369647,0.3224112093448639,-0.31539931893348694,-0.8925101161003113,0.004508346319198608,0.0051423609256744385,0.004097640514373779,0.8670276131862314,0.06935920424901623,0.22121087283771723,0.4410421131544693,0.32087741439434164,0.3466537338077445,0.8844872189070245
1781116371404381184,1.492140293121338,0.00398830184713006,0.010115837678313255,-0.00017106905579566956,0.322535902261734,-0.3153502345085144,-0.8924823999404907,0.005161851644515991,0.015057265758514404,0.005427956581115723,0.8670103964538111,0.06930273317759723,0.2212598880384549,0.44106017551806626,0.32082569311138964,0.3467872296803954,0.8845233491641012
1781116371414416384,1.5021753311157227,-0.0021542790345847607,0.011113324202597141,0.0007905983948148787,0.3226486146450043,-0.31537890434265137,-0.8924314975738525,0.0008529722690582275,0.008280515670776367,0.002920389175415039,0.8669950565998215,0.06928868432957895,0.2213217615187638,0.44106149720127336,0.3208559133728834,0.34691715085578884,0.8845129962031256
1781116371424451072,1.5122101306915283,-0.024709122255444527,0.005082862451672554,0.00504393270239234,0.3227194845676422,-0.315280020236969,-0.8924407958984375,0.0002022385597229004,-0.0009430944919586182,0.0036774277687072754,0.8669817408693247,0.06921893729849657,0.2213330697247181,0.4410929237208224,0.3207516992233783,0.34698406375489893,0.8845905566364671
1781116371434486272,1.522245168685913,-0.06225995719432831,0.0056870002299547195,0.004152040462940931,0.32274648547172546,-0.3149257004261017,-0.8925561308860779,0.0014722645282745361,-0.008652150630950928,0.0033044815063476562,0.8669816892839253,0.06903495941024948,0.22126025205707905,0.44115835759379046,0.3203783804934048,0.34696947668488504,0.8847799957668122
1781116371444520192,1.5322792530059814,-0.08541934192180634,-0.0071180108934640884,0.008960377424955368,0.3227030336856842,-0.3142504394054413,-0.8928098082542419,0.005772918462753296,-0.009205371141433716,0.007281303405761719,0.8669947681954842,0.06870856000132086,0.2210751355117818,0.44127650441438027,0.3196670024640038,0.3468355661003752,0.8851344101609945
1781116371454555392,1.5423142910003662,-0.08579058200120926,-0.01350134052336216,0.0034915762953460217,0.3226071000099182,-0.3134993612766266,-0.8931084871292114,0.008630692958831787,-0.009300291538238525,0.004451930522918701,0.8670221237698728,0.06836094253983525,0.2208450209030245,0.4413920279542839,0.3188759377884466,0.3466336333466477,0.8854961025123237
1781116371464590336,1.552349328994751,-0.04399626702070236,-0.008592335507273674,-0.0015356726944446564,0.32249486446380615,-0.3129200339317322,-0.893352210521698,0.004348397254943848,0.0004963278770446777,0.002772986888885498,0.8670568382773287,0.06810682815267677,0.22064759072003756,0.441462002632924,0.3182659183004389,0.3464353252462304,0.8857342781493357
1781116371474625280,1.5623843669891357,-0.009666523896157742,-0.003618749789893627,-0.004834264051169157,0.322444885969162,-0.3126746714115143,-0.8934561014175415,0.003955841064453125,0.01900404691696167,0.004357039928436279,0.8670841049516717,0.06800604822901211,0.22056091656177032,0.4414670052857571,0.3180075796762776,0.34634869120311135,0.8857784064997501
1781116371484659200,1.572418212890625,0.015239357948303223,-0.0019247131422162056,-0.0034875033888965845,0.3224441707134247,-0.3127072751522064,-0.8934449553489685,0.0031478703022003174,0.03081643581390381,0.003003060817718506,0.8670937185195206,0.06802742712994513,0.22056697471113143,0.44144183149350197,0.3180419286218147,0.3463519825623439,0.8857166510939721
1781116371494694144,1.5824532508850098,0.005456236191093922,-0.001013113185763359,-0.00150584545917809,0.32245108485221863,-0.31280699372291565,-0.8934075832366943,0.0010352730751037598,0.01951780915260315,0.00046324729919433594,0.8670964225337399,0.06807778394868695,0.2205938208302066,0.44141530582676614,0.31814688972453664,0.3463721822839477,0.8856433546190192
1781116371504729344,1.5924882888793945,-0.026630593463778496,-0.007165282033383846,7.553966133855283e-05,0.32242316007614136,-0.31272822618484497,-0.8934452533721924,0.0014751553535461426,-0.0005804896354675293,0.0004093647003173828,0.8671034535577697,0.06804669251297707,0.22056071865920693,0.4414230648041791,0.3180639668284413,0.34633107793559015,0.8856728616902331
1781116371514764288,1.6025233268737793,-0.04585515335202217,-0.013457532972097397,-0.0013508494012057781,0.3223344683647156,-0.3124292492866516,-0.8935818076133728,-0.002586573362350464,-0.013086497783660889,0.004162251949310303,0.8671263743424058,0.06792383946315637,0.22044373674840667,0.44145534007168535,0.3177492087453775,0.3461944503368093,0.8857895323552347
1781116371524798208,1.6125571727752686,-0.041965074837207794,-0.005516518838703632,-0.0027793690096586943,0.32228681445121765,-0.3120651841163635,-0.8937262296676636,-0.002065896987915039,-0.007621705532073975,0.007633090019226074,0.8671482319242386,0.06776005275630752,0.22033036091594566,0.441494214292879,0.31736599247223685,0.346095700691567,0.885925327878085
1781116371534833152,1.6225922107696533,-0.020562313497066498,0.00025481777265667915,0.0011503915302455425,0.3223057687282562,-0.31178760528564453,-0.8938162922859192,-0.0013066232204437256,0.007100105285644531,0.007875680923461914,0.8671591822363032,0.06762208975408238,0.22027056468877992,0.441523775541219,0.3170738522957675,0.3460823044251861,0.8860238619254884
1781116371544868352,1.632627248764038,-0.0030717384070158005,0.005105765536427498,-0.004338916391134262,0.32235947251319885,-0.31169578433036804,-0.8938289284706116,-0.0011771917343139648,0.018330305814743042,0.007216989994049072,0.8671632585013831,0.06756793132127505,0.22027283465116124,0.441522728120653,0.3169772018355681,0.34613095402909655,0.8860272817216364
1781116371554903296,1.6426622867584229,-0.017892494797706604,0.0028576580807566643,-0.0016339432913810015,0.32242751121520996,-0.31154751777648926,-0.8938560485839844,0.001547098159790039,0.014504671096801758,0.006801605224609375,0.8671759043368246,0.06748691931612358,0.22026686631843895,0.4415132181552423,0.3168211786780944,0.34618862176625215,0.8860165007369254
1781116371564937216,1.652696132659912,-0.05031142011284828,-0.005007721483707428,0.0024798414669930935,0.3224514126777649,-0.31111276149749756,-0.8939988613128662,0.0030490756034851074,0.0013135671615600586,0.005616903305053711,0.8671958932977243,0.0672734085227903,0.2201700880978892,0.44155475738226413,0.31636366116860654,0.34616129638409787,0.8861603532469424
1781116371574972160,1.6627311706542969,-0.0536520890891552,-0.01455848291516304,0.0010076460894197226,0.3223588466644287,-0.31059524416923523,-0.8942121267318726,0.0036146342754364014,-0.01362350583076477,0.0016492605209350586,0.8672250553182673,0.06704445371723543,0.21999766071486362,0.4416182622562259,0.31581916827195305,0.3459935720917421,0.8863745127518792
1781116371585007104,1.6727662086486816,-0.048173170536756516,-0.012425024062395096,0.0005005801795050502,0.3222368359565735,-0.31015270948410034,-0.894409716129303,0.0035535693168640137,-0.012265503406524658,-0.0015100836753845215,0.8672562418815428,0.06685981634821755,0.2198292837617473,0.441668924686249,0.3153536624956041,0.345802348408104,0.8865529090362689
1781116371595042304,1.6828012466430664,-0.01972687989473343,-0.011415285989642143,-0.002665918320417404,0.3221205472946167,-0.3099016845226288,-0.8945385813713074,0.0079575777053833,0.011668652296066284,0.002891242504119873,0.867276567944836,0.06676516726104369,0.21971143698256118,0.4417019829603884,0.3150896249166594,0.34564133469000524,0.886668079768087
1781116371605076224,1.6928353309631348,-0.004492801148444414,-0.009391283616423607,-0.004439317621290684,0.32204151153564453,-0.3098409175872803,-0.8945881128311157,0.008936852216720581,0.020259618759155273,0.0017811059951782227,0.8672959374792156,0.06675889139621051,0.2196570061061929,0.44169201070339786,0.31502571408214675,0.34554549081667185,0.8866588927016189
1781116371615111168,1.7028701305389404,-0.019774284213781357,-0.012683618813753128,-0.002014775527641177,0.32197174429893494,-0.3097193241119385,-0.8946552872657776,0.006275296211242676,0.011410057544708252,0.0025349855422973633,0.8673195444126081,0.06672239552008519,0.21959158547613555,0.441683730618304,0.31489784051239045,0.3454525107187306,0.8866598029307213
1781116371625146112,1.7129051685333252,-0.05618928372859955,-0.011719819158315659,0.0015631814021617174,0.32187074422836304,-0.3093618154525757,-0.8948153257369995,0.003873884677886963,-0.005625367164611816,0.007516741752624512,0.8673511529490484,0.0665769776887569,0.21945348422593197,0.44171224898257705,0.31452185873377253,0.3452955663659987,0.8867753729928752
1781116371635181312,1.72294020652771,-0.04553797096014023,-0.020624764263629913,0.0007751520606689155,0.32172253727912903,-0.3088187575340271,-0.8950561881065369,0.0038237273693084717,-0.0135079026222229,0.010565221309661865,0.8673861404140728,0.06634870599418162,0.21924813628691323,0.44177997784471545,0.3139508465624017,0.3450632304619093,0.8870067081838384
1781116371645215232,1.7329742908477783,-0.028970446437597275,-0.011912232264876366,-0.0019356794655323029,0.321586012840271,-0.3084888160228729,-0.8952190279960632,0.0007406473159790039,-0.008649855852127075,0.004807651042938232,0.8674203488712107,0.06622521737845893,0.2190997891040196,0.44180464001370323,0.31360394870124997,0.3448702842754309,0.8871130406868181
1781116371655250432,1.743009328842163,0.004250623285770416,-0.004428883548825979,-0.0015343411359936,0.32153141498565674,-0.3084154725074768,-0.8952639102935791,-0.001325756311416626,0.013752996921539307,0.009247064590454102,0.8674325149275388,0.06620453030814798,0.21905483109782906,0.4418061818775259,0.31352686227495363,0.34480032694824275,0.8871296826625896
1781116371665285376,1.7530443668365479,0.032710496336221695,-0.0016309660859405994,-0.0015479233115911484,0.32152536511421204,-0.30862417817115784,-0.8951941132545471,-0.0009992420673370361,0.026245027780532837,0.00850588083267212,0.8674310787903272,0.06630989275268208,0.21910256380197368,0.4417694947997075,0.31374626510621306,0.3448191243223894,0.8870216365808036
1781116371675320832,1.7630798816680908,0.03069181926548481,0.0009915814734995365,0.0010933998273685575,0.32155975699424744,-0.3088843822479248,-0.8950920701026917,-0.0016745030879974365,0.016632765531539917,0.0035820603370666504,0.867419903445983,0.06642874251280044,0.2191830134860874,0.44173391630695835,0.3140198176339907,0.34488942970384284,0.8869068666675183
1781116371685355008,1.7731139659881592,0.018518775701522827,-0.0028441697359085083,0.0018228397238999605,0.3215818405151367,-0.30906057357788086,-0.8950232863426208,-0.0025053322315216064,0.0024657249450683594,0.00430673360824585,0.8674112673241329,0.066508968240742,0.21923710091600107,0.4417119928364888,0.31420508420101306,0.3449357273639792,0.8868342012405092
1781116371695389952,1.783149003982544,0.005018146242946386,-0.003428600262850523,0.0006324066198430955,0.3215694725513458,-0.3091384172439575,-0.8950008749961853,-0.002660810947418213,-0.0017288625240325928,0.006695210933685303,0.8674094315513659,0.06654954352651399,0.21925038745841302,0.4417027853750075,0.3142869394271632,0.3449314636271464,0.8868050569269011
1781116371705425152,1.7931840419769287,-0.004163634497672319,-0.0009254948236048222,0.0038369884714484215,0.32155120372772217,-0.3091724216938019,-0.8949956893920898,-0.001635432243347168,-0.0012371242046356201,0.005774497985839844,0.8674034437719416,0.06656704720613084,0.2192509681238584,0.44171171879925414,0.31432268959618154,0.3449152214279125,0.8868233499273976
1781116371715460096,1.8032190799713135,-0.019038986414670944,-0.0018955515697598457,-0.0008456478244625032,0.3215573728084564,-0.3091224730014801,-0.8950107097625732,-0.002068847417831421,-0.0032554566860198975,0.005072355270385742,0.8673997327007875,0.06653899289295452,0.219242373665612,0.44172727618756374,0.3142701840182199,0.34491599858376193,0.8868643528268598
1781116371725494016,1.8132529258728027,-0.023802315816283226,-0.0009565213695168495,-0.0008317992906086147,0.321550190448761,-0.30895698070526123,-0.8950704336166382,-0.004976093769073486,-0.0029631853103637695,0.007497191429138184,0.8674054657710584,0.06645994596107671,0.2191982467591387,0.441749726690899,0.3140961547008463,0.3448876549983061,0.8869357089791
1781116371735528960,1.8232879638671875,-0.025168783962726593,-0.0031608189456164837,-0.0020834850147366524,0.3215462267398834,-0.30867713689804077,-0.8951684236526489,-0.003797203302383423,0.0005411505699157715,0.007885098457336426,0.8674246348565468,0.06632938232326978,0.21912601879943205,0.4417678263927645,0.31380193211818,0.3448489159585853,0.8870100050440758
1781116371745563904,1.8333230018615723,-0.018260011449456215,-0.000936280470341444,-0.004945051856338978,0.3215479254722595,-0.308395117521286,-0.8952649831771851,0.0011602044105529785,0.006881445646286011,0.007325530052185059,0.867451710995531,0.06620069075865367,0.21905472085873995,0.4417693472044013,0.3135054647108112,0.34481624437637903,0.8870457610930848
1781116371755599104,1.843358039855957,-0.0022251191549003124,-0.005092410370707512,-0.006682497914880514,0.3215485215187073,-0.30825209617614746,-0.8953140377998352,0.0028991103172302246,0.010476827621459961,0.006581127643585205,0.8674705149424038,0.06613798184454044,0.21901769014765754,0.44176020177781505,0.3133551089206481,0.34479941955888166,0.8870410590860133
1781116371765632768,1.8533918857574463,0.009771888144314289,0.0012179501354694366,-0.0047386568039655685,0.32154372334480286,-0.3082936108112335,-0.8953014612197876,0.0009050369262695312,0.01105239987373352,0.004020333290100098,0.867481089135298,0.06616506964999784,0.21902389351325935,0.44173200908829335,0.3133987609469083,0.34479914120251354,0.8869716034334657
1781116371775667968,1.863426923751831,0.018402395769953728,-0.002399688120931387,-0.005838275887072086,0.3215450048446655,-0.30842146277427673,-0.8952569365501404,-0.00017967820167541504,0.009242355823516846,0.003060281276702881,0.8674885445793337,0.06623278399011834,0.21905420321256863,0.4416922447823062,0.3135331347723616,0.34481623150853136,0.886865151813986
1781116371785702912,1.8734619617462158,0.0157695934176445,0.00036573875695466995,-0.0005071599734947085,0.32156023383140564,-0.3085733950138092,-0.8951991200447083,0.0005070269107818604,0.004023224115371704,0.003628075122833252,0.8674905111689176,0.06630734488040062,0.21909764893918982,0.44165560714098834,0.3136928730525725,0.34485185522207046,0.8867619174582285
1781116371795737856,1.8834969997406006,0.006531087681651115,-0.0025597442872822285,0.000738134142011404,0.3215576708316803,-0.30868709087371826,-0.8951608538627625,0.004309028387069702,-0.0008069276809692383,0.003879725933074951,0.8674879765354754,0.06636374943028472,0.21912423864682382,0.4416389115951548,0.3138124028444328,0.34486289955383764,0.886710582749398
1781116371805772032,1.893531084060669,-0.0030634822323918343,-0.00428227661177516,-0.00011301215272396803,0.3215189576148987,-0.3087059557437897,-0.8951682448387146,0.004530847072601318,-0.003717750310897827,0.0061454176902771,0.8674922418795553,0.06638249640047536,0.21911009969705703,0.4416349648012084,0.3138322455982097,0.34482197592162206,0.8867026992033646
1781116371815806976,1.9035658836364746,-0.01353370025753975,-0.004622362088412046,0.0009463932947255671,0.3214710056781769,-0.30864888429641724,-0.8952051401138306,0.00514337420463562,-0.0019437670707702637,0.007433533668518066,0.8674994073179245,0.06636631373791627,0.21907292076883894,0.44164152512668037,0.31377222433597673,0.34476143352574024,0.8867283990573509
1781116371825841920,1.9136009216308594,-0.023598050698637962,-0.005764591973274946,0.0022247105371207,0.321417897939682,-0.3084733784198761,-0.8952847123146057,0.002983957529067993,-0.0007612407207489014,0.003423750400543213,0.8675154803071223,0.0662959163050937,0.21900343399579084,0.44165499850482615,0.313587738907466,0.34468060401122225,0.8867841480369856
1781116371835876864,1.9236359596252441,-0.030526265501976013,-0.009016711264848709,0.0016270973719656467,0.3213566243648529,-0.3082042634487152,-0.8953993916511536,-0.00015911459922790527,-0.00116768479347229,0.0031111836433410645,0.8675291921800952,0.06617879056202945,0.2189079323753649,0.4416929860765333,0.31330482655995445,0.3445792612475282,0.8869078416794112
1781116371845911040,1.9336700439453125,-0.033490896224975586,-0.012127017602324486,0.002589031122624874,0.3212707042694092,-0.3078787624835968,-0.8955421447753906,0.005130022764205933,-0.0034920573234558105,0.0086098313331604,0.8675533456119858,0.06604312917093871,0.2187857933282176,0.4417263188162362,0.3129626888398134,0.3444435735448044,0.8870293265346564
1781116371855945984,1.9437050819396973,-0.01654280535876751,-0.008250919170677662,0.0034950384870171547,0.32116174697875977,-0.30762675404548645,-0.8956678509712219,0.0023398101329803467,-0.0005397498607635498,0.005790531635284424,0.8675696192262804,0.06594473707348848,0.21867179896089062,0.4417658209695169,0.31269782705422655,0.34429117446503116,0.8871586485914082
1781116371865980928,1.953739881515503,-0.0035146218724548817,-0.0017038043588399887,0.0035483017563819885,0.32113146781921387,-0.30753111839294434,-0.8957116007804871,0.00011181831359863281,0.007879018783569336,0.0037133097648620605,0.8675694848086714,0.06590224399471935,0.21863463716535667,0.44179084627930926,0.312597314516181,0.3442457019330612,0.8872298814740849
1781116371876015872,1.9637749195098877,0.017605312168598175,0.003219315316528082,-0.0028544701635837555,0.32116827368736267,-0.3076096773147583,-0.8956713676452637,0.009672790765762329,0.0167924165725708,0.002635478973388672,0.8675621815250011,0.06593130401798868,0.21867184099090967,0.441782204074428,0.312679869495815,0.34429638904168963,0.8871977540004916
1781116371886050048,1.973809003829956,0.017533672973513603,-0.0028015589341521263,-0.004909898154437542,0.32121437788009644,-0.3077830970287323,-0.8955952525138855,0.014860451221466064,0.0123119056224823,-0.001896202564239502,0.867560958031931,0.0660092507838501,0.21873531949970493,0.4417416310526003,0.31286213587711265,0.3443689880143849,0.887080452328228
1781116371896084992,1.9838440418243408,0.004265004303306341,0.0034527417737990618,0.0008936627418734133,0.3212437033653259,-0.30788499116897583,-0.8955497145652771,0.007079631090164185,0.00454026460647583,-0.0001869797706604004,0.8675609441695711,0.06605501940965083,0.21877356693078331,0.441715804133105,0.312969239612231,0.34441417467564056,0.8870067104132359
1781116371906119936,1.9938790798187256,-0.014230383560061455,0.006257316563278437,0.0014995317906141281,0.3212999403476715,-0.307855486869812,-0.8955397009849548,-0.005900770425796509,-0.0020200014114379883,0.001985013484954834,0.867553581176589,0.06602606629842821,0.21879375442807372,0.4417246391996657,0.31293822404725413,0.34447334694779747,0.8870256988700727
1781116371916154880,2.0039138793945312,-0.02750011533498764,0.004356352612376213,0.008351312950253487,0.3213258385658264,-0.30768147110939026,-0.8955902457237244,-0.009710818529129028,-0.002575486898422241,0.006323277950286865,0.8675463038242204,0.06593016732815234,0.2187649471482623,0.4417675585014267,0.312755320253629,0.3444810331154497,0.8871424223111546
1781116371926189056,2.0139479637145996,-0.025897158309817314,0.00782831571996212,0.010809410363435745,0.3213658630847931,-0.3074862062931061,-0.8956429362297058,-0.006805926561355591,-0.0009244382381439209,0.00835961103439331,0.8675239559933525,0.06581353368832088,0.21873985592230544,0.4418412547765317,0.31255013287087535,0.3445019382495908,0.8873313296629777
1781116371936224000,2.0239830017089844,-0.017760135233402252,0.010362046770751476,0.008746258914470673,0.32142677903175354,-0.30733349919319153,-0.8956734538078308,-0.005691885948181152,0.005407840013504028,0.0074746012687683105,0.8674978891768881,0.06571257710231822,0.21873529096833913,0.4419096339835358,0.31238965148570785,0.3445513355913566,0.8875013196718976
1781116371946258944,2.034018039703369,0.007485032081604004,0.013436932116746902,0.007351561915129423,0.3215215504169464,-0.30728596448898315,-0.8956557512283325,-0.003909856081008911,0.011967390775680542,0.0048934221267700195,0.8674692592471782,0.06565688159314506,0.21877225846245452,0.44195576998659214,0.3123397025978428,0.3446513662702259,0.8876051180459417
1781116371956294144,2.044053077697754,0.01769772358238697,0.012922808527946472,0.008477812632918358,0.32164549827575684,-0.3073672652244568,-0.8955833315849304,-0.003789663314819336,0.014245957136154175,0.0025017261505126953,0.867439271308703,0.06565979793834008,0.21885410332577168,0.44197365569706387,0.31242513100012315,0.3447996616957338,0.8876265365666992
1781116371966327808,2.054086923599243,0.028453964740037918,0.013482073321938515,0.007055152207612991,0.32179421186447144,-0.30755841732025146,-0.895464301109314,-0.0007492899894714355,0.013536810874938965,0.0011161565780639648,0.8674048055033486,0.06571108864859687,0.21897467905231702,0.4419739034119578,0.3126260060266092,0.34498905051410583,0.8875925449766031
1781116371976363008,2.064121961593628,0.02520943619310856,0.00899477954953909,0.0012372105848044157,0.32191202044487,-0.3077997863292694,-0.8953390121459961,-0.00011941790580749512,0.00802561640739441,-0.0019388198852539062,0.8673732204423829,0.06579477960392671,0.21909254796433023,0.44196509735005546,0.3128796743198761,0.34515011661309225,0.8875345276736538
1781116371986397952,2.0741569995880127,0.021320687606930733,0.006101255305111408,0.001928567187860608,0.3219491243362427,-0.3080318868160248,-0.8952458500862122,0.003612428903579712,0.00424465537071228,0.0008671879768371582,0.86735115754449,0.06589359766650703,0.21916914214834077,0.44195572498424746,0.3131236400576351,0.34521993200831613,0.8874830743797462
1781116371996432896,2.0841920375823975,0.008620603941380978,0.003525712061673403,-0.0030749798752367496,0.3219577372074127,-0.30818411707878113,-0.8951903581619263,0.00483974814414978,0.001299351453781128,0.0034819841384887695,0.8673416711956697,0.06596381677070765,0.21921131832464222,0.4419429285946309,0.3132836519228266,0.3452482041917084,0.8874353121150941
1781116372006466816,2.0942258834838867,-0.004633948672562838,0.0008798614144325256,-0.00409896532073617,0.3219609260559082,-0.30820828676223755,-0.895180881023407,0.004607677459716797,0.00013333559036254883,0.008980929851531982,0.8673445456929556,0.0659767637672449,0.2192181988084809,0.4419321150759772,0.3133090678606178,0.3452547103511805,0.8874073815058711
1781116372016502016,2.1042609214782715,-0.009771452285349369,-0.0007731621153652668,-0.0033988202922046185,0.3219670355319977,-0.30812421441078186,-0.8952076435089111,-0.0016850531101226807,-0.0032618939876556396,0.015645265579223633,0.867360521465276,0.0659412694114343,0.21919836975305776,0.441915947924805,0.3132206880731836,0.3452512379700268,0.8873792762699061
1781116372026536960,2.1142959594726562,-0.013409064151346684,0.004663414787501097,0.00282099237665534,0.32198819518089294,-0.30797600746154785,-0.8952509760856628,-0.004849553108215332,-0.005729407072067261,0.015062987804412842,0.8673708143943488,0.06586799477948248,0.21917095130925188,0.44192003619165315,0.3130649165928165,0.3452567562885435,0.8874038853596067
1781116372036571904,2.124330997467041,-0.010058541782200336,0.007142950780689716,0.007561685051769018,0.3220101594924927,-0.30783942341804504,-0.8952900767326355,-0.0036202669143676758,-0.0029363036155700684,0.010967016220092773,0.8673609185047381,0.06579035285952439,0.2191496916859627,0.44196153308171665,0.31292134869781374,0.34526455903168535,0.8875134217354692
1781116372046606080,2.1343650817871094,-0.004517834633588791,0.007902750745415688,0.007314543705433607,0.3220687806606293,-0.3077542781829834,-0.8952983021736145,-0.0009017884731292725,-0.0005037784576416016,0.005863487720489502,0.8673401390399851,0.0657263175498666,0.21915956371515527,0.4420070459626731,0.312831864755214,0.34531963680938116,0.8876232384332606
1781116372056640768,2.144399881362915,0.005369416903704405,0.0037968221586197615,0.008445322513580322,0.32210004329681396,-0.30775177478790283,-0.8952878713607788,0.005399346351623535,0.003369450569152832,0.005196928977966309,0.8673211487899303,0.06570985314598543,0.21917636020916906,0.44203826827934917,0.31282921469288716,0.3453542543425174,0.8876928271961139
1781116372066675968,2.1544349193573,0.013347715139389038,0.0060557154938578606,0.007247165776789188,0.3221278488636017,-0.3078688383102417,-0.8952376246452332,0.008453786373138428,0.004081606864929199,0.0012862086296081543,0.8672984964314768,0.06575222939592912,0.2192209519534669,0.4420545367096388,0.31295227350136773,0.34539963975770155,0.8877145815015307
1781116372076710912,2.1644699573516846,0.016628731042146683,0.00702830171212554,0.007550766225904226,0.3221755623817444,-0.3080182671546936,-0.8951690793037415,0.005613744258880615,0.003010302782058716,0.001828014850616455,0.8672689781751556,0.06580377233469445,0.21928364599394612,0.44207380587533157,0.3131093051079123,0.3454712073413282,0.8877378096345779
1781116372086745088,2.174504041671753,0.011530107818543911,0.0012630904093384743,0.00706234248355031,0.3222084045410156,-0.30818772315979004,-0.8950989246368408,0.0024071037769317627,0.0004942417144775391,0.0021393299102783203,0.8672405244698091,0.06586880201153929,0.219344119902671,0.44208963473386603,0.3132874301720585,0.3455286594179457,0.8877519109169958
1781116372096780032,2.1845390796661377,-0.003672813531011343,-0.0002405303530395031,0.00857688207179308,0.322206050157547,-0.3082827031612396,-0.8950670957565308,-0.001313716173171997,-0.001211315393447876,0.007127642631530762,0.8672179566668611,0.06590574682280156,0.21936932208448615,0.4421160984425404,0.31338729168919066,0.34553768196318885,0.8878022652419421
1781116372106814976,2.1945738792419434,-0.020014235749840736,-0.001767053734511137,0.0074983020313084126,0.32216739654541016,-0.3082399070262909,-0.895095705986023,0.00022029876708984375,-0.002169668674468994,0.00975024700164795,0.8672008543586187,0.0658829304896813,0.219343514653448,0.44216586018737913,0.3133422829434643,0.34548925586563634,0.8879252437617916
1781116372116849920,2.204608917236328,-0.03629440441727638,-0.0008432031609117985,0.007426130119711161,0.3221314549446106,-0.3080466091632843,-0.8951752185821533,0.0010649561882019043,-0.0038277804851531982,0.01013493537902832,0.8671929796007961,0.0657885569896506,0.21928124843570568,0.44222624824589296,0.31313909821693775,0.34542542389519293,0.8880898202215615
1781116372126884864,2.214643955230713,-0.042139243334531784,0.00016959663480520248,0.007866617292165756,0.3221059739589691,-0.3077259659767151,-0.8952946662902832,-0.0019002854824066162,-0.002500474452972412,0.009079456329345703,0.8671886717383998,0.06563004275137316,0.21919254923652398,0.442302250223399,0.31280210577462814,0.34535769426026436,0.8883041758667196
1781116372136919040,2.2246780395507812,-0.048467714339494705,0.002168698236346245,0.006970463320612907,0.32214754819869995,-0.30732262134552,-0.8954182267189026,0.0007742047309875488,0.0015975236892700195,0.003999769687652588,0.867183324895466,0.06541705203100422,0.21911528670619032,0.4423823470917078,0.3123782122735672,0.3453548624036727,0.8885317499098131
1781116372146953984,2.234713077545166,-0.022468337789177895,-0.0009045898914337158,0.001687018433585763,0.32218432426452637,-0.3069927990436554,-0.8955181241035461,0.0011341571807861328,0.008347779512405396,0.004145443439483643,0.8671822984312899,0.06524400426854333,0.21905288303133946,0.44244086942144983,0.3120316218051341,0.3453556982223232,0.8887016149931118
1781116372156989184,2.244748115539551,0.0008617507410235703,0.0034029404632747173,0.002975455718114972,0.32222187519073486,-0.3068864345550537,-0.8955410718917847,0.0006998777389526367,0.009645223617553711,0.002291560173034668,0.8671789695950114,0.06518197232337805,0.21904517487430347,0.44246025958829277,0.3119198818736553,0.3453846508339796,0.8887553979415896
1781116372167023872,2.2547829151153564,0.025064026936888695,0.007529508322477341,0.0001863271463662386,0.32227686047554016,-0.30700308084487915,-0.895481288433075,0.0012247264385223389,0.01807790994644165,0.002552211284637451,0.8671672887492994,0.06522451055449491,0.21910072090596536,0.44244939508929715,0.3120424440239267,0.34546028346008834,0.8887122931082841
1781116372177058048,2.264816999435425,0.0376136414706707,0.006583420559763908,0.0019330945797264576,0.3223344683647156,-0.3073233664035797,-0.8953506946563721,0.003028661012649536,0.020336061716079712,0.0018112659454345703,0.8671412084099108,0.06536171419862956,0.21920882932771565,0.44242672292225205,0.31237898639111006,0.3455637265377097,0.8886182641407769
1781116372187092992,2.2748520374298096,0.03410172834992409,0.0035066704731434584,0.005089206621050835,0.3223766088485718,-0.3076867163181305,-0.8952106833457947,0.0028949975967407227,0.01026242971420288,-0.0012736320495605469,0.8671151620193822,0.06552351794162939,0.21932013183280413,0.44239862314217326,0.31276084982671254,0.345655202443538,0.8885080174576357
1781116372197127936,2.2848870754241943,0.016891850158572197,0.0011491072364151478,0.0053376792930066586,0.3223925530910492,-0.3079673647880554,-0.8951084613800049,0.0022534728050231934,-0.00106889009475708,-0.0002925395965576172,0.8670924175288013,0.0656502963853109,0.2193987639083118,0.4423853683891392,0.31305580616687045,0.3457073938548325,0.8884437427552571
1781116372207163136,2.294922113418579,-0.002057606354355812,-0.0014056633226573467,0.00712013291195035,0.32235386967658997,-0.3080638349056244,-0.8950892090797424,0.00012537837028503418,-0.00603833794593811,0.0036097168922424316,0.8670792047293095,0.06569941561026355,0.21940600287601533,0.4424004472819139,0.31315720325508034,0.34567599609632,0.8884707031228466
1781116372217197056,2.3049559593200684,-0.01654200628399849,-0.005974581930786371,0.004190922249108553,0.3223010003566742,-0.30800026655197144,-0.8951300978660583,0.003977686166763306,-0.0037978291511535645,0.00535959005355835,0.867074679957872,0.06567507069328278,0.2193666693627077,0.44243249887394726,0.3130904026432532,0.34560914525087805,0.8885564484987847
1781116372227232000,2.314990997314453,-0.010933389887213707,-0.00644889147952199,0.003526463871821761,0.32223591208457947,-0.3078518211841583,-0.8952046036720276,0.004790455102920532,0.0002651512622833252,0.007555067539215088,0.8670809855242017,0.06561572477403531,0.21929951041813084,0.4424622645264712,0.3129343620652143,0.34551824894158994,0.8886477127562075
1781116372237266944,2.325026035308838,-0.0014498730888590217,-0.0039063710719347,0.001835356466472149,0.32219046354293823,-0.30776551365852356,-0.8952506184577942,0.004545986652374268,0.00727418065071106,0.0057395100593566895,0.8670868931377622,0.06558377693564738,0.21925660035972186,0.4424766566763169,0.3128436699521791,0.3454569332000511,0.8886946710674725
1781116372247302144,2.3350610733032227,0.009079732932150364,1.0872259736061096e-05,0.00018153345445170999,0.3221794664859772,-0.3077605366706848,-0.8952562808990479,0.00040659308433532715,0.011312782764434814,0.008079767227172852,0.8670911715823033,0.06558544313145627,0.21924963328819674,0.44247145639311164,0.3128384199606158,0.3454440376130597,0.8886841733984044
1781116372257335808,2.345094919204712,0.021919365972280502,-0.0029662754386663437,0.002050539944320917,0.32217466831207275,-0.3078390955924988,-0.8952310085296631,0.0031884610652923584,0.01139134168624878,0.006803274154663086,0.8670925614944175,0.06562650346834462,0.21926618173479925,0.4424544343700718,0.3129209972580147,0.34544829646518344,0.8886362711148583
1781116372267371008,2.3551299571990967,0.01937844417989254,-0.0036278050392866135,-0.0016488570254296064,0.32215288281440735,-0.3079775869846344,-0.8951911926269531,0.0027677714824676514,0.003976762294769287,0.006488800048828125,0.8670939428561942,0.06570084396587066,0.2192892950490092,0.4424292420595966,0.3130665761253128,0.3454409156933482,0.8885640686654057
1781116372277405952,2.3651649951934814,0.018451930955052376,-1.0965857654809952e-05,-0.0007857266464270651,0.3221549093723297,-0.3081520199775696,-0.895130455493927,0.0001869797706604004,0.0008247792720794678,0.005787253379821777,0.8670907434336057,0.0657865269054307,0.219332860172944,0.4424011786219766,0.31324989986655505,0.3454645380983947,0.8884790964647287
1781116372287440896,2.375200033187866,0.013851318508386612,0.0011461777612566948,0.0026798448525369167,0.32215964794158936,-0.30833443999290466,-0.8950659036636353,-0.002961069345474243,0.0002747774124145508,0.007446944713592529,0.867080132357341,0.0658720870785831,0.21938073978153752,0.4423854425758933,0.31344167647450094,0.34549220683177234,0.8884213844023462
1781116372297474816,2.3852338790893555,0.005667691119015217,0.0009931796230375767,0.0029589443001896143,0.32217514514923096,-0.3084615170955658,-0.8950165510177612,-0.000687718391418457,0.0021871328353881836,0.008542001247406006,0.8670667684112151,0.06592643811010639,0.21942064753670934,0.4423837667213006,0.31357525242052164,0.34552508295453443,0.8884015896678635
1781116372307510016,2.3952689170837402,-0.005056059453636408,9.94224101305008e-05,0.0022390917874872684,0.3221994936466217,-0.30847519636154175,-0.895003080368042,-0.0009409487247467041,-0.002697288990020752,0.007750272750854492,0.867057666753293,0.0659242687441082,0.2194366699214269,0.4423939489764778,0.31358963666963047,0.34555398910528456,0.8884214211592736
1781116372317544960,2.405303955078125,-0.018725264817476273,-0.003766023088246584,0.0036942430306226015,0.32220354676246643,-0.30835261940956116,-0.8950438499450684,-0.0011586546897888184,-0.006802409887313843,0.006524622440338135,0.8670589763179387,0.06586251463740374,0.21940872895296382,0.44241456828237585,0.31346076448161825,0.34554346226329363,0.888482790004949
1781116372327579904,2.4153389930725098,-0.027470286935567856,-0.0023233885876834393,0.0030636063311249018,0.32218581438064575,-0.30813586711883545,-0.8951249122619629,-0.0024531185626983643,-0.0030518770217895508,0.007582187652587891,0.8670604657810315,0.06575762883605303,0.2193478567398897,0.44245745678296444,0.31323293591177964,0.3454970685482522,0.8886081727702483
1781116372337614080,2.425373077392578,-0.028984295204281807,-0.0005124388262629509,0.0012055188417434692,0.32218340039253235,-0.3078572452068329,-0.8952216506004333,-0.0014283955097198486,0.0030629336833953857,0.00792306661605835,0.8670662658180821,0.06562093286620792,0.2192785280330762,0.4425007812751805,0.3129400627250491,0.3454602591162335,0.8887403852788053
1781116372347649024,2.435408115386963,-0.015118281356990337,-0.007514155935496092,0.0033062202855944633,0.3221651017665863,-0.30763426423072815,-0.8953048586845398,-0.0002046823501586914,0.0025958120822906494,0.007228076457977295,0.8670702443679285,0.06551427235758454,0.21921551476720313,0.4425400890345454,0.3127057142188998,0.345412555094349,0.8888582817437193
1781116372357683968,2.4454429149627686,0.003460463136434555,-0.0020950227044522762,-0.00045869045425206423,0.3221142888069153,-0.3075940012931824,-0.8953369855880737,0.0001665949821472168,0.004127204418182373,0.0027436017990112305,0.8670770436695087,0.06550691441195813,0.2191810916820192,0.4425448440099368,0.3126634113029895,0.3453508698871276,0.8888781490716958
1781116372367718912,2.4554779529571533,0.016681194305419922,-0.00032561831176280975,-0.0016818803269416094,0.3221118152141571,-0.30769506096839905,-0.8953031897544861,-0.0007464587688446045,0.009843498468399048,0.004907071590423584,0.8670764358415018,0.06555781679860696,0.21920444287845828,0.44252703170709484,0.3127696136917381,0.34536043938551,0.8888256818753156
1781116372377753088,2.4655120372772217,0.02324002794921398,0.001650181133300066,0.0004071032162755728,0.32212886214256287,-0.30788367986679077,-0.8952321410179138,-0.001297593116760254,0.014350354671478271,0.005629479885101318,0.8670704700557526,0.0656464912094518,0.21925888564188886,0.4424983878509947,0.31296785298085417,0.34540259376593213,0.8887364008071105
1781116372387788032,2.4755470752716064,0.00800408236682415,-0.0006001899018883705,0.001924572279676795,0.32213178277015686,-0.3080522119998932,-0.8951731324195862,-0.001681983470916748,0.0054551661014556885,0.004807591438293457,0.8670588614952681,0.0657248593265753,0.21930269462935673,0.44248784784232614,0.3131449855273306,0.3454264741375401,0.8886924741448551
1781116372397822976,2.485582113265991,-0.010087303817272186,-0.0012538633309304714,0.0032207330223172903,0.3221113383769989,-0.30808812379837036,-0.895168125629425,0.0007493793964385986,-0.004823863506317139,0.005229771137237549,0.867052988247446,0.06574378464784922,0.21930271565754703,0.44249665759670653,0.3131827514141238,0.3454080294664665,0.8887104340764683
1781116372407857920,2.495616912841797,-0.019815031439065933,-0.0011507985182106495,0.003730195574462414,0.3220800459384918,-0.3079698979854584,-0.8952201008796692,0.0002923905849456787,-0.009214550256729126,0.0041678547859191895,0.8670546225785596,0.06569103487050051,0.21925931748194033,0.44252272019125954,0.3130584713982076,0.3453586106309758,0.888786774418755
1781116372417892096,2.5056509971618652,-0.0159398652613163,-0.001262784469872713,0.0007650320185348392,0.3220590353012085,-0.3078056573867798,-0.895284116268158,0.0001150369644165039,0.00043261051177978516,0.004659116268157959,0.8670574464940096,0.06561380582522419,0.21920939603829953,0.4425535125207529,0.3128858500814359,0.3453150289450955,0.8888785102343413
1781116372427927040,2.51568603515625,-0.009490755386650562,0.00042565958574414253,0.0005517128156498075,0.3220541477203369,-0.3076922297477722,-0.8953248858451843,0.0019814670085906982,0.009337097406387329,0.006210505962371826,0.8670613067466018,0.06555964052834394,0.21917912907818096,0.4425689647558798,0.3127666252347347,0.3452957086526381,0.8889276081674855
1781116372437961984,2.5257210731506348,-0.014490307308733463,0.001337259542196989,0.0005410602316260338,0.3220669627189636,-0.30757588148117065,-0.8953602313995361,0.005325645208358765,0.011555373668670654,0.006993532180786133,0.8670642748014517,0.06550034139642312,0.21915654070433332,0.4425829000090965,0.3126443673362779,0.34529578588843546,0.8889719782223543
1781116372447997184,2.5357561111450195,-0.015126270242035389,-0.0009109810926020145,0.001131216762587428,0.3220694959163666,-0.30739980936050415,-0.8954198360443115,0.0033242106437683105,0.005153685808181763,0.0062291622161865234,0.8670716812702767,0.06541504081797767,0.21911404878147697,0.4426022452195163,0.31245931390758325,0.3452770985839607,0.8890367018807149
1781116372458030848,2.545789957046509,-0.007416951935738325,-3.173854202032089e-05,0.0030122073367238045,0.32205843925476074,-0.3072460889816284,-0.8954765200614929,0.002038240432739258,-0.002827763557434082,0.004531145095825195,0.8670795801878859,0.06534380364090944,0.21907056839437544,0.44261886045777765,0.312297784326874,0.3452459916476228,0.889093648235649
1781116372468066048,2.5558249950408936,-0.004336207173764706,0.0025224993005394936,0.006193885579705238,0.3220517933368683,-0.3072085976600647,-0.8954917788505554,-0.0008237361907958984,0.0012393593788146973,0.00344771146774292,0.8670680362705994,0.06532057055488676,0.21906012302944022,0.4426498014235432,0.31225839033471725,0.34523400496240486,0.8891697988089836
1781116372478100992,2.5658600330352783,0.007192617282271385,0.004775133915245533,0.00612730672582984,0.32207396626472473,-0.30726560950279236,-0.8954642415046692,-0.0009222626686096191,0.009444564580917358,0.0037406086921691895,0.867047654812599,0.0653349775989469,0.2190872583242035,0.4426741260186305,0.3123182892810825,0.34526574467316523,0.8892174717397651
1781116372488135936,2.575895071029663,0.012833724729716778,0.0016520451754331589,0.004763768054544926,0.322083055973053,-0.30740487575531006,-0.8954131603240967,0.0078119635581970215,0.007676512002944946,0.003491222858428955,0.8670261977220616,0.06539261468511358,0.21912832587743128,0.4426872780563607,0.31246463731917645,0.34529286743586957,0.8892310207953836
1781116372498171136,2.585930109024048,0.008467205800116062,-0.001890092622488737,0.0028646683786064386,0.32206347584724426,-0.30752813816070557,-0.8953778743743896,0.006702393293380737,0.0008417367935180664,-0.0025713443756103516,0.8670144536122778,0.06545230472323618,0.2191507363973466,0.44269064168415395,0.3125941976461808,0.3452860538392841,0.8892263450226662
1781116372508205056,2.595963954925537,-2.5880872271955013e-05,-0.008463839069008827,0.0072817872278392315,0.3219992220401764,-0.3075665533542633,-0.8953878283500671,-0.0012136995792388916,0.00013247132301330566,-0.00040990114212036133,0.8670090923570354,0.06548093128634663,0.21913087359987785,0.44270670751214786,0.3126345452385418,0.3452189975164342,0.8892643991282526
1781116372518240000,2.605998992919922,-0.012956859543919563,-0.011161621659994125,0.003493174212053418,0.32191333174705505,-0.3074939548969269,-0.8954436182975769,0.000962674617767334,0.0012347996234893799,0.005612075328826904,0.8670133049828931,0.06546259247402506,0.2190726607693568,0.44272999148941367,0.3125582593442509,0.3451141907340672,0.8893336988907157
1781116372528274944,2.6160340309143066,-0.01649193838238716,-0.011584531515836716,0.007579528260976076,0.3218032717704773,-0.3073727786540985,-0.895524799823761,0.004933178424835205,0.0007626712322235107,0.008073627948760986,0.8670190186488413,0.06542510741929464,0.21899123186227906,0.4427646399536059,0.31243091283652474,0.34497651959882586,0.8894368189931842
1781116372538310144,2.6260690689086914,-0.02231627143919468,-0.0018497449345886707,0.011644577607512474,0.3217276930809021,-0.30726298689842224,-0.8955895900726318,0.0017128586769104004,-0.0009645223617553711,0.006261646747589111,0.8670096753419667,0.06537953305896367,0.21893084998628248,0.44281929896411293,0.31231554353154256,0.3448787411337428,0.8895817970435689
1781116372548343808,2.6361029148101807,-0.016621368005871773,0.004543971735984087,0.0059459456242620945,0.32171201705932617,-0.30710726976394653,-0.8956486582756042,0.003529071807861328,0.003793060779571533,0.006198585033416748,0.8669961787416924,0.06529755481013812,0.218887861082873,0.4428793024327589,0.3121519129248517,0.34484224609395886,0.8897394742985192
1781116372558379008,2.6461379528045654,-0.0013326939661055803,-0.0017322995699942112,-0.0016499224584549665,0.32173025608062744,-0.30699795484542847,-0.8956795930862427,0.008820891380310059,0.007315307855606079,0.0014382600784301758,0.8669945656268909,0.0652384703520991,0.21887015543932914,0.4428999109383426,0.3120370394541427,0.3448492961235294,0.8897980213228813
1781116372568413952,2.65617299079895,0.0001714593672659248,-0.0006124405190348625,-0.0013383326586335897,0.3217719793319702,-0.3069506883621216,-0.8956807851791382,0.010427117347717285,0.007023930549621582,0.0006459951400756836,0.8670028146433398,0.06521101655421585,0.21887695460515952,0.44288448180063056,0.3119873816678613,0.3448901331535578,0.8897643587263008
1781116372578448896,2.666208028793335,0.007168915122747421,0.005241320468485355,-0.00030342815443873405,0.3218234181404114,-0.3069685101509094,-0.895656168460846,0.00042694807052612305,0.011665165424346924,0.0018879175186157227,0.8670030989395168,0.06521054793344,0.21890520076652392,0.4428697982485235,0.3120061008296742,0.34494973577143156,0.8897240460707987
1781116372588483072,2.6762421131134033,-0.004570565186440945,0.0002545514144003391,-0.0007969119469635189,0.3218596875667572,-0.30698806047439575,-0.8956364989280701,-0.00777280330657959,0.00754961371421814,0.0016545653343200684,0.866997990185313,0.06521104478962074,0.2189275793665023,0.4428687354664141,0.3120266442628532,0.34499260599219117,0.8897163273674196
1781116372598518016,2.686276912689209,-0.012656721286475658,-0.0010958039201796055,0.009900739416480064,0.32185816764831543,-0.30690711736679077,-0.8956647515296936,-0.00839686393737793,-0.0009236931800842285,0.0060468316078186035,0.866990492050391,0.06516697810008591,0.21890839999789932,0.44289943750014,0.3119416043379451,0.3449810622226804,0.8897965893892904
1781116372608552960,2.6963119506835938,-0.0225564893335104,-0.0022377674467861652,0.007353958673775196,0.3218323290348053,-0.30677324533462524,-0.8957198858261108,-0.007486015558242798,-0.008335977792739868,0.009275853633880615,0.8669796852461579,0.06509929299047967,0.21886556223285375,0.44295164608579596,0.3118009555432711,0.3449359083488939,0.8899345407102458
1781116372618587904,2.7063469886779785,-0.02002835087478161,-0.00011922325938940048,0.0035810586996376514,0.32182425260543823,-0.306596964597702,-0.8957831263542175,-0.00756952166557312,-0.003751516342163086,0.011780500411987305,0.8669763766735341,0.06501068188952196,0.2188196465577095,0.4429938510950748,0.3116157459739467,0.34490547881744776,0.8900528220046234
1781116372628622080,2.716381072998047,-0.013769390061497688,0.002485082019120455,0.004258300177752972,0.32185107469558716,-0.30646616220474243,-0.895818293094635,-0.006024658679962158,0.004159033298492432,0.00789409875869751,0.8669687890389334,0.06493628938834664,0.21880160500819318,0.4430284905988782,0.3114783258984069,0.3449195075899842,0.8901454933002092
1781116372638657024,2.7264161109924316,-0.00887822825461626,0.0060851434245705605,0.001401527551934123,0.32189950346946716,-0.3063504993915558,-0.8958404660224915,-0.004440397024154663,0.006347447633743286,0.004528820514678955,0.8669671165501203,0.06486835624876139,0.21879642785782238,0.44304432964493107,0.31135681630404993,0.34495951258274904,0.8901912838652707
1781116372648691968,2.7364509105682373,-0.005085087846964598,0.0005095493979752064,0.00048007379518821836,0.32195281982421875,-0.3062717318534851,-0.8958482146263123,-0.00466156005859375,0.0034458041191101074,0.004277169704437256,0.8669628797129121,0.06481677127869817,0.2188028355887772,0.4430570150523537,0.31127407383650224,0.3450094647981524,0.8902251451187143
1781116372658726912,2.746485948562622,-0.0022693276405334473,0.002425160724669695,-0.0015188949182629585,0.3219743072986603,-0.30620089173316956,-0.895864725112915,-0.003965884447097778,0.004290491342544556,0.003729104995727539,0.8669667071939144,0.06477908890297071,0.21879513725834582,0.4430588693982649,0.31119964523834687,0.34502483261482036,0.8902357801458516
1781116372668761088,2.7565200328826904,-0.008086470887064934,0.0012808004394173622,-0.00221903994679451,0.32197681069374084,-0.30614474415779114,-0.8958830237388611,-9.265542030334473e-05,0.008155852556228638,0.004708707332611084,0.8669701240107093,0.06475214347174543,0.21878222056914354,0.4430624986033239,0.3111406765349033,0.34502081296063064,0.8902503918212621
1781116372678796032,2.766555070877075,-0.02341429330408573,0.0004424373619258404,-0.003260335884988308,0.32195785641670227,-0.30603376030921936,-0.8959277272224426,0.0046412646770477295,0.00610700249671936,0.006447136402130127,0.8669757280973762,0.06470278107194234,0.21874571896106995,0.4430767534062447,0.3110241066227945,0.344986199850577,0.890297598813493
1781116372688830976,2.77659010887146,-0.03374788910150528,-0.002160802949219942,0.0013914075680077076,0.32196542620658875,-0.30577099323272705,-0.8960146903991699,0.004999876022338867,-0.0017546117305755615,0.010760843753814697,0.866983444661299,0.06457335052714523,0.21868452804275454,0.4431107619250729,0.310748095456541,0.34496278692164234,0.8904056159094331
1781116372698866176,2.7866251468658447,-0.006970606278628111,-0.006353416945785284,-0.008547243662178516,0.3219093680381775,-0.30561769008636475,-0.8960871696472168,0.0026908516883850098,-0.005600571632385254,0.008849620819091797,0.8670007110024789,0.06451546979126192,0.2186187914748761,0.44311786724268165,0.3105871028556122,0.3448816548853837,0.8904442782489398
1781116372708900096,2.796658992767334,0.005053832661360502,0.0005830526351928711,-0.0010360637679696083,0.32188528776168823,-0.30558156967163086,-0.8961081504821777,-0.0010082423686981201,9.059906005859375e-06,0.004598140716552734,0.8670159612279333,0.06450938142531021,0.21859660742044715,0.44309984840989164,0.31054915998959814,0.3448504093063567,0.8904088580107059
1781116372718935040,2.8066940307617188,0.021377412602305412,0.0014279400929808617,-0.0018669699784368277,0.32188767194747925,-0.30567115545272827,-0.8960766792297363,0.0019800961017608643,0.01670023798942566,0.0053754448890686035,0.8670160039370199,0.06455391103933532,0.21861939279369594,0.44308192461984025,0.3106432381889666,0.3448639181166204,0.8903569899198613
1781116372728969984,2.8167290687561035,0.004486046731472015,-0.00310902064666152,-0.001562038203701377,0.3218645453453064,-0.3057919442653656,-0.8960437774658203,0.0058026909828186035,0.0094204843044281,0.0039081573486328125,0.8670189675787114,0.06462028386828145,0.21863740753426264,0.44305756711543576,0.3107701014056859,0.3448527322453642,0.8902888571105058
1781116372739005184,2.8267641067504883,-0.014443169347941875,-0.007660762872546911,0.00030457149841822684,0.3218064606189728,-0.3057287037372589,-0.8960862159729004,0.005830258131027222,-0.005062311887741089,0.004774570465087891,0.8670316928847321,0.06460572939329937,0.21859318914671025,0.44305652302783016,0.31070368796783737,0.34478025693118575,0.8902985123104602
1781116372749040128,2.836799144744873,-0.029640763998031616,-0.008704189211130142,0.002663067076355219,0.3217333257198334,-0.3055099844932556,-0.8961870670318604,0.0030347108840942383,-0.011643916368484497,0.007103264331817627,0.8670469062662681,0.06451721616277697,0.2185039664205143,0.44308365848563597,0.31047396928251664,0.3446721666720448,0.8903922878143098
1781116372759074048,2.8468329906463623,-0.02877230755984783,-0.0035504396073520184,0.0025152615271508694,0.32168301939964294,-0.3052332103252411,-0.8962994813919067,0.0015744268894195557,-0.006183415651321411,0.010023236274719238,0.8670599050271793,0.0643942316054713,0.21841165229892215,0.443121701397698,0.3101833047914888,0.3445825618694717,0.8905159974047677
1781116372769108992,2.856868028640747,-0.01984405890107155,0.00020408444106578827,0.004512365907430649,0.32168906927108765,-0.3050338625907898,-0.8963651657104492,-3.3080577850341797e-06,0.005274951457977295,0.010119438171386719,0.8670588695350732,0.06429261608481251,0.21836638784349796,0.4431608986633386,0.30997397871096033,0.3445652583343662,0.8906288159976794
1781116372779143936,2.866903066635132,-0.018542572855949402,0.003507735673338175,0.003299562493339181,0.32170534133911133,-0.3048901855945587,-0.896408200263977,0.0012774467468261719,0.008717089891433716,0.00976574420928955,0.867055219342243,0.06421573263230089,0.2183397160663329,0.44319241013226324,0.3098231193250042,0.34456604748749403,0.8907166701733673
1781116372789179136,2.8769381046295166,-0.01949358731508255,0.005546918138861656,0.0018569279927760363,0.32173973321914673,-0.3047267198562622,-0.8964514136314392,0.0005258619785308838,0.004311680793762207,0.007810056209564209,0.867053062775551,0.0641263432760238,0.21831651104220268,0.44322079330906894,0.30965148891405475,0.34458472894232317,0.8907979897282
1781116372799213056,2.886971950531006,-0.022182315587997437,0.006204852368682623,0.004244984593242407,0.3217916190624237,-0.3045079708099365,-0.8965071439743042,-0.0021657347679138184,-0.00037786364555358887,0.005149722099304199,0.8670490484317089,0.06400502677547887,0.21828831458984266,0.44326007142659696,0.30942183857522315,0.34461622021770055,0.8909094250123667
1781116372809248000,2.8970069885253906,-0.022894710302352905,0.010025423020124435,0.007203490007668734,0.3218633234500885,-0.30430498719215393,-0.8965502977371216,-0.002176433801651001,0.0032796263694763184,0.0027667880058288574,0.867038953338039,0.06388489494164701,0.21827404576546475,0.44330423133042346,0.3092087436526139,0.3446717547643659,0.891028715248633
1781116372819282944,2.9070420265197754,-0.03155131638050079,0.012500964105129242,0.007006682455539703,0.321947306394577,-0.3041161596775055,-0.8965842127799988,4.363059997558594e-05,0.006829202175140381,0.0025107860565185547,0.8670156134340498,0.06376305720925804,0.2182708297993808,0.44336895817980265,0.30901049995066926,0.3447427193259396,0.891192804429952
1781116372829318144,2.91707706451416,-0.017884505912661552,0.003337559988722205,0.011417942121624947,0.3219977617263794,-0.3039434850215912,-0.8966246843338013,0.00023737549781799316,0.0041998326778411865,0.0029174089431762695,0.8669885672139327,0.0636537988790513,0.21825640709685407,0.4434445888938832,0.30882924381406374,0.34477820508012197,0.8913829594206629
1781116372839352064,2.9271111488342285,-0.01341678760945797,0.0039189280942082405,0.009063974022865295,0.3220197856426239,-0.3038807809352875,-0.896638035774231,-1.3560056686401367e-05,0.0014668405055999756,-0.001570582389831543,0.8669627687230301,0.06360555165355516,0.21825518905812816,0.4435026080642535,0.3087634353420625,0.34479523991261934,0.891522222970976
1781116372849387008,2.937145948410034,0.0009080897434614599,0.006193533539772034,0.010298349894583225,0.32205313444137573,-0.3038434684276581,-0.8966386914253235,0.0007007718086242676,0.009837090969085693,0.00047475099563598633,0.8669359423845486,0.06356738669125066,0.2182655227364289,0.4435555073509713,0.3087242551928935,0.34482792616508645,0.8916458461177861
1781116372859421952,2.947180986404419,0.005400576163083315,-0.0008854144252836704,0.004904116969555616,0.32206472754478455,-0.3038938045501709,-0.8966174721717834,0.004015594720840454,0.0161435604095459,-0.00044673681259155273,0.8669151284447539,0.06358019946643098,0.21828611231224204,0.4435842019478089,0.30877711629115806,0.34484691754256236,0.8917053032152605
1781116372869456896,2.9572160243988037,0.006741211283951998,-0.0019283085130155087,0.005929167382419109,0.322047621011734,-0.303955614566803,-0.8966026306152344,0.0061536431312561035,0.012650102376937866,0.0013542771339416504,0.8669013288660685,0.06360759233805377,0.21829510572514885,0.4436027334175434,0.30884199365024023,0.34483529265849666,0.8917423248794694
1781116372879491072,2.967250108718872,0.0096853356808424,-0.003434459213167429,0.004657774232327938,0.32201528549194336,-0.304048091173172,-0.8965829014778137,0.005041629076004028,0.002976924180984497,0.0018990635871887207,0.8668866599290532,0.06365274954794341,0.21830453677757336,0.44362034224296076,0.3089390698350422,0.344810326237925,0.8917749942306649
1781116372889526016,2.977285146713257,0.008770273998379707,-0.004934085067361593,0.0018827607855200768,0.32195934653282166,-0.30414679646492004,-0.896569550037384,0.0026256144046783447,-0.003302544355392456,0.001962006092071533,0.8668802851715051,0.06370952793858757,0.21830330183836802,0.44362529237000586,0.3090426704259631,0.34475981857415794,0.8917796741282563
1781116372899560960,2.9873199462890625,0.00812365859746933,-0.002642035484313965,0.005552862770855427,0.3219153881072998,-0.3042156398296356,-0.8965619206428528,0.0002281665802001953,0.00010797381401062012,0.005265533924102783,0.8668755204826107,0.06374991801452216,0.21830019130508216,0.4436302742121397,0.30911492892974785,0.34471909142641677,0.8917868496337594
1781116372909595904,2.9973549842834473,0.009221679531037807,-0.0016556009650230408,0.004475614055991173,0.32187846302986145,-0.30430465936660767,-0.8965449929237366,0.00363728404045105,0.004362642765045166,0.005538523197174072,0.8668701887858195,0.06379878671362449,0.21830530819418553,0.4436312492762394,0.30920837068199264,0.34468860112395755,0.8917819459301193
1781116372919630080,3.0073890686035156,0.0041856421157717705,-0.0008312198333442211,0.00936624314635992,0.321852445602417,-0.3043874204158783,-0.8965262770652771,0.0008556842803955078,0.002553313970565796,0.0064353346824646,0.8668508692883296,0.0638356286885721,0.2183160198203577,0.44365842556480717,0.30929527103847276,0.34466954351507345,0.8918372833230094
1781116372929665024,3.0174241065979004,-0.0018237809417769313,-0.000258107203990221,0.012294388376176357,0.32181212306022644,-0.3044091463088989,-0.8965333700180054,-0.00035521388053894043,-0.0010412931442260742,0.008609175682067871,0.8668290021716485,0.06384331059058551,0.21830565148787104,0.44370517349614097,0.30931809061263515,0.3446271997624302,0.8919459685027993
1781116372939700224,3.027459144592285,-0.007789261639118195,0.0008026300929486752,0.014108001254498959,0.32178664207458496,-0.3043636977672577,-0.8965579271316528,-0.001580953598022461,-0.0034518539905548096,0.004773259162902832,0.8668050872783645,0.06381356333416274,0.21828620386276687,0.44376571736127224,0.30927037651224676,0.3445933018893343,0.8920929604055013
1781116372949734912,3.037493944168091,-0.012491338886320591,0.00019276607781648636,0.015240644104778767,0.32176610827445984,-0.3042737543582916,-0.89659583568573,0.002589970827102661,-0.000825732946395874,0.0042923688888549805,0.8667812689266686,0.06376064906752468,0.21825826044381463,0.4438335932542298,0.30917595641977424,0.34455957460673153,0.8922615745916661
1781116372959769088,3.047528028488159,-0.015031196177005768,-0.0019923574291169643,0.014440630562603474,0.32172277569770813,-0.30417248606681824,-0.896645724773407,0.00498315691947937,-2.676248550415039e-05,0.007058322429656982,0.8667554616166054,0.06370536843812868,0.21821722391568776,0.44391207250358544,0.3090696198643574,0.34449906265888275,0.8924578143898743
1781116372969804032,3.057563066482544,-0.015803778544068336,-0.003748712595552206,0.017858797684311867,0.3216632902622223,-0.30409231781959534,-0.8966942429542542,0.004798531532287598,-0.002380460500717163,0.00809866189956665,0.8667276202032528,0.06366276269869037,0.21817407159964605,0.4439935498268807,0.3089854721410989,0.34442307371704284,0.8926598185773901
1781116372979838976,3.0675981044769287,-0.014595502987504005,0.0016804076731204987,0.017548538744449615,0.3216056525707245,-0.304017037153244,-0.8967404365539551,0.0030250847339630127,0.00039765238761901855,0.009441852569580078,0.8666950701032652,0.06361990788258713,0.21813364324590004,0.4440830768527433,0.3089064605879137,0.34434977447433723,0.8928797434396083
1781116372989874176,3.0776331424713135,-0.012268965132534504,0.002114503178745508,0.015918418765068054,0.321584016084671,-0.3039236068725586,-0.8967798948287964,0.0010020434856414795,0.0014791488647460938,0.008962512016296387,0.8666622752030213,0.06356109570105332,0.2181055929271726,0.4441692423797021,0.30880837912835984,0.34431441440509386,0.8930910432447973
1781116372999908864,3.087667942047119,-0.009543219581246376,0.0050595598295331,0.015728002414107323,0.3215806484222412,-0.30386584997177124,-0.8968006372451782,-0.0011766254901885986,0.002489537000656128,0.007426917552947998,0.866622497430153,0.06351329051939994,0.21809570947184662,0.44425850488343416,0.30874775279864414,0.3443037414605848,0.8933039137167669
1781116373009943040,3.0977020263671875,0.0022985260002315044,0.010790682397782803,0.01745852455496788,0.32160720229148865,-0.3039124608039856,-0.8967753648757935,-0.0041023194789886475,0.0024140477180480957,0.005356907844543457,0.8665744279839103,0.06350800337312956,0.21812625294955942,0.44433817495492883,0.3087966924406553,0.34433893666543347,0.8934803256001717
1781116373019977984,3.1077370643615723,0.010485881939530373,0.012308417819440365,0.017836427316069603,0.3216586112976074,-0.3040558695793152,-0.8967083096504211,-0.004184246063232422,0.008081138134002686,0.004893124103546143,0.8665156374163979,0.06354126197263757,0.2181934057309389,0.444415086851138,0.3089472274735467,0.3444134837079622,0.8936372228724757
1781116373030013184,3.117772102355957,0.01053488440811634,0.013017617166042328,0.01799248903989792,0.3217592239379883,-0.3042246401309967,-0.8966149687767029,-0.0034455955028533936,0.009287506341934204,0.004113137722015381,0.8664532209616134,0.06357614298613216,0.21829015594399587,0.4444843809612863,0.3091243801249073,0.3445459741780734,0.8937696539829033
1781116373040048128,3.127807140350342,0.01116445567458868,0.013252774253487587,0.020542731508612633,0.32187125086784363,-0.3043978214263916,-0.896515965461731,-0.000994175672531128,0.006973475217819214,0.003129124641418457,0.8663881886947995,0.06360980765822262,0.2183936927428357,0.4445555031329183,0.30930617265511406,0.34469178369457115,0.8939048416746884
1781116373050082048,3.137840986251831,-0.0007659733528271317,0.013977953232824802,0.01829156093299389,0.3219829201698303,-0.30454355478286743,-0.8964263796806335,-0.00032764673233032227,0.0031366944313049316,0.005633533000946045,0.8663239499034648,0.06363020917058736,0.2184903000251273,0.44463026264269684,0.30945917626167085,0.3448339190110334,0.8940515738314925
1781116373060116992,3.147876024246216,-0.011699048802256584,0.008689714595675468,0.014805483631789684,0.3220933973789215,-0.3045480251312256,-0.8963851928710938,0.0012708306312561035,0.0027444064617156982,0.00942230224609375,0.8662681684356738,0.06358423267540643,0.21855082017989025,0.4447158292410899,0.3094638636889095,0.3449577048780726,0.8942395779120917
1781116373070151936,3.1579110622406006,-0.010540840215981007,0.008044963702559471,0.01168106310069561,0.32216352224349976,-0.3044872283935547,-0.896380603313446,0.0034437477588653564,0.0015392303466796875,0.008547961711883545,0.8662311071224243,0.06352243377250034,0.21857401469367935,0.4447852763711554,0.30940004399782056,0.3450286122661552,0.8944010900974242
1781116373080187136,3.1679461002349854,-0.008175154216587543,0.006665046326816082,0.008456241339445114,0.32219433784484863,-0.304428368806839,-0.8963895440101624,0.0025431811809539795,0.0016329586505889893,0.0066648125648498535,0.866202824649906,0.06347325356980356,0.21857809581926382,0.4448454458794678,0.30933825115186175,0.3450558902561934,0.894544267711476
1781116373090221056,3.1779799461364746,0.0028229025192558765,0.006787285674363375,0.009961193427443504,0.3221987783908844,-0.3044329285621643,-0.8963863849639893,0.0007687211036682129,0.006337225437164307,0.007058382034301758,0.8661804719255747,0.0634637205538916,0.21858446238003815,0.44488720222532585,0.30934304533329376,0.3450613929828889,0.894639795594645
1781116373100256000,3.1880149841308594,0.009281867183744907,0.0040337098762393,0.009439746849238873,0.32219845056533813,-0.30444175004959106,-0.89638352394104,0.0008301138877868652,0.0066054463386535645,0.003713846206665039,0.8661644631088824,0.06346032484223627,0.21858873511996557,0.44491679032817316,0.30935230756861987,0.3450620868169074,0.8947071421323723
1781116373110290944,3.198050022125244,0.008870408870279789,0.0011500390246510506,0.008938007056713104,0.3221818804740906,-0.3044595718383789,-0.8963834047317505,0.002265751361846924,0.005387306213378906,0.0031796693801879883,0.8661513427327736,0.06346591294895423,0.21858721317719507,0.44494230490849457,0.30937101052521443,0.3450457342221793,0.8947653773574273
1781116373120326144,3.208085060119629,-2.0021921955049038e-05,0.0012283362448215485,0.01059875451028347,0.32217034697532654,-0.30446410179138184,-0.8963860273361206,-0.00014889240264892578,0.00029540061950683594,0.0036858320236206055,0.8661359966802306,0.06346280770115661,0.21858513744936592,0.444973657470474,0.30937576863217925,0.34503342772984064,0.8948382012405657
1781116373130360064,3.2181191444396973,-0.004856855142861605,-0.002294226549565792,0.00842907652258873,0.3221493065357208,-0.30445918440818787,-0.8963952660560608,-0.0006313621997833252,-0.0016473829746246338,0.003252565860748291,0.8661176102705209,0.06345529137011961,0.21857675636276444,0.44501460807458476,0.30937061308572944,0.3450093377846084,0.8949350377647544
1781116373140395008,3.228153944015503,-0.007849182933568954,-0.0038334010168910027,0.005239675287157297,0.3221516013145447,-0.3044168949127197,-0.8964087963104248,-0.0012135207653045654,-0.0021016597747802734,0.006363630294799805,0.8661056456529641,0.06342781413664973,0.21856925672764563,0.4450454766108037,0.30932620946175293,0.3450068244419182,0.8950109690798677
1781116373150429952,3.2381889820098877,-0.003430732525885105,0.000329652801156044,0.007708425633609295,0.32217100262641907,-0.3043849766254425,-0.8964126706123352,-0.0029418468475341797,-0.0018589496612548828,0.009297192096710205,0.8660907666272964,0.06340088367438297,0.21857263852853165,0.44507657345108526,0.30929268661106957,0.3450245964413875,0.8950848421823501
1781116373160464896,3.2482240200042725,0.0003126068913843483,0.002366438042372465,0.006820261012762785,0.322189599275589,-0.3044032156467438,-0.8963997960090637,-0.0008852779865264893,0.0007990896701812744,0.00826197862625122,0.8660734515175651,0.06339798683934661,0.21858820957458738,0.4451031391259413,0.3093118575155035,0.34504755764697387,0.8951426117808643
1781116373170500096,3.2582590579986572,0.0013443154748529196,0.006340673193335533,0.0124363349750638,0.3222174048423767,-0.3043999671936035,-0.8963908553123474,-0.002744138240814209,0.005541324615478516,0.009550034999847412,0.86605086962998,0.06338006100648037,0.21860358529298968,0.4451419819633342,0.3093084532304016,0.3450781765317195,0.8952303824688427
1781116373180534016,3.2682931423187256,-0.007133325096219778,0.004419469274580479,0.008799255825579166,0.3222576975822449,-0.30437207221984863,-0.8963858485221863,-0.000587165355682373,0.003361940383911133,0.004112958908081055,0.8660236434483095,0.0633451326022036,0.21861943366440198,0.4451921516115042,0.30927916006242734,0.3451197545195528,0.895346156565393
1781116373190568960,3.2783279418945312,-0.01943766139447689,-0.0016368255019187927,0.010469856671988964,0.322299987077713,-0.304225355386734,-0.8964204788208008,0.0037803351879119873,-0.0014997422695159912,0.0031862258911132812,0.8660068678022654,0.06325550212667301,0.2186058248794869,0.4452442248742907,0.30912513934811553,0.3451492668939046,0.8954797854904694
1781116373200603904,3.288362979888916,-0.014830660074949265,-0.004369495436549187,0.002038022968918085,0.32226651906967163,-0.3041017949581146,-0.8964744210243225,0.005370199680328369,-0.001760631799697876,0.0031028389930725098,0.8660004201440581,0.06319683580768533,0.21856108329002621,0.44528702479765925,0.3089954350476139,0.34509703274629017,0.8955955056012409
1781116373210639104,3.298398017883301,-0.020355386659502983,-0.0032586902379989624,0.005754996556788683,0.3222119212150574,-0.30399951338768005,-0.8965287208557129,-0.00031250715255737305,0.0018602311611175537,0.005568027496337891,0.8659987038388043,0.06315512485734191,0.21851100804599005,0.44532078982677137,0.308888051213266,0.34502381425203416,0.8956896270934186
1781116373220673024,3.308432102203369,-0.015179799869656563,-0.005932770669460297,0.006910009775310755,0.32215410470962524,-0.3039270043373108,-0.896574079990387,-0.002345144748687744,0.003511965274810791,0.005643904209136963,0.8659871417991551,0.06312408338014587,0.2184680785869357,0.4453687616844583,0.30881195296354397,0.3449506019954387,0.8958134309355374
1781116373230708224,3.318467140197754,-0.01810847781598568,-0.0038334010168910027,0.012415562756359577,0.32206612825393677,-0.30388927459716797,-0.8966184854507446,-0.0022419095039367676,8.678436279296875e-05,0.005444169044494629,0.8659694964881578,0.06311318052161179,0.21842042787430754,0.44542787632975184,0.3087723483593201,0.34484793130235564,0.8959613946250142
1781116373240742912,3.3285019397735596,-0.020444335415959358,-0.0005666343495249748,0.013410786166787148,0.322043240070343,-0.30378198623657227,-0.8966630697250366,-0.0006778836250305176,-0.0020194053649902344,0.004817366600036621,0.8659448607561429,0.06305170685028376,0.21838713769881998,0.4455010027047645,0.308659732039615,0.3448095129553846,0.8961444895914098
1781116373250777856,3.3385369777679443,-0.015992330387234688,-0.0003730226308107376,0.00740589015185833,0.3220219314098358,-0.3036399185657501,-0.8967188596725464,0.004546701908111572,0.004354029893875122,0.0024164915084838867,0.8659288254035298,0.06297686713603065,0.21834489678736144,0.4455632774491302,0.3085106124223737,0.3447686713611149,0.8963062468139308
1781116373260812032,3.3485710620880127,-0.0009960704483091831,0.005752247758209705,0.003916084300726652,0.3220372498035431,-0.30356475710868835,-0.8967387676239014,0.01147410273551941,0.012625455856323242,0.0010479092597961426,0.865914816245204,0.0629295360050778,0.218335711862963,0.44560167936895706,0.30843173966665094,0.344776731146294,0.8964022938701149
1781116373270846976,3.3586061000823975,0.006037071347236633,0.006966116838157177,0.0005636970745399594,0.3221069872379303,-0.30361244082450867,-0.8966975808143616,0.007040351629257202,0.012795180082321167,-0.0029911398887634277,0.8659022829623907,0.06293403826564765,0.21838155985957775,0.44560307416331185,0.30848179060134606,0.3448602250112789,0.8963944534801008
1781116373280882176,3.3686411380767822,-0.002087433822453022,0.006225890945643187,0.0032779909670352936,0.3221741020679474,-0.3036535978317261,-0.8966595530509949,0.0023193061351776123,0.008319735527038574,0.00022095441818237305,0.8658914756211507,0.06293664611625986,0.21842436296597895,0.44560276303930574,0.3085249968170262,0.3449400248736163,0.8963835941589923
1781116373290916864,3.378675937652588,-0.011411693878471851,0.0035329025704413652,0.006664732471108437,0.3221970796585083,-0.3036246597766876,-0.896661102771759,-0.001365751028060913,0.006063014268875122,0.004967987537384033,0.8658778262739663,0.06291116521271968,0.21842994117601452,0.44563005576986053,0.3084946119009699,0.3449621685326656,0.8964480562155095
1781116373300951040,3.3887100219726562,-0.009517121128737926,0.002473896834999323,0.009290343150496483,0.3221924304962158,-0.30354583263397217,-0.8966894149780273,-0.0018188953399658203,0.001345515251159668,0.007315635681152344,0.8658626467127956,0.06286519474162172,0.21841072889171106,0.4456754208087154,0.3084118825543763,0.3449475303199064,0.896562229925711
1781116373310985984,3.398745059967041,-0.007573279552161694,0.00017212703824043274,0.008041853085160255,0.32217779755592346,-0.3035179078578949,-0.8967041373252869,-0.0008735060691833496,0.002416253089904785,0.01000070571899414,0.8658423611241909,0.0628440739882537,0.2183999793110539,0.445722973543947,0.30838256371332895,0.34492786625004107,0.8966764186454226
1781116373321021184,3.408780097961426,-0.001768387039192021,0.004649300128221512,0.008000574074685574,0.3221856951713562,-0.3035165071487427,-0.8967018127441406,-0.002468287944793701,0.005725979804992676,0.007541656494140625,0.8658187441118246,0.06283030748857403,0.21840663971939836,0.4457675789291535,0.3083811097784904,0.34493649060378034,0.8967789914761314
1781116373331056128,3.4188151359558105,-0.0032871877774596214,0.0026218355633318424,0.008589399047195911,0.3222155272960663,-0.3035169243812561,-0.8966909050941467,-0.004436016082763672,0.003834336996078491,0.003059983253479004,0.8657955655848897,0.06281354103245579,0.21842389485285155,0.44580641442717134,0.3083815332397369,0.34496980138839134,0.8968662119159125
1781116373341090816,3.428849935531616,-0.0053535345941782,0.0030266358517110348,0.011438715271651745,0.3222584128379822,-0.3034589886665344,-0.8966951370239258,-0.00652351975440979,-0.0011064410209655762,0.004132270812988281,0.8657744100981155,0.06276611735767892,0.218432726954195,0.44584985381455405,0.3083207440045016,0.3450106656638966,0.8969697217879038
1781116373351124992,3.4388840198516846,-0.0027375114150345325,-4.372233524918556e-05,0.011208884418010712,0.322249174118042,-0.3033936321735382,-0.8967205882072449,-0.004515409469604492,-0.001202315092086792,0.002570807933807373,0.8657554042341656,0.06272580525367974,0.2184151649225211,0.4459013261771686,0.3082521479765676,0.34499251972358785,0.8970969502806199
1781116373361159936,3.4489190578460693,0.010131681337952614,-0.0004258863627910614,0.005425563547760248,0.32223525643348694,-0.3034250736236572,-0.8967149257659912,0.0009458959102630615,0.0017282664775848389,0.001603841781616211,0.8657394488456921,0.06273632003182071,0.21841858820783663,0.4459291840374717,0.308285129443998,0.34498077469356436,0.8971588454481503
1781116373371195136,3.458954095840454,0.021148648113012314,-0.00014066137373447418,0.0067369043827056885,0.322208046913147,-0.3035719692707062,-0.8966749906539917,0.0036739110946655273,0.006284981966018677,0.0083082914352417,0.8657224276476941,0.0628065931361832,0.21844412154722953,0.4459397229056123,0.3084393169128422,0.34496806703853955,0.8971685478239068
1781116373381230080,3.468989133834839,0.027417995035648346,0.002913451287895441,0.004235929809510708,0.3222093880176544,-0.3038233816623688,-0.8965893387794495,0.0007886588573455811,0.008916765451431274,0.011686384677886963,0.865697284307288,0.06291972047991001,0.2185095763211052,0.4459404572011781,0.30870318837388705,0.3449998055573272,0.8971413520806537
1781116373391264000,3.479022979736328,0.016690781340003014,0.003422381589189172,0.00370702613145113,0.32222989201545715,-0.30405768752098083,-0.8965025544166565,-0.0015511810779571533,0.003841012716293335,0.012377798557281494,0.8656757358577,0.06302242883497967,0.21857926887617743,0.44593365993355666,0.30894912183220374,0.34505086717353317,0.8970971913809445
1781116373401298944,3.489058017730713,-0.00010577568900771439,0.0022741598077118397,0.004034328740090132,0.3222407400608063,-0.30413907766342163,-0.8964710235595703,-0.0038355886936187744,-0.0039053261280059814,0.012529432773590088,0.8656611635713317,0.06305393445540823,0.21860621112016237,0.4459443172659639,0.30903456648427324,0.3450727532786667,0.8971116314527208
