time,seconds_elapsed,rotationRateX,rotationRateY,rotationRateZ,gravityX,gravityY,gravityZ,accelerationX,accelerationY,accelerationZ,quaternionW,quaternionX,quaternionY,quaternionZ,pitch,roll,yaw
1781556225787075072,0.03022289276123047,0.03008502535521984,-0.07033111155033112,0.07999224960803986,-0.5351662635803223,-0.05807149410247803,-0.8427483439445496,-0.038304805755615234,-0.04860271140933037,-0.06475287675857544,-0.4522455099140106,-0.26013926372239454,0.10465847979341794,-0.8466687783134725,0.058104182185460346,-0.5657758293310474,2.1773057902550605
1781556225797110016,0.040257930755615234,0.2251698225736618,-0.0436001680791378,0.15071968734264374,-0.5358186364173889,-0.05864308029413223,-0.8422941565513611,-0.036553800106048584,-0.06278635561466217,-0.06761795282363892,-0.4516932510622967,-0.26067265265014766,0.1044159740647764,-0.8468296050571076,0.058676744207081175,-0.5665713968058465,2.178670856623867
1781556225807144960,0.0502927303314209,0.3292056918144226,0.02068481221795082,0.08035869896411896,-0.5364077687263489,-0.060085464268922806,-0.841817319393158,-0.03688013553619385,-0.021518543362617493,-0.040934085845947266,-0.4507837403907007,-0.2614352262772443,0.10364822885629976,-0.8471733493787329,0.06012167686496671,-0.5673257898298614,2.1811260055821844
1781556225817179904,0.060327768325805664,0.20589865744113922,-0.03322768956422806,0.058380432426929474,-0.5364001393318176,-0.06224196031689644,-0.841665506362915,-0.03861206769943237,0.003083646297454834,0.011114358901977539,-0.450172176380576,-0.2620420805727571,0.10247529184141367,-0.8474537853145687,0.062282217904906303,-0.5674010812161224,2.1831588537429054
1781556225827215872,0.07036375999450684,-0.013988160528242588,-0.07246563583612442,0.06612836569547653,-0.5369190573692322,-0.06266758590936661,-0.8413029909133911,-0.014243662357330322,0.014571890234947205,-0.07106578350067139,-0.4497431387194136,-0.26245719039611354,0.10229722159134415,-0.847574618992177,0.06270867490251789,-0.5680347472864424,2.184212785177993
1781556225837251072,0.0803987979888916,-0.12471254169940948,0.03543992340564728,0.025230733677744865,-0.5370776653289795,-0.061780523508787155,-0.8412673473358154,0.029097318649291992,-0.019518304616212845,-0.02732396125793457,-0.4496396450836919,-0.2623281156348136,0.10271462156400962,-0.8476189414531851,0.06181989266346949,-0.5681879554685193,2.184192029477374
1781556225847286016,0.09043383598327637,-0.12146934121847153,0.11501943320035934,-0.00015797841479070485,-0.536528468132019,-0.06056543439626694,-0.8417060375213623,-0.007279515266418457,-0.028698474168777466,0.037598371505737305,-0.44978072856078444,-0.2617367065440739,0.10315458129039436,-0.8476735344975991,0.060602524737588086,-0.5674876409718724,2.183606857529335
1781556225857320960,0.10046887397766113,-0.15792164206504822,0.3486672043800354,0.3095830976963043,-0.5346298813819885,-0.059128426015377045,-0.8430152535438538,-0.034950196743011475,-0.008727401494979858,0.03683239221572876,-0.4496766730289501,-0.2604515140916941,0.10323457066618343,-0.8481147068693384,0.059162933568706166,-0.5651789056771488,2.1837348906972887
1781556225867356160,0.1105039119720459,-0.25951191782951355,0.19065174460411072,0.15434585511684418,-0.5327038168907166,-0.05551673099398613,-0.8444788455963135,-0.005900919437408447,-0.01124047115445137,0.025036096572875977,-0.44917722826100825,-0.2586646389401358,0.10417861439519,-0.8488104906380092,0.055545287250665515,-0.5627648140499106,2.1842087296774246
1781556225877392128,0.12053990364074707,-0.2026856392621994,-0.11346113681793213,0.04555198550224304,-0.5326452255249023,-0.05299385264515877,-0.8446778655052185,-0.06705570220947266,-0.10653679072856903,-0.0015592575073242188,-0.4490915383159922,-0.2580229835960984,0.10528624256210327,-0.8489144484660182,0.05301868777546569,-0.5626087968045532,2.183732417013577
1781556225887426816,0.13057470321655273,-0.12440095096826553,-0.095416359603405,0.03824959695339203,-0.533638060092926,-0.05143759399652481,-0.844147264957428,0.0706254243850708,-0.005355618894100189,-0.0339961051940918,-0.4491066700254627,-0.25812818246682834,0.10628368200724106,-0.8487501504442838,0.05146030428575111,-0.5637331851728095,2.183125290197833
1781556225897462016,0.1406097412109375,-0.18179021775722504,-0.056363366544246674,0.09750226885080338,-0.5343075394630432,-0.04980569705367088,-0.8438215851783752,0.12454801797866821,0.04579264670610428,-0.043919503688812256,-0.448949266859155,-0.2580765079892692,0.10717142097239743,-0.8487375651434919,0.049826310748542615,-0.5644739507948839,2.1829494686605675
1781556225907496960,0.15064477920532227,-0.3373206853866577,-0.10549682378768921,0.1875125914812088,-0.5350552797317505,-0.04698307812213898,-0.8435095548629761,-0.052194416522979736,-0.03695552423596382,-0.04917532205581665,-0.448643067854059,-0.25778959598430184,0.10858054737957282,-0.8488074456738954,0.04700037860457463,-0.565273520452577,2.1827816906304705
1781556225917531904,0.16067981719970703,-0.5614637732505798,-0.03975549340248108,0.2875331938266754,-0.5359411835670471,-0.04191536828875542,-0.8432141542434692,-0.03975766897201538,-0.06330923736095428,-0.03169429302215576,-0.4481359414168394,-0.2570464322771847,0.11099569788931513,-0.8489884100173383,0.04192765091138568,-0.5661806669197227,2.182438835358861
1781556225927567872,0.1707158088684082,-0.4837793707847595,-0.022148272022604942,0.18161475658416748,-0.5360236763954163,-0.0356149859726429,-0.8434513807296753,-0.00996631383895874,-0.0634450614452362,-0.024026036262512207,-0.44783483729338724,-0.2555804292042686,0.11381109058805511,-0.849217116471481,0.035622520984269594,-0.5661230150560699,2.1813800463710633
1781556225937603072,0.18075084686279297,-0.3695553243160248,-0.1566232591867447,0.18833445012569427,-0.536813497543335,-0.030935581773519516,-0.8431336283683777,0.002343893051147461,0.03603202849626541,-0.033880531787872314,-0.4475443285576141,-0.2548638851815569,0.1160930121284348,-0.8492767457233303,0.030940518055123892,-0.5669604076602969,2.1806252221365505
1781556225947637504,0.19078540802001953,-0.20222465693950653,-0.21118290722370148,0.16157153248786926,-0.5384880900382996,-0.02773400768637657,-0.842176616191864,0.012807607650756836,0.005364628508687019,-0.06953603029251099,-0.4470477015169572,-0.25497715630110557,0.11789127974405315,-0.8492566053206704,0.02773756387888211,-0.5688877653647494,2.180616977237912
1781556225957672448,0.2008202075958252,-0.12857040762901306,-0.15022927522659302,0.2192007452249527,-0.5405027270317078,-0.025257881730794907,-0.8409630656242371,0.029440104961395264,-0.07380218058824539,-0.07927924394607544,-0.4461385378970506,-0.2554963179574835,0.1193318873180802,-0.8493774371318537,0.025260568586876316,-0.5712395439537118,2.181719286173306
1781556225967707392,0.21085524559020996,-0.11170566082000732,-0.2170911282300949,0.1909046620130539,-0.5419142246246338,-0.02319490723311901,-0.8401136994361877,-0.04136824607849121,-0.13635098934173584,-0.07918256521224976,-0.4454329308008802,-0.25579215800841076,0.1204721173522795,-0.8494977901342394,0.02319698663587152,-0.5728866425935806,2.1825532347755394
1781556225977743360,0.22089123725891113,0.4122779369354248,1.0977351665496826,-1.6415557861328125,-0.5409602522850037,-0.024983789771795273,-0.84067702293396,-0.07258039712905884,-0.09032687544822693,-0.04019761085510254,-0.4467611375545219,-0.25556821951651404,0.11977637779120347,-0.8489658417793534,0.024986389989076863,-0.5717792522148052,2.1800979042993456
1781556225987778304,0.2309262752532959,-0.06799706816673279,0.16711832582950592,-0.5274521708488464,-0.5369832515716553,-0.031245002523064613,-0.843014121055603,0.06394553184509277,0.05021169036626816,0.013912558555603027,-0.45058517871483694,-0.25460613818357786,0.11691304907894888,-0.8476320834476989,0.031250087862230796,-0.5671678948291141,2.1735166485115984
1781556225997813504,0.24096131324768066,0.4222349524497986,1.5661593675613403,-1.6494616270065308,-0.540056586265564,-0.02575180120766163,-0.8412346243858337,0.23446881771087646,0.20283006131649017,0.20282220840454102,-0.44917028313972435,-0.2549692943172888,0.11988883241876361,-0.8478581959636646,0.02575464898970577,-0.5707172477816835,2.174789834773693
1781556226007848448,0.25099635124206543,-1.2902806997299194,-0.7748523950576782,1.5146820545196533,-0.5380628705024719,-0.020920809358358383,-0.8426450490951538,-0.4123308062553406,-0.6460255980491638,0.12406289577484131,-0.45044143427415617,-0.2526180895962933,0.12190809191147525,-0.8475996003318598,0.020922335644787054,-0.5682770310841021,2.170751518329373
1781556226017884416,0.2610323429107666,-1.4694312810897827,0.23160703480243683,0.7951170206069946,-0.5421990752220154,-0.0011090158950537443,-0.8402493000030518,0.18326663970947266,0.19695556163787842,0.14736300706863403,-0.4458700686107999,-0.2505033619859775,0.13085641985006477,-0.8493082980463615,0.0011090161565833257,-0.5730524838102543,2.175056428306818
1781556226027919616,0.27106738090515137,-1.5637058019638062,0.03569532185792923,0.5216918587684631,-0.5410524606704712,0.015322434715926647,-0.8408492803573608,-0.3625730276107788,-0.3374507427215576,0.10357511043548584,-0.44533606621818933,-0.24605152027082175,0.1379638387755833,-0.8497649422055352,-0.015323034340924925,-0.571763592886682,2.171653775941665
1781556226037954560,0.28110241889953613,-1.1150792837142944,-0.2552957832813263,0.5362164974212646,-0.5419639348983765,0.028907986357808113,-0.8399044275283813,0.21524274349212646,0.11795786023139954,0.014693856239318848,-0.44522203709998304,-0.24324805886178882,0.14449280328937975,-0.8495467384489502,-0.028912014732871964,-0.57304190968243,2.1676384410452885
1781556226047989248,0.2911372184753418,-0.6516181230545044,-0.004509624093770981,0.47537660598754883,-0.5428805947303772,0.039153821766376495,-0.8388966917991638,0.2458682656288147,0.2281801551580429,-0.11465555429458618,-0.45286334650984833,-0.23987828685314241,0.15169070646877705,-0.8452000668914799,-0.03916383388176958,-0.574359540814536,2.146263506043341
1781556226058024448,0.30117225646972656,-0.05495769903063774,0.03652249649167061,0.39899662137031555,-0.5426007509231567,0.044745612889528275,-0.8387981057167053,-0.12133967876434326,-0.039420291781425476,-0.19036144018173218,-0.45158021610901433,-0.23861048789222097,0.15383753008082632,-0.8458571926290761,-0.04476055610741155,-0.5741779733627794,2.1476207339524787
1781556226068060416,0.31120824813842773,0.07302184402942657,-0.14135882258415222,0.4748525023460388,-0.5421720147132874,0.04555417224764824,-0.8390317559242249,0.029247820377349854,0.02307986468076706,-0.13441795110702515,-0.4500434346267871,-0.23848418518202438,0.15365353794825434,-0.8467447644373075,-0.045569944253630604,-0.5736905455704864,2.151092993732401
1781556226078095360,0.3212432861328125,-0.6560834646224976,-0.09265852719545364,0.5318547487258911,-0.5433680415153503,0.05100318416953087,-0.8379437923431396,0.03793591260910034,0.09023216366767883,-0.02001214027404785,-0.44773112375777113,-0.2381735719436618,0.15588920474393497,-0.8476489029498895,-0.051025323301509926,-0.5752876468394141,2.1545837948340054
1781556226088130560,0.33127832412719727,-1.3650939464569092,-0.09381353855133057,0.29269734025001526,-0.5437749028205872,0.06189872696995735,-0.8369452357292175,-0.14520514011383057,-0.17043450474739075,0.010391950607299805,-0.4471677801686304,-0.23585498341859215,0.16093414322811928,-0.847651784000973,-0.0619383237876525,-0.5761740319428574,2.1523653323828027
1781556226098165504,0.34131336212158203,-1.9412816762924194,-0.2880469560623169,0.2970534563064575,-0.5452174544334412,0.07731270790100098,-0.8347219228744507,-0.010294020175933838,0.015537016093730927,0.09679162502288818,-0.4478097042300728,-0.23272769051890274,0.16875091183371876,-0.8466565970244337,-0.07738993653480028,-0.5786022742862136,2.1455240011789316
1781556226108200448,0.3513484001159668,-2.2283623218536377,-0.22948907315731049,0.2716575562953949,-0.5471703410148621,0.0964849665760994,-0.8314417004585266,0.03621453046798706,0.0753442570567131,0.11066228151321411,-0.448815850885138,-0.22885751385576902,0.17861521595673277,-0.8451539935470541,-0.096635299187012,-0.5820471791606229,2.1362772026380643
1781556226118236416,0.36138439178466797,-1.8733340501785278,-0.25905880331993103,0.2815983295440674,-0.5488299131393433,0.11550027132034302,-0.8279163241386414,-0.07229435443878174,-0.03793983906507492,0.024708926677703857,-0.44987593292455647,-0.22484752681819473,0.18837575377427582,-0.8435460589544396,-0.115758623178718,-0.5853938925584518,2.1267867921175596
1781556226128271616,0.37141942977905273,-0.991157054901123,-0.2651712894439697,0.30921319127082825,-0.5506795644760132,0.1290828138589859,-0.8246755003929138,0.019032835960388184,0.0605381578207016,-0.09315592050552368,-0.4499809566137276,-0.22243878830725727,0.19540532893017565,-0.8425288427401831,-0.12944399959532502,-0.5887543150278928,2.1212144389618515
1781556226138306304,0.3814542293548584,-0.029346609488129616,-0.26150786876678467,0.34343668818473816,-0.5524019598960876,0.1350165605545044,-0.8225707411766052,0.04692399501800537,0.1265038251876831,-0.16317754983901978,-0.4489075778747099,-0.22209064590679556,0.19847006369179426,-0.8424769549386691,-0.13543017746703542,-0.591379562064235,2.1211303719016112
1781556226148341504,0.39148926734924316,0.5428346395492554,-0.26584774255752563,0.3404475450515747,-0.5541031360626221,0.13452820479869843,-0.8215059041976929,0.02004551887512207,0.12802976369857788,-0.13776838779449463,-0.4468499229372888,-0.2235161668689559,0.19821096088357296,-0.8432545133302065,-0.13493732987411455,-0.5934039373685392,2.12570367445077
1781556226158376448,0.40152430534362793,0.5358172059059143,-0.2762826979160309,0.2938576638698578,-0.5559154152870178,0.13154463469982147,-0.8207643032073975,0.012733101844787598,0.08674760162830353,-0.08635538816452026,-0.44458290502851194,-0.22564110099083332,0.196733138514331,-0.8442324065030578,-0.13192698897390592,-0.5953378799032575,2.1316467576763785
1781556226168412416,0.4115602970123291,0.09058831632137299,-0.293722927570343,0.24514979124069214,-0.5579033493995667,0.13035522401332855,-0.8196043968200684,-0.02392953634262085,0.024994507431983948,0.005273342132568359,-0.4427809777265828,-0.22731193588103404,0.19628315401244092,-0.8448356879659538,-0.13072725283794942,-0.5976540337469364,2.135782837490202
1781556226178447360,0.42159533500671387,-0.417625367641449,-0.23840320110321045,0.14034907519817352,-0.5599085092544556,0.13290417194366455,-0.8178257346153259,-0.061765074729919434,-0.012481793761253357,0.08612102270126343,-0.44185284897282434,-0.22790079199908758,0.19785943744411988,-0.8447951709204344,-0.13329856831826378,-0.6003362493187652,2.1364765158534618
1781556226188482560,0.43163037300109863,-0.7417925000190735,-0.17414219677448273,0.07214125245809555,-0.561528742313385,0.13833053410053253,-0.8158125281333923,-0.06563794612884521,-0.008920758962631226,0.08502334356307983,-0.4418398431465953,-0.22740565514553568,0.20094876087093758,-0.8442059930183202,-0.13877554805094786,-0.6028345458636579,2.1340349454428345
1781556226198517504,0.4416654109954834,-0.9903461337089539,-0.2131282091140747,0.06850603967905045,-0.562981903553009,0.1459202617406845,-0.8134855031967163,-0.011816680431365967,0.02653457224369049,-0.06552755832672119,-0.4423893840540837,-0.2261770704520595,0.20518571728109605,-0.8432285872945879,-0.14644312075294666,-0.6053781420880063,2.1294611606176534
1781556226208553472,0.45170140266418457,-0.7760530114173889,-0.3244083821773529,0.13976317644119263,-0.5650063753128052,0.15402045845985413,-0.8105834126472473,0.035099148750305176,-0.044309765100479126,-0.09983223676681519,-0.44275526417809336,-0.2251435320774805,0.20980630970403874,-0.8421754011174074,-0.15463600520562046,-0.6087344054279898,2.1248944844088284
1781556226218588416,0.46173620223999023,-0.0816822499036789,-0.3749663829803467,0.18749475479125977,-0.5676026940345764,0.158579483628273,-0.8078859448432922,0.06114828586578369,-0.0958506166934967,-0.157690167427063,-0.44219868446892313,-0.22546158280535578,0.21265960892233465,-0.8416669167463282,-0.15925176500755864,-0.612453928150255,2.1236489607072717
1781556226228623360,0.471771240234375,0.4493432641029358,-0.4006512463092804,0.1949010044336319,-0.5705731511116028,0.1582760214805603,-0.8058505058288574,0.05340701341629028,-0.0448116660118103,-0.10979890823364258,-0.44060685570357505,-0.2273867117027746,0.21300244524321663,-0.8418971603097257,-0.15894441874660756,-0.6161005500493024,2.126618723975811
1781556226238658304,0.48180627822875977,0.5149012804031372,-0.426650732755661,0.15913954377174377,-0.5737199783325195,0.15517616271972656,-0.8042174577713013,0.03433704376220703,-0.023889541625976562,-0.06005561351776123,-0.4389377247582004,-0.23008452769578705,0.2120197510446854,-0.8422840737111165,-0.1558057719407393,-0.6196555493143456,2.1308092514694685
1781556226248693504,0.49184131622314453,0.3915582597255707,-0.3960382342338562,0.13964706659317017,-0.5768675804138184,0.1523696929216385,-0.8025006651878357,0.0029845237731933594,-0.05613251030445099,-0.04250055551528931,-0.4373375287024097,-0.2326964582087991,0.2111918870732117,-0.8426069046161968,-0.15296552513108996,-0.6232569982436021,2.134723129597689
1781556226258729472,0.5018773078918457,0.26642513275146484,-0.3057216703891754,0.1267661601305008,-0.5795303583145142,0.1505100578069687,-0.8009315133094788,-0.04756009578704834,-0.03890727460384369,0.01531749963760376,-0.4360105786036992,-0.2347790305562357,0.21074404314972564,-0.8428288819382909,-0.15108418035380453,-0.6263705189266033,2.1377698844617536
1781556226268764416,0.5119123458862305,0.39457935094833374,0.5975533723831177,0.13384537398815155,-0.579752504825592,0.14926376938819885,-0.8010039329528809,-0.09377038478851318,-0.015505239367485046,0.053369104862213135,-0.43518420557359033,-0.23538812680836435,0.20997728908507468,-0.8432772884802042,-0.1498236577466502,-0.6265096076076588,2.14014972391842
1781556226278799616,0.5219473838806152,0.7508158087730408,1.312670350074768,0.4123467803001404,-0.5654050707817078,0.14576275646686554,-0.8118314743041992,-0.09920674562454224,-0.01459820568561554,0.014941215515136719,-0.4351420467709169,-0.22915460581540248,0.2038931842621579,-0.8465029460192276,-0.14628391717934416,-0.6083436388518486,2.145954907827429
1781556226288834560,0.531982421875,0.570732593536377,1.108688473701477,0.615238606929779,-0.555929958820343,0.14377892017364502,-0.818699836730957,0.4081028699874878,0.1587112993001938,-0.0734357237815857,-0.432906425530432,-0.22549907791370527,0.1994999568262665,-0.8496716722053274,-0.14427896546639637,-0.5965199320359308,2.15473208579513
1781556226298869248,0.5420172214508057,0.848674476146698,0.38298842310905457,0.09525588899850845,-0.5489892363548279,0.13993549346923828,-0.8240320682525635,0.2942742705345154,-0.02537250518798828,0.14976143836975098,-0.4314265411534617,-0.2233302578823154,0.19521160415479127,-0.851990057992749,-0.14039626387238385,-0.5876955111444547,2.161574688792384
1781556226308905472,0.5520532131195068,0.8461079597473145,0.4292866885662079,-0.034342046827077866,-0.5456600189208984,0.1327291876077652,-0.8274285793304443,-0.32898902893066406,-0.2181631475687027,-0.027704477310180664,-0.4309037482534029,-0.22347857570720722,0.19063846166944362,-0.8532504381347221,-0.1331220282270941,-0.5830001097302232,2.166293915222309
1781556226318940416,0.5620882511138916,0.531439483165741,0.11424326151609421,-0.02029520459473133,-0.5431699752807617,0.12671257555484772,-0.8300061821937561,-0.1912660002708435,-0.08633781969547272,-0.0058702826499938965,-0.4304571674126016,-0.22374134094753403,0.18691366694937017,-0.8542304825325399,-0.12705413422264347,-0.5794739210595955,2.1701230267482328
1781556226328975360,0.5721232891082764,0.08829453587532043,-0.2082303911447525,-0.027897464111447334,-0.5437977313995361,0.12414424866437912,-0.8299832940101624,0.20993542671203613,-0.07288996875286102,0.051540911197662354,-0.43014425654370037,-0.22470735924244023,0.18578202649493467,-0.8543813757177401,-0.12446535976526907,-0.5800158893813383,2.1715870461910125
1781556226339010560,0.5821583271026611,-0.33270809054374695,-0.21822777390480042,-0.0767078772187233,-0.545742928981781,0.12494849413633347,-0.828584611415863,0.20774555206298828,-0.02643776684999466,0.04306221008300781,-0.43029341684343625,-0.22544414957163336,0.18676891395700818,-0.8538968188042491,-0.1252759202917956,-0.5824284262621007,2.170445003572661
1781556226349046528,0.5921943187713623,-0.7907789349555969,0.18310101330280304,0.06822746992111206,-0.5465385317802429,0.1292937695980072,-0.8273927569389343,0.04635542631149292,-0.023413047194480896,0.008667230606079102,-0.4309809526645713,-0.22468295257564194,0.1892648734830073,-0.8532008976345133,-0.1296567425636963,-0.5837595753098747,2.16709304422326
1781556226359081472,0.6022293567657471,-1.3358372449874878,0.8989992141723633,0.5242434740066528,-0.539064347743988,0.14169393479824066,-0.8302605152130127,0.10791200399398804,-0.0029457509517669678,0.022322893142700195,-0.431375249254211,-0.21808499315502672,0.19315457001131023,-0.8538417414043413,-0.14217240340182644,-0.5758628090118814,2.163797159540028
1781556226369116672,0.6122643947601318,-1.6669976711273193,0.3106704354286194,0.39501118659973145,-0.5343095660209656,0.1561214178800583,-0.8307462930679321,0.5331956744194031,-0.09855002164840698,0.0988737940788269,-0.4316659664739304,-0.21238386044525917,0.19879625025730593,-0.8538369794437388,-0.15676268425411452,-0.5715574962889033,2.1592743216902086
1781556226379151616,0.6222994327545166,-1.3191262483596802,0.25991857051849365,0.4260719120502472,-0.5325811505317688,0.1710003763437271,-0.8289247155189514,0.2560613751411438,-0.014887705445289612,0.19168716669082642,-0.4317234478215286,-0.20810752504539165,0.20549670901729927,-0.8532744438646608,-0.17184491856575185,-0.5710821929911492,2.1542218208264527
1781556226389186304,0.6323342323303223,-0.7798309922218323,0.13923902809619904,-0.021883513778448105,-0.5306332111358643,0.18120262026786804,-0.8280060887336731,-0.36748385429382324,-0.05318138003349304,0.0894044041633606,-0.4319153696357888,-0.20476798026658993,0.20992148435616367,-0.8529081718253461,-0.182209180541789,-0.5699206716356628,2.1505684810737287
1781556226399222272,0.6423702239990234,-0.42063209414482117,0.14001014828681946,-0.3146005868911743,-0.5292013883590698,0.1851942241191864,-0.828039288520813,-0.5351601839065552,0.1167619526386261,0.03728306293487549,-0.43360197391257616,-0.20273722328515598,0.2118442527751408,-0.8520616829641762,-0.1862694981190544,-0.5686757540789981,2.1455481933960376
1781556226409257472,0.6524052619934082,-0.3961544334888458,0.06037363409996033,-0.33912110328674316,-0.5287665128707886,0.18686380982398987,-0.8279419541358948,-0.3798028230667114,0.18014058470726013,0.039367735385894775,-0.435530846664288,-0.20165908526964413,0.21298507613654322,-0.8510486391172118,-0.1879687535367473,-0.5683560869128553,2.1405225222756754
1781556226419292416,0.662440299987793,-0.39171653985977173,-0.02717605233192444,-0.24124088883399963,-0.5293280482292175,0.18864835798740387,-0.8271780610084534,-0.1284172534942627,0.05901701748371124,0.08824074268341064,-0.4371751651586465,-0.20110036599732886,0.21440523719932567,-0.8499804799318315,-0.18978561269090588,-0.5692566652053586,2.1358134006561666
1781556226429327360,0.6724753379821777,-0.31984689831733704,-0.000177726149559021,-0.1836598962545395,-0.529755175113678,0.19050852954387665,-0.8264780044555664,-0.08247315883636475,0.06556445360183716,0.09747415781021118,-0.43843973699097816,-0.2005503008395687,0.21573261609702515,-0.8491228030266186,-0.1916801326944059,-0.5700074988950913,2.1320016923762832
1781556226439362560,0.6825103759765625,-0.25828659534454346,-0.09109684824943542,-0.10354775190353394,-0.5303224921226501,0.19205240905284882,-0.8257565498352051,-0.08593416213989258,0.09852069616317749,0.07322365045547485,-0.43930859763249064,-0.200239030819246,0.21685489560049603,-0.8484610572172684,-0.19325306364466543,-0.5708908877261852,2.129192458071265
1781556226449398528,0.6925463676452637,-0.30543839931488037,-0.25263485312461853,0.003133955178782344,-0.5317944884300232,0.19405117630958557,-0.8243414759635925,-0.030110418796539307,-0.0032095015048980713,0.10084593296051025,-0.4396283663981681,-0.2003937232997131,0.21833834067998434,-0.8478783626422542,-0.19529015141765854,-0.5729329649822869,2.127216809492094
1781556226459433472,0.7025814056396484,-0.4280655086040497,-0.41193318367004395,0.0683201476931572,-0.5344629883766174,0.19724251329898834,-0.8218544125556946,0.02265268564224243,-0.08840157091617584,0.12060624361038208,-0.43946343446241476,-0.20096684008616927,0.22064703034178576,-0.8472302276023155,-0.19854437555693147,-0.5765955184919385,2.1255348787016572
1781556226469468416,0.7126162052154541,-0.6924793124198914,-0.5768986940383911,0.10284403711557388,-0.538354218006134,0.2022152543067932,-0.8180976510047913,0.04949313402175903,-0.09528166055679321,0.11915355920791626,-0.43910000961292855,-0.2017612366972027,0.22415081071953988,-0.846309616030377,-0.20361937592835183,-0.5820177770939908,2.123200828026634
1781556226479503360,0.7226512432098389,-1.1494636535644531,-0.8453291058540344,0.16540250182151794,-0.5438293218612671,0.21037177741527557,-0.8123998045921326,0.05364072322845459,-0.10574224591255188,0.12351125478744507,-0.43867516175165544,-0.2025860409874505,0.22969327487115238,-0.8448456029167111,-0.21195523249715828,-0.5899000906885181,2.1191414696275754
1781556226489539328,0.73268723487854,-1.7552480697631836,-1.194809913635254,0.24312499165534973,-0.5516171455383301,0.22332477569580078,-0.803644597530365,0.06211519241333008,-0.17110919952392578,0.12201923131942749,-0.438116947687141,-0.2034313495005034,0.23831365801486315,-0.8425413409219707,-0.2252240653925907,-0.6015362185488276,2.112435034861981
1781556226499574528,0.7427222728729248,-2.2549939155578613,-1.4382805824279785,0.19565920531749725,-0.5617652535438538,0.24076791107654572,-0.791486382484436,0.07630687952041626,-0.21691842377185822,0.11063921451568604,-0.43755993838233964,-0.2043511561663184,0.24999485593579818,-0.8392166000871292,-0.24315695539055182,-0.6172462072583088,2.1024998360653226
1781556226509609472,0.7527573108673096,-1.9662621021270752,-1.6464025974273682,0.19031131267547607,-0.5729138255119324,0.25857263803482056,-0.7777595520019531,0.04186218976974487,-0.18015772104263306,0.09915542602539062,-0.4372693470495714,-0.20557988164828817,0.2624064131624333,-0.8352695940784262,-0.26154429419291064,-0.6348832318758502,2.090670631384401
1781556226519644416,0.7627923488616943,-1.9186404943466187,0.3011626899242401,0.22536836564540863,-0.5760640501976013,0.27512696385383606,-0.7697111964225769,0.017912864685058594,0.029743611812591553,0.02293086051940918,-0.43744669044171264,-0.20306820128053252,0.271859699511231,-0.8327641082854754,-0.27872177215863514,-0.6424864771833965,2.0809488900330373
1781556226529679616,0.7728273868560791,-2.2369580268859863,0.04350584000349045,0.07852138578891754,-0.5743510723114014,0.2915405333042145,-0.7649346590042114,0.11323046684265137,0.22223815321922302,-0.046207308769226074,-0.4391881971432993,-0.19768766018542627,0.2800933162264101,-0.8304101990053258,-0.29583692389910027,-0.6440447835236078,2.0692774299156698
1781556226539715584,0.7828633785247803,-2.971388101577759,0.02710023522377014,0.10363899171352386,-0.5738919377326965,0.31194671988487244,-0.7571904063224792,0.28698092699050903,-0.020747989416122437,0.08530014753341675,-0.4413708298292772,-0.19171240404535295,0.2909487231757788,-0.8269141527264999,-0.31724129673884427,-0.6485525308725554,2.053581069335551
1781556226549750528,0.792898416519165,-3.7093095779418945,0.10251376777887344,0.1329505443572998,-0.5730847120285034,0.33782342076301575,-0.7466252446174622,0.21563231945037842,-0.21231988072395325,0.12170153856277466,-0.44412286593272093,-0.18388270688152705,0.3047532202378544,-0.8222332200823159,-0.3446033931221915,-0.6546493361991853,2.0330652607357065
1781556226559785472,0.8029332160949707,-4.406059741973877,0.23290292918682098,0.18011486530303955,-0.5712729096412659,0.3689083158969879,-0.7331807017326355,0.060988545417785645,-0.2926296591758728,0.121684730052948,-0.4473701299503641,-0.1738584509791436,0.32122095278610907,-0.8163640404952354,-0.3778342161595936,-0.6619104744681841,2.0077755171960354
1781556226569820416,0.8129682540893555,-4.826517105102539,0.24159522354602814,0.24804916977882385,-0.568718671798706,0.40380266308784485,-0.7165908217430115,0.007851362228393555,-0.32732561230659485,0.15766143798828125,-0.4508178828433131,-0.1620974240923606,0.33974844310166125,-0.8093569196202512,-0.4156696762769174,-0.6708538719565831,1.978416484956935
1781556226579856384,0.8230042457580566,-5.139389991760254,0.22710762917995453,0.36499497294425964,-0.5657997727394104,0.440917432308197,-0.6967513561248779,0.0082741379737854,-0.3729395270347595,0.18341517448425293,-0.4539163126041728,-0.14930023941425652,0.3596300508068817,-0.8014584203115395,-0.45662057620120644,-0.6820478957284531,1.9464014139919372
1781556226589891328,0.8330392837524414,-5.240560531616211,0.25684475898742676,0.47817692160606384,-0.5621779561042786,0.47906094789505005,-0.6741338968276978,0.00018155574798583984,-0.36657318472862244,0.15809696912765503,-0.45636165725320627,-0.13569108694845597,0.3801591413966764,-0.7929697045075121,-0.4995845953922568,-0.6950880820265671,1.912848012818601
1781556226599926528,0.8430743217468262,-5.342912197113037,0.24335290491580963,0.5735609531402588,-0.5579256415367126,0.5171619057655334,-0.6490474343299866,0.0011019110679626465,-0.3225208520889282,0.07081568241119385,-0.45824238997578093,-0.12151624492250426,0.4008866309282341,-0.7839244904547804,-0.54353165098432,-0.7100449685961824,1.877745043057267
1781556226609961472,0.8531093597412109,-5.196507453918457,0.2816920280456543,0.7293058037757874,-0.552722156047821,0.5544167160987854,-0.6221898794174194,0.00842595100402832,-0.2561227083206177,0.04121154546737671,-0.4592575455466162,-0.10700347539729646,0.42125444855151767,-0.7747111565126051,-0.5876619643394696,-0.7263410013104921,1.8423799331345487
1781556226619996672,0.8631443977355957,-5.204683780670166,0.26868557929992676,0.8596906661987305,-0.546475350856781,0.5904938578605652,-0.5938701033592224,0.009045541286468506,-0.22367256879806519,-0.011430799961090088,-0.45936375056002765,-0.0922599405215893,0.4410816828190013,-0.7654541403801032,-0.6316706373756982,-0.7438603442629498,1.80700660387935
1781556226630032640,0.8731803894042969,-5.29452657699585,0.18456588685512543,0.9770007729530334,-0.5395391583442688,0.6259693503379822,-0.5630807280540466,-0.0229150652885437,-0.23407787084579468,-0.0040580034255981445,-0.4586618998146193,-0.07718895257083175,0.46097885374954306,-0.7557576611238288,-0.6763738968210156,-0.7640508341449574,1.7699115906364467
1781556226640067584,0.8832154273986816,-5.667717456817627,0.11121084541082382,1.181903600692749,-0.5317540764808655,0.6617303490638733,-0.528536319732666,-0.04782050848007202,-0.3121209740638733,-0.020551204681396484,-0.4568494890165957,-0.06151984550512738,0.48160892386243565,-0.7453567820648093,-0.7231243251525851,-0.7884329299368846,1.7297632653357313
1781556226650102272,0.8932502269744873,-6.018811225891113,0.04682280495762825,1.3399782180786133,-0.5226658582687378,0.6983568668365479,-0.488997220993042,-0.04479330778121948,-0.3806840777397156,-0.03904849290847778,-0.4539564790984053,-0.044657065656026666,0.5034949278126866,-0.7337726119798662,-0.7730992103436005,-0.8186663574544985,1.6839724724049183
1781556226660137472,0.9032852649688721,-6.297414302825928,-0.10319944471120834,1.483390212059021,-0.5126097798347473,0.7345393896102905,-0.4446156919002533,-0.051660239696502686,-0.4470638036727905,-0.046747803688049316,-0.44984797703030555,-0.027133490452575813,0.5262660198832846,-0.721071885920648,-0.8249876047790907,-0.8563115380459991,1.6317888198780965
1781556226670173440,0.9133212566375732,-6.578245639801025,-0.27449503540992737,1.6096360683441162,-0.5016957521438599,0.7695711255073547,-0.39504656195640564,-0.007688403129577637,-0.44944173097610474,-0.03235214948654175,-0.44436707190137437,-0.009176865596750362,0.5499022670737898,-0.7071501416552924,-0.8781692732628644,-0.903771744714478,1.5712521568310291
1781556226680208384,0.923356294631958,-6.835519790649414,-0.4164159595966339,1.6942609548568726,-0.48991361260414124,0.8025890588760376,-0.34034615755081177,0.042632728815078735,-0.3571544885635376,0.029372036457061768,-0.4375776647254104,0.009126962623796636,0.5742330760657943,-0.6918806793117667,-0.9316228026245331,-0.9636319105403034,1.499598979019596
1781556226690243584,0.9333913326263428,-6.864458084106445,-0.6018446683883667,1.7364534139633179,-0.47740739583969116,0.8323281407356262,-0.28162363171577454,0.08374595642089844,-0.27539771795272827,0.042823582887649536,-0.429577858890039,0.027363825534706544,0.598698096340501,-0.6754809899912848,-0.9832948280865778,-1.0378348554481882,1.4150968471671275
1781556226700278528,0.9434263706207275,-6.866026878356934,-0.7846433520317078,1.799790859222412,-0.4641527533531189,0.8579762578010559,-0.22008848190307617,0.1198534369468689,-0.2403157353401184,-0.013096332550048828,-0.42027434701289523,0.04509044254450997,0.6228343389607384,-0.6583416192123285,-1.0313169709844816,-1.1280233696585087,1.3167406167613502
1781556226710313472,0.9534614086151123,-6.930653095245361,-0.9339265823364258,1.779870629310608,-0.450141042470932,0.879206120967865,-0.15610751509666443,0.1430732011795044,-0.24054956436157227,-0.06360374391078949,-0.40983225143735935,0.06233334558486061,0.6465762118300477,-0.6403836637400241,-1.0741933555943537,-1.2369779142879849,1.2013410107056184
1781556226720349440,0.9634974002838135,-6.950260162353516,-1.0509389638900757,1.7630341053009033,-0.4356016218662262,0.8956388235092163,-0.08990204334259033,0.1340879499912262,-0.2604459524154663,-0.08087432384490967,-0.39847176503800374,0.0790825492199354,0.6699215846478761,-0.6214268419846766,-1.1098654208340863,-1.3672680730917928,1.0658981742457765
1781556226730384384,0.9735321998596191,-7.001849174499512,-1.1391388177871704,1.702378511428833,-0.4205475449562073,0.9070027470588684,-0.02204314060509205,0.1379394829273224,-0.27338141202926636,-0.08409696817398071,-0.3863360835145191,0.09535916452248783,0.6927373671634596,-0.6014698996374722,-1.136111279592855,-1.5184289163052822,0.9105484723908813
1781556226740419328,0.9835672378540039,-6.841426372528076,-1.3015365600585938,1.6038726568222046,-0.40530481934547424,0.9129976034164429,0.0465129017829895,0.16235435009002686,-0.21217668056488037,-0.03871560096740723,-0.37352314165595063,0.11081553339901612,0.7148261109512478,-0.580709931823731,-1.1505723209306509,-1.6850567734996795,0.7410083749247632
1781556226750454528,0.9936022758483887,-6.40895414352417,-1.4936450719833374,1.5576199293136597,-0.3896937370300293,0.914011538028717,0.11279015243053436,0.2030940055847168,-0.08353674411773682,-0.003750808537006378,-0.35995827129962277,0.12469006217179436,0.7354233245148807,-0.5603881813944023,-1.1530646358287069,-1.8525304812964978,0.5732545621734041
1781556226760490496,1.0036382675170898,-5.940321922302246,-1.565471887588501,1.5298179388046265,-0.37337374687194824,0.9109714031219482,0.17528048157691956,0.23621249198913574,-0.010794401168823242,0.02262592315673828,-0.3458987363494818,0.13713427653598761,0.7542111324697969,-0.5410303853574093,-1.1456331150112895,-2.0097070366828103,0.4179784171119044
1781556226770525440,1.0136733055114746,-5.368175983428955,-1.5284236669540405,1.5836936235427856,-0.35610881447792053,0.9050340056419373,0.23259428143501282,0.17169108986854553,-0.022892892360687256,0.03654026985168457,-0.3317641290208363,0.14852202124891364,0.7708685695570389,-0.5231017939604176,-1.1314597008770655,-2.149386348748817,0.2813848895027051
1781556226780560384,1.0237083435058594,-4.6669535636901855,-1.4910157918930054,1.700599193572998,-0.33732593059539795,0.8977808356285095,0.28319764137268066,0.11437976360321045,-0.09966987371444702,0.09477782249450684,-0.31775798927651816,0.15921502295392728,0.7850155385746986,-0.5073766785816847,-1.1147048818084055,-2.2691846860464167,0.1652986338549249
1781556226790595584,1.0337433815002441,-3.9041152000427246,-1.5273404121398926,1.7576172351837158,-0.31717953085899353,0.8903477787971497,0.32661592960357666,0.10010802745819092,-0.10738879442214966,0.10093533992767334,-0.3039058949374722,0.16899694512868949,0.7967107361382356,-0.4943007720030376,-1.0981085226962726,-2.370850877546678,0.06849143480329488
1781556226800630528,1.043778419494629,-3.2921907901763916,-1.527998924255371,1.7641196250915527,-0.2961810529232025,0.8833115100860596,0.3633703291416168,0.09180480241775513,0.01042640209197998,0.06814828515052795,-0.29028313834427044,0.17768820104585756,0.8062952747380556,-0.4837878645371596,-1.0828798774541237,-2.457715451750813,-0.012089790442941718
1781556226810666496,1.05381441116333,-2.6179165840148926,-1.415113925933838,1.8255890607833862,-0.27473726868629456,0.8772540092468262,0.39363032579421997,0.05157750844955444,0.03549617528915405,0.04678413271903992,-0.2772939033805437,0.18563586494592302,0.813851634002163,-0.4757025763000891,-1.0701114845112063,-2.532238733309785,-0.07995838930389021
1781556226820701440,1.0638492107391357,-2.164729595184326,-1.345060110092163,1.888427734375,-0.25278863310813904,0.8724823594093323,0.4181778132915497,0.03704458475112915,-0.061614930629730225,0.055958569049835205,-0.2649781068509214,0.19324190599646468,0.8196014071257883,-0.46978484160610623,-1.0602596391752697,-2.597870650820999,-0.13919432816424165
1781556226830736384,1.0738842487335205,-1.8663139343261719,-1.3395031690597534,1.844329833984375,-0.2307005226612091,0.8683192133903503,0.4390889108181,0.0775633305311203,-0.04803723096847534,0.08386027812957764,-0.25307808321051256,0.20044470608872497,0.8242368406474355,-0.465195705441881,-1.0518035348554344,-2.657826386970563,-0.19265124291848776
1781556226840771328,1.0839192867279053,-1.650668740272522,-1.4127707481384277,1.802040934562683,-0.20862111449241638,0.8645570278167725,0.4571852385997772,0.12408743798732758,0.05779099464416504,0.08264017105102539,-0.24135553637816068,0.20697295313717542,0.8281031461818785,-0.46168699994884965,-1.044268271834416,-2.713498460565175,-0.24097252989496673
1781556226850807552,1.0939552783966064,-1.5679807662963867,-1.5073180198669434,1.7383702993392944,-0.18647655844688416,0.8605600595474243,0.47398626804351807,0.16992077231407166,0.11411035060882568,0.07131707668304443,-0.22949302850784828,0.21286345922129596,0.8316743843093681,-0.4586282400948263,-1.036368249531293,-2.766769918092389,-0.2857262185665702
1781556226860842496,1.1039903163909912,-1.4680451154708862,-1.6158450841903687,1.706629753112793,-0.16410116851329803,0.8563220500946045,0.4896765649318695,0.17615561187267303,0.10859787464141846,0.06919175386428833,-0.2173923209288296,0.21816324986926355,0.8350108264621533,-0.45596295688060984,-1.0281053342333064,-2.8182335836613026,-0.3274266820031964
1781556226870877440,1.114025354385376,-1.3739713430404663,-1.664560317993164,1.6643221378326416,-0.14144618809223175,0.8517784476280212,0.5044470429420471,0.15606410801410675,0.06530541181564331,0.07973581552505493,-0.20506208008319105,0.22300662898983342,0.8381476904696437,-0.4535704290849719,-1.0193705522225212,-2.868214447962589,-0.366631590346637
1781556226880912640,1.1240603923797607,-1.1443456411361694,-1.652734398841858,1.645615577697754,-0.11882036179304123,0.8474740982055664,0.5173678398132324,0.10131854563951492,0.0766439437866211,0.10984468460083008,-0.19287628293767325,0.22745210608680258,0.8408028669255952,-0.45179071969486884,-1.0112087232704305,-2.9158441538582984,-0.4030448276792626
1781556226890947584,1.1340954303741455,-0.8131582736968994,-1.539167881011963,1.653749704360962,-0.09642746299505234,0.8440656065940857,0.5274991393089294,0.03160812705755234,0.10750311613082886,0.10847204923629761,-0.18124420347910736,0.23173112192412862,0.8426448016504062,-0.4510000847355238,-1.0048202647312088,-2.960787788169849,-0.4372109215594038
1781556226900983552,1.1441314220428467,-0.3574928045272827,-1.3915183544158936,1.6699241399765015,-0.07458938658237457,0.8423483967781067,0.5337469577789307,-0.009806975722312927,0.15266209840774536,0.12268620729446411,-0.17060235831626475,0.23595666779501562,0.8433255163820356,-0.4516872960473585,-1.001625941995338,-3.0027451326768673,-0.46954874372601507
1781556226911018496,1.1541662216186523,0.04185299947857857,-1.2486728429794312,1.6854256391525269,-0.053316887468099594,0.8426070809364319,0.5358830690383911,-0.016019053757190704,0.20725864171981812,0.11371409893035889,-0.16102339739355695,0.24018249726228352,0.8427656316506107,-0.4540153564220559,-1.0021061599043017,-3.042425506488998,-0.5009236938455112
1781556226921053440,1.164201259613037,0.33334049582481384,-1.1627436876296997,1.6365264654159546,-0.03277607262134552,0.8444604277610779,0.5346142649650574,0.0017244480550289154,0.2647772431373596,0.0595630407333374,-0.15240511237336735,0.24431197081452746,0.8412007965453118,-0.45767412083331954,-1.0055570370658082,-3.08036140255703,-0.5316331411287735
1781556226931088384,1.1742362976074219,0.3340986967086792,-1.10309898853302,1.5320723056793213,-0.013267029076814651,0.8466803431510925,0.5319367051124573,0.03359174355864525,0.321898877620697,0.062225282192230225,-0.14440871196227043,0.24813402518096725,0.839284126533214,-0.461711871803254,-1.0097151693117101,-3.1166568303333233,-0.5611410684807736
1781556226941124352,1.184272289276123,0.14709553122520447,-1.0500049591064453,1.4490623474121094,0.005165052134543657,0.8481379151344299,0.5297508239746094,0.032218996435403824,0.3181830644607544,0.13687539100646973,-0.13672878067761662,0.2517126421080241,0.8375656079876492,-0.46522037709994973,-1.0124604585536834,3.1318429972691826,-0.5892894444765123
1781556226951160576,1.1943085193634033,-0.1341707706451416,-0.9554859399795532,1.3519152402877808,0.022411705926060677,0.8479329943656921,0.5296295881271362,0.015521645545959473,0.2252025008201599,0.22073668241500854,-0.12924050319113733,0.2552519346269755,0.8364575590793976,-0.46742074158959657,-1.012073812185815,3.0993020735762973,-0.6158033308224423
1781556226961195776,1.204343557357788,-0.3631967604160309,-0.8718277215957642,1.2202930450439453,0.038237325847148895,0.8462066054344177,0.5314810872077942,-0.013090841472148895,0.14733892679214478,0.27380144596099854,-0.122051829736354,0.25866616059793474,0.8359619402790851,-0.46836179238818143,-1.0088255592192963,3.069771556096868,-0.6398193930502101
1781556226971230464,1.2143783569335938,-0.4094763696193695,-0.8022750020027161,1.0795170068740845,0.052445147186517715,0.8435876369476318,0.5344243049621582,-0.039856646209955215,0.1894933581352234,0.2546687722206116,-0.1153355614230403,0.261753007363536,0.8358812747267953,-0.46849283646940304,-1.0039295709780331,3.04377195263085,-0.6606662732651346
1781556226981265664,1.2244133949279785,-0.27524641156196594,-0.7220467925071716,1.001301646232605,0.06521204859018326,0.8411257266998291,0.5368937849998474,-0.06521204113960266,0.2419888973236084,0.20196735858917236,-0.10928933566496546,0.26448798686343805,0.8357589338202736,-0.4686245423294598,-0.9993613117505485,3.0207230000452974,-0.6790227668358091
1781556226991301632,1.2344493865966797,-0.17222920060157776,-0.6860528588294983,0.9458447694778442,0.07728829234838486,0.839189887046814,0.5383186340332031,-0.07435859739780426,0.21229326725006104,0.13381576538085938,-0.1037170050189147,0.267059836187243,0.8353672053615225,-0.4691305573033512,-0.995791831930896,2.998993643275037,-0.6964519638895628
1781556227001336576,1.2444844245910645,-0.13099627196788788,-0.6366680264472961,0.8113247752189636,0.08825510740280151,0.8376404643058777,0.5390446186065674,-0.0214063823223114,0.170324444770813,0.13432562351226807,-0.09865868023429686,0.2692360890394027,0.8348857587955103,-0.4698340465440793,-0.9929490658733212,2.9793074415509286,-0.7119582653267987
1781556227011371520,1.2545194625854492,-0.056599803268909454,-0.5783436894416809,0.6937107443809509,0.09793306142091751,0.8364901542663574,0.5391596555709839,0.009641386568546295,0.19370687007904053,0.15706831216812134,-0.09418624283849013,0.27098758028161457,0.8343533792208809,-0.47068999375865783,-0.9908465598952185,2.9619114519466847,-0.7253598340116455
1781556227021406720,1.264554500579834,0.04350842162966728,-0.4442388117313385,0.5900133848190308,0.10605461895465851,0.8357734084129333,0.5387346744537354,-0.0172484889626503,0.2209586501121521,0.21619385480880737,-0.09051638194203608,0.27244681281986116,0.8337506063668942,-0.4716347985502316,-0.9895398274626425,2.947219372892305,-0.7367734058348133
1781556227031442688,1.2745904922485352,0.1099066212773323,-0.3083733916282654,0.4927864968776703,0.11264528334140778,0.8356170058250427,0.5376389622688293,-0.05318174511194229,0.2528383731842041,0.26778101921081543,-0.08777649026193292,0.27380882659643413,0.8329755199770886,-0.4727324254709671,-0.989255106954807,2.935061714140857,-0.7468442007773095
1781556227041477632,1.28462553024292,0.13631212711334229,-0.21880313754081726,0.35799938440322876,0.11761638522148132,0.8358705043792725,0.5361783504486084,-0.05101174861192703,0.2535156011581421,0.2969211935997009,-0.08585293948191854,0.27487977791164897,0.8321840373561982,-0.47385674927653576,-0.9897167330512777,2.9256523396349867,-0.7549095422248903
1781556227051512576,1.2946603298187256,0.11419697105884552,-0.10868462920188904,0.2667402923107147,0.12109559774398804,0.8361710906028748,0.5349336266517639,-0.03924743831157684,0.2474777102470398,0.3182615637779236,-0.08461234776632985,0.2757429394586336,0.831524295804104,-0.4747357148740364,-0.9902644984682641,2.9189698649229503,-0.760968845897155
1781556227061547520,1.3046953678131104,0.04488687217235565,-0.029600463807582855,0.18393462896347046,0.12337054312229156,0.8363327980041504,0.5341601967811584,-0.044665709137916565,0.2449507713317871,0.2759288549423218,-0.08389982113782543,0.2764950234481447,0.8310418756335166,-0.4752690817646495,-0.99055939894535,2.9146110829519465,-0.7653637547928138
1781556227071582464,1.3147304058074951,-0.0925293043255806,0.019427265971899033,0.1221223920583725,0.12467075884342194,0.8360468149185181,0.5343060493469238,-0.05110814422369003,0.24598443508148193,0.20772886276245117,-0.08348978396821415,0.27711968758771893,0.8308776762152105,-0.4752646013133011,-0.990037986406027,2.9123618839922623,-0.7679846211875511
1781556227081618432,1.3247663974761963,-0.2500068247318268,0.045384831726551056,0.08882968127727509,0.12535469233989716,0.834993839263916,0.5357904434204102,-0.03723520040512085,0.20284783840179443,0.14281374216079712,-0.08314680075830039,0.2777049945985276,0.8311288418177281,-0.47454330792720134,-0.9881215605080657,2.9117644478276086,-0.7691115489522686
1781556227091653632,1.334801435470581,-0.4092148542404175,0.07444018125534058,0.045265428721904755,0.12561006844043732,0.8331266045570374,0.5386295914649963,-0.017623648047447205,0.1354096531867981,0.08489024639129639,-0.08276930608860297,0.27826864193045425,0.8317940520801961,-0.4731113376767622,-0.9847368905951618,2.9124842650762335,-0.7689583655570306
1781556227101688576,1.3448364734649658,-0.5555883049964905,0.08600270003080368,-0.009342688135802746,0.12531261146068573,0.8304736018180847,0.5427799224853516,-0.002738773822784424,0.11930960416793823,0.04427140951156616,-0.08239173684668646,0.2787363663659886,0.8328841427088367,-0.4709793585660346,-0.9799573725382364,2.9146963685007745,-0.7672854674625167
1781556227111723776,1.3548715114593506,-0.5951359272003174,0.06961174309253693,-0.042407963424921036,0.12463505566120148,0.8273259401321411,0.5477204918861389,0.014265693724155426,0.11357671022415161,0.010308563709259033,-0.08198178959365027,0.2790474082918777,0.8342618214239799,-0.4684214943873026,-0.9743304098253328,2.9178502315346706,-0.764456720802438
1781556227121759744,1.3649075031280518,-0.6274579167366028,0.08474821597337723,-0.06552207469940186,0.12375136464834213,0.8240231275558472,0.552875816822052,0.034375473856925964,0.09054291248321533,-0.03142189979553223,-0.08156961924585501,0.2792299997947081,0.8357442852085986,-0.46573442984358704,-0.9684758351568592,2.9213900948000515,-0.7610658353048764
1781556227131794688,1.3749425411224365,-0.6140920519828796,0.1320057362318039,-0.07877662777900696,0.122538723051548,0.8206089735031128,0.5581978559494019,0.03149872273206711,0.030983924865722656,-0.0015268325805664062,-0.08131625908377388,0.27943210965585896,0.8372673565733227,-0.462913197211246,-0.9624757800055291,2.925494886309765,-0.757401610196902
1781556227141829376,1.3849773406982422,-0.48562493920326233,0.16240838170051575,-0.08725772798061371,0.12100547552108765,0.8175842761993408,0.5629510879516602,0.021084390580654144,0.01383674144744873,0.04717165231704712,-0.08135671067135576,0.27964517644508324,0.838614411366264,-0.460332084859556,-0.9572030582418327,2.9298657574378812,-0.7538829176239537
1781556227151864576,1.395012378692627,-0.33957159519195557,0.19947479665279388,-0.11630962044000626,0.11917151510715485,0.8153839707374573,0.5665217638015747,-0.001602567732334137,0.046249210834503174,0.04143416881561279,-0.08176079981739907,0.2797943883836141,0.8396284744031473,-0.45831673865185807,-0.9533921787562999,2.934259076123514,-0.750678649835329
1781556227161900544,1.4050483703613281,-0.1750180572271347,0.26057636737823486,-0.1433233916759491,0.11681002378463745,0.8140711784362793,0.5688967704772949,-0.02031344175338745,0.0552525520324707,0.08695650100708008,-0.08266104605660175,0.2798807743206719,0.8403065754117243,-0.4568575041941705,-0.951128136143323,2.9390800043383143,-0.7475804362293978
1781556227171935488,1.415083408355713,-0.0239529088139534,0.32145917415618896,-0.156500443816185,0.11389512568712234,0.8137016296386719,0.570015549659729,-0.03586166352033615,0.09378445148468018,0.15673011541366577,-0.08410893804957724,0.27994843855407525,0.8406168231900598,-0.45598021537626243,-0.9504920301342589,2.9443792591548186,-0.7446755282584826
1781556227181970688,1.4251184463500977,0.0017069129971787333,0.3443484902381897,-0.1522742658853531,0.11070523411035538,0.813897430896759,0.5703646540641785,-0.053011707961559296,0.10307967662811279,0.13846731185913086,-0.08588776768602037,0.28006358945999377,0.8406822879459701,-0.4554570708711939,-0.9508290297946669,2.9498808517153394,-0.7420656908646021
1781556227192005632,1.4351534843444824,-0.1300111711025238,0.3022119402885437,-0.15821312367916107,0.10756347328424454,0.8137019276618958,0.5712434649467468,-0.04701662063598633,0.025592446327209473,0.0419309139251709,-0.08753044651262915,0.28017916087722244,0.8409050906141912,-0.4546609911583199,-0.9504925223606214,2.9554748105923356,-0.7392155828757219
1781556227202040576,1.4451885223388672,-0.30212247371673584,0.23801925778388977,-0.1707123965024948,0.1046619862318039,0.8126654028892517,0.573254406452179,-0.006700575351715088,-0.056622982025146484,-0.044430673122406006,-0.08875057454876746,0.28018938994465675,0.8414993233345224,-0.4533167442165821,-0.948711628021898,2.9610065449492446,-0.735746311862408
1781556227212076544,1.4552245140075684,-0.4242244362831116,0.19234178960323334,-0.17819428443908691,0.10200230777263641,0.8107019662857056,0.576504647731781,0.015185169875621796,-0.05357623100280762,-0.09386926889419556,-0.08952849659760072,0.2801009595066903,0.8424937879583703,-0.4513670914646066,-0.9453501413378843,2.9664727043551467,-0.7316547455025582
1781556227222111744,1.4652595520019531,-0.45363903045654297,0.1555255800485611,-0.17830373346805573,0.09954798221588135,0.8083025217056274,0.5802902579307556,0.0028384700417518616,-0.024077177047729492,-0.11865103244781494,-0.0900426159604926,0.2799434228448588,0.8436686519963069,-0.44916262364111453,-0.9412632857998621,2.9716977744181934,-0.7273601353288884
1781556227232146432,1.4752943515777588,-0.46936020255088806,0.17134742438793182,-0.19940049946308136,0.09708096086978912,0.8058134317398071,0.5841578841209412,-0.00650477409362793,-0.010494709014892578,-0.12061101198196411,-0.09049997757795875,0.2797040717549185,0.8448932239660425,-0.4469126864374491,-0.9370478232979162,2.9769081845787464,-0.7228819310190079
1781556227242181632,1.4853293895721436,-0.47646471858024597,0.23332105576992035,-0.238168403506279,0.09411991387605667,0.8032292723655701,0.5881875157356262,-0.015048854053020477,0.012444674968719482,-0.04354017972946167,-0.0911816688506395,0.279441003157181,0.846171655550848,-0.4445135088359006,-0.9326967912152085,2.9829209538348844,-0.7179283397453552
1781556227252217600,1.4953653812408447,-0.4316786229610443,0.3078405559062958,-0.2755349576473236,0.09042496234178543,0.8007712960243225,0.5921056270599365,-0.019883550703525543,0.06293737888336182,0.05308187007904053,-0.09227069412125795,0.27914724086669956,0.8474252923233585,-0.44207853225677757,-0.9285817855417011,2.9900459446411864,-0.7124285247514615
1781556227262252544,1.5054004192352295,-0.4062185287475586,0.38359710574150085,-0.30151861906051636,0.08603567630052567,0.7985426783561707,0.595758318901062,-0.025870241224765778,0.08439207077026367,0.09081101417541504,-0.09380507815079248,0.27888201806794627,0.848589401952992,-0.4396835435415686,-0.9248702850305007,2.9981704798348296,-0.7066308903480372
1781556227272287488,1.5154354572296143,-0.3911093473434448,0.4186898469924927,-0.3085738718509674,0.0811593160033226,0.7964053153991699,0.5992923378944397,-0.019712194800376892,0.04206502437591553,0.09859871864318848,-0.0956421826395231,0.27865368708081356,0.8497048337792368,-0.43727138248631625,-0.9213277701529158,3.00698631397551,-0.7006584589011926
1781556227282322688,1.525470495223999,-0.2847496271133423,0.4252582788467407,-0.29666367173194885,0.07617860287427902,0.7945563793182373,0.6023926138877869,0.002266824245452881,0.00540083646774292,0.09784835577011108,-0.09762614763062223,0.2784439650716917,0.85068517700134,-0.43505493062589007,-0.9182766263955632,3.0158003222996332,-0.6949034585006718
1781556227292358656,1.5355064868927002,-0.08527831733226776,0.4462815225124359,-0.2800562083721161,0.07124558836221695,0.7936460971832275,0.6041934490203857,-0.007296010851860046,0.01856386661529541,0.07325094938278198,-0.09985424593091942,0.2782540074882721,0.851276362546795,-0.43351164723972946,-0.9167789588882141,3.0242161830674554,-0.6898079933554618
1781556227302393600,1.545541524887085,0.09963640570640564,0.4209980070590973,-0.2606055438518524,0.06644207239151001,0.7939050793647766,0.6044005155563354,-0.0293632373213768,0.05469709634780884,0.02984631061553955,-0.1023286702207284,0.27804986352054084,0.8514038503765247,-0.43281466410360886,-0.9172047390595558,3.0321017616620947,-0.6854146423974744
1781556227312428544,1.5555763244628906,0.1554003357887268,0.3494894802570343,-0.2222411036491394,0.06213824078440666,0.7948969006538391,0.6035541892051697,-0.024967830628156662,0.07909601926803589,-0.021431446075439453,-0.10471122001943349,0.27777807032014695,0.8512440531578316,-0.43273366748279785,-0.9188376099228606,3.0390002406582526,-0.6816395429362896
1781556227322463488,1.5656113624572754,0.12224292010068893,0.25002598762512207,-0.20048680901527405,0.05869130790233612,0.7959169745445251,0.6025541424751282,0.005822848528623581,0.032406389713287354,-0.07223498821258545,-0.1066347589761509,0.2774628513159896,0.8510531386965868,-0.43284173200193926,-0.920520757788549,3.044494748660778,-0.6784807681046496
1781556227332498432,1.5756464004516602,-0.014281641691923141,0.2286173701286316,-0.27805349230766296,0.055377889424562454,0.7963728308677673,0.6022652983665466,0.03240590915083885,-0.034883081912994385,-0.11962980031967163,-0.10821809035843531,0.27691650349111735,0.8511462244927631,-0.4326154748018074,-0.9212740287963525,3.0499011489146106,-0.6746137296757249
1781556227342534656,1.5856823921203613,-0.10655218362808228,0.2531416118144989,-0.3258734941482544,0.051499370485544205,0.7961240410804749,0.6029379367828369,0.0279226154088974,-0.004742324352264404,-0.05665808916091919,-0.10980473368608734,0.2761709230615853,0.851585933912709,-0.43182623905010353,-0.9208628429425082,3.056385421111972,-0.6694815565360452
1781556227352569600,1.595717430114746,-0.05917614698410034,0.23609378933906555,-0.34325647354125977,0.047282952815294266,0.7957537174224854,0.6037719249725342,0.021946176886558533,0.05268073081970215,-0.02270197868347168,-0.11148153188386399,0.27531275916057807,0.852108478769259,-0.43091295633953447,-0.920251145076756,3.06343955784424,-0.663765534159134
1781556227362604544,1.6057524681091309,0.022842291742563248,0.21862372756004333,-0.3224979341030121,0.043231114745140076,0.79578697681427,0.6040313839912415,0.03809821978211403,0.08116602897644043,-0.023755013942718506,-0.11314664952885264,0.27437584458759967,0.8524867145283043,-0.43032786943456586,-0.9203060569193328,3.070143513439394,-0.6581910827727745
1781556227372639744,1.6157875061035156,0.05870894342660904,0.2221558839082718,-0.2929126024246216,0.03948327898979187,0.7961552739143372,0.6038023829460144,0.023596543818712234,0.039598941802978516,-0.0009125471115112305,-0.11479287739769507,0.2735297371198743,0.8526914311259399,-0.4300246947801652,-0.9209144440933565,3.076294559944236,-0.6532254188904077
1781556227382675712,1.6258234977722168,0.1028021052479744,0.27074167132377625,-0.3131398558616638,0.03557736426591873,0.7967786192893982,0.6032233834266663,-0.006021071225404739,-0.011545956134796143,0.008791506290435791,-0.11661080841071779,0.2727143126086516,0.8527828551772016,-0.42987248666599986,-0.9219453498280233,3.082682144132119,-0.6482960594931269
1781556227392710656,1.6358585357666016,0.21713320910930634,0.3566027879714966,-0.3373927175998688,0.03109639696776867,0.7978116273880005,0.6021044254302979,-0.01441853865981102,0.03043544292449951,0.05753302574157715,-0.11885019345039782,0.2719022209974821,0.8527141281908202,-0.4299098314425459,-0.9236567644745323,3.0899923104603513,-0.6430365843562473
1781556227402745600,1.6458933353424072,0.3115595877170563,0.4260486960411072,-0.341591477394104,0.025982175022363663,0.7995392084121704,0.6000516414642334,-0.015880851075053215,0.10661923885345459,0.0777132511138916,-0.12164246842983466,0.2711315859162449,0.8523576015706311,-0.4303223098968512,-0.926527635202327,3.098319784620096,-0.6375679997029944
1781556227412780544,1.655928373336792,0.3080572485923767,0.4619233310222626,-0.36665794253349304,0.020470723509788513,0.8015495538711548,0.5975778698921204,-0.0024348367005586624,0.12174451351165771,0.06402790546417236,-0.12474795971347608,0.2703923883560181,0.851866703826566,-0.43087009750354216,-0.9298823112769264,3.107349882945253,-0.6318845270033083
1781556227422816512,1.6659643650054932,0.209184467792511,0.4481985867023468,-0.39513859152793884,0.014662336558103561,0.8031567335128784,0.5955871343612671,0.011811661534011364,0.05875110626220703,0.037622034549713135,-0.12787484682216288,0.26958746501789554,0.8515375298817006,-0.4311083216451946,-0.9325750640707046,3.116979335125978,-0.6255999499737048
1781556227432851456,1.675999402999878,0.19483321905136108,0.39591169357299805,-0.4216383695602417,0.008821227587759495,0.8043757677078247,0.594055712223053,0.03182818740606308,0.005454123020172119,-0.0009617805480957031,-0.1308389789162916,0.26862438777665837,0.8513922696812324,-0.43110720569442446,-0.9346240342829706,3.1267445855974385,-0.6187452760279568
1781556227442886656,1.6860344409942627,0.35166439414024353,0.34337282180786133,-0.44814959168434143,0.0031221413519233465,0.8059587478637695,0.5919638872146606,0.042059145867824554,0.024577319622039795,-0.020476341247558594,-0.13370620214514523,0.26739942463360783,0.8511636085088067,-0.43144043541383426,-0.9372932220255545,3.1363184932242505,-0.6114586257533775
1781556227452921600,1.6960694789886475,0.5523338913917542,0.3422260880470276,-0.48379069566726685,-0.0026999537367373705,0.8086305260658264,0.5883104205131531,0.031294919550418854,0.08304721117019653,-0.008476555347442627,-0.136785771448984,0.2658343039042477,0.850580586805198,-0.43259031370513873,-0.9418206287234143,-3.137003350750798,-0.6034929090613096
1781556227462956544,1.7061045169830322,0.7028943300247192,0.3741188943386078,-0.4918680489063263,-0.00874575786292553,0.8123658299446106,0.5830827355384827,0.0009332597255706787,0.1174132227897644,0.01286458969116211,-0.14021482448910036,0.26409456451582636,0.8495854510182352,-0.4345094951666912,-0.9481977343783564,-3.126594607172774,-0.5950678820083086
1781556227472992768,1.7161405086517334,0.5629891753196716,0.4110201895236969,-0.5366480946540833,-0.015260559506714344,0.8160610795021057,0.5777643918991089,-0.025678768754005432,0.06107527017593384,0.014475047588348389,-0.14387985726322772,0.26230733639618503,0.8485735483261426,-0.4363673653315346,-0.9545627299225822,-3.1151856756422798,-0.5859401192665173
1781556227483027712,1.7261755466461182,0.3618379235267639,0.40837037563323975,-0.554017186164856,-0.022133948281407356,0.8186357021331787,0.5738863945007324,-0.02509201318025589,0.022504985332489014,0.025188863277435303,-0.14744387399935244,0.26054434961573614,0.8479739697468309,-0.437398058372998,-0.9590313994703574,-3.1030432421728595,-0.5761516649707666
1781556227493062400,1.7362103462219238,0.1529339700937271,0.38939613103866577,-0.5599848031997681,-0.02901539020240307,0.8199792504310608,0.571657657623291,0.00391467846930027,-0.02063220739364624,0.01475292444229126,-0.15070182299152568,0.2588497045047328,0.8478358738823943,-0.43756169927470484,-0.9613747771146954,-3.0908795900075243,-0.5661856864429361
1781556227503097600,1.7462453842163086,-0.013333289884030819,0.38248682022094727,-0.5533791184425354,-0.03581573814153671,0.8201681971549988,0.5710000991821289,0.02051117643713951,-0.02642136812210083,-0.004777073860168457,-0.1536535356817851,0.25728100675877924,0.8481194118831802,-0.436910126245452,-0.9617049346995152,-3.0789501467092886,-0.5563751719547586
1781556227513133568,1.7562813758850098,-0.04356176778674126,0.3617977797985077,-0.5316802263259888,-0.0424475334584713,0.819728672504425,0.5711770057678223,0.018460713326931,-0.008006870746612549,-0.022547245025634766,-0.15639199809335283,0.2558137726850305,0.8486152389323287,-0.43583605399856623,-0.9609371596881413,-3.067413112448052,-0.546894535959543
1781556227523168512,1.7663164138793945,0.09996450692415237,0.351307213306427,-0.49104034900665283,-0.0486920103430748,0.8196116089820862,0.5708467364311218,0.024567868560552597,0.015410363674163818,-0.05590832233428955,-0.15905522146816148,0.25440675763975173,0.8489408435081794,-0.43506103888323033,-0.9607327882269132,-3.056500748152238,-0.5379592134109212
1781556227533203712,1.7763514518737793,0.4105551242828369,0.3338523209095001,-0.46954411268234253,-0.05456286296248436,0.8207613825798035,0.5686596632003784,0.03271227329969406,0.010140836238861084,-0.08707696199417114,-0.16186364731826922,0.25293524562218006,0.8487364622974993,-0.4352819528463705,-0.962742514191734,-3.0459355399399928,-0.5292726845035922
1781556227543238656,1.786386489868164,0.8487221002578735,0.3176363408565521,-0.5109211206436157,-0.060491543263196945,0.8240247368812561,0.5633155107498169,0.04942890629172325,0.008098185062408447,-0.12143617868423462,-0.165133813973344,0.2510560400238078,0.8477196588866942,-0.4371191756208795,-0.9684786130986851,-3.0346177568224983,-0.5195415530092113
1781556227553274624,1.7964224815368652,1.2637953758239746,0.2332761585712433,-0.5239498615264893,-0.06633910536766052,0.8296344876289368,0.5543515086174011,0.07424314320087433,0.08209335803985596,-0.11663800477981567,-0.1687648310979627,0.24855466904299997,0.8458110405272464,-0.44084308239877823,-0.9784526467284002,-3.0224893040935807,-0.5081748591401379
1781556227563309568,1.80645751953125,1.4825488328933716,0.26518774032592773,-0.5618128180503845,-0.07222260534763336,0.8369172215461731,0.5425431728363037,0.06505098938941956,0.15115022659301758,-0.06898677349090576,-0.1727339144953338,0.24560735364466638,0.8431776830679393,-0.4459723151520941,-0.9916263714509717,-3.0092520768455633,-0.4952355276007128
1781556227573344768,1.8164925575256348,1.4289436340332031,0.33853307366371155,-0.5761816501617432,-0.0786857083439827,0.8443813920021057,0.5299330353736877,0.013790063560009003,0.07459461688995361,-0.026453912258148193,-0.17710080633037695,0.24258234729833353,0.8403096636678903,-0.4512969080892553,-1.0054093892440046,-2.9941872777029532,-0.4809338689445553
1781556227583379456,1.8265273571014404,1.2244243621826172,0.4034528136253357,-0.5390108227729797,-0.08542773872613907,0.8509109020233154,0.5183171629905701,-0.009283572435379028,-0.03116297721862793,0.061699867248535156,-0.1815607730052125,0.23987261439965463,0.837627431639282,-0.45593538499309333,-1.017716862455874,-2.978243699195888,-0.4665485263765297
1781556227593415424,1.8365633487701416,1.02997624874115,0.42327073216438293,-0.489984929561615,-0.09197413176298141,0.8562646508216858,0.5082830190658569,-0.01851477473974228,-0.10217529535293579,0.13623297214508057,-0.18584388683772862,0.23763953669701735,0.8352658108376494,-0.45969614620418203,-1.0279942333823873,-2.9625790845100366,-0.45310903556672283
1781556227603450624,1.8465983867645264,0.9772505164146423,0.37577274441719055,-0.5131757855415344,-0.09828751534223557,0.8608306050300598,0.49931013584136963,-0.014505460858345032,-0.13410013914108276,0.11180442571640015,-0.18985916047543142,0.23554875362306002,0.8331697655339833,-0.46292393277213845,-1.0368996525252712,-2.947231022580912,-0.4399270957665845
1781556227613485568,1.8566334247589111,1.0163267850875854,0.3603000342845917,-0.5487489700317383,-0.10472659021615982,0.8652306199073792,0.49031418561935425,0.004796795547008514,-0.04491829872131348,0.027965813875198364,-0.19379585230926624,0.23320437679791745,0.8311274360533152,-0.4661394271462526,-1.0456101567546208,-2.9311638405832423,-0.42553956040603386
1781556227623520512,1.866668462753296,1.0550004243850708,0.3969194293022156,-0.550795316696167,-0.11138364672660828,0.869683563709259,0.4808787405490875,-0.0038507282733917236,0.06282681226730347,-0.024473071098327637,-0.1978775409400023,0.23077300402626583,0.8289651350610512,-0.4694732788361663,-1.0545608626262541,-2.9139812470187065,-0.4101141235065289
1781556227633555712,1.8767035007476807,1.1120884418487549,0.3719024658203125,-0.5332645177841187,-0.11797060817480087,0.874284029006958,0.47086092829704285,-0.010172680020332336,0.062101900577545166,-0.0565238893032074,-0.2020361456543163,0.22836002503514288,0.8266088339566577,-0.4730230587648621,-1.063958899633041,-2.896103595911962,-0.39411143948787014
1781556227643591680,1.8867394924163818,1.1676603555679321,0.31226205825805664,-0.5538720488548279,-0.12431713193655014,0.8788710236549377,0.4605770707130432,0.019977517426013947,0.023259222507476807,-0.07549101114273071,-0.20601165724994974,0.22578205895907447,0.8242032457444067,-0.47672924107903364,-1.0734905360361662,-2.877959078830946,-0.377306145602396
1781556227653626624,1.8967745304107666,1.259196400642395,0.2804974615573883,-0.5968469381332397,-0.13078957796096802,0.8837294578552246,0.4493516981601715,0.03662760555744171,0.03199636936187744,-0.05347725749015808,-0.2100051584412665,0.22282233230997317,0.8215996977393621,-0.48085567367232057,-1.0837721104010383,-2.8583551232800564,-0.3584328621342029
1781556227663661568,1.9068093299865723,1.3678544759750366,0.2778164744377136,-0.6879779100418091,-0.13772237300872803,0.8888095617294312,0.43709278106689453,0.01639975607395172,0.06190454959869385,-0.02187061309814453,-0.2141884569643697,0.2194454915397607,0.818773512838556,-0.4853626600308488,-1.094740951478293,-2.8363524273880527,-0.3367724814258762
1781556227673696512,1.916844367980957,1.3860552310943604,0.3097973167896271,-0.8364132046699524,-0.14572815597057343,0.893696665763855,0.42434635758399963,3.72081995010376e-05,0.08036351203918457,0.10273808240890503,-0.21872021775838404,0.21554505929079157,0.8159126874019748,-0.48988606929091805,-1.1055178224416262,-2.810793574732998,-0.3113218985732517
1781556227683732480,1.9268803596496582,1.1404225826263428,0.3264836072921753,-1.01255464553833,-0.1553705334663391,0.8975656628608704,0.41259631514549255,0.007787525653839111,0.09187519550323486,0.16478097438812256,-0.22365368532161706,0.2111779750023089,0.8134506905012987,-0.49364038713234326,-1.1142166340839084,-2.781448089149454,-0.28216461536660853
1781556227693767424,1.936915397644043,0.7768034338951111,0.32727110385894775,-1.1502259969711304,-0.16648471355438232,0.8997145891189575,0.40348055958747864,0.03609837591648102,0.13251197338104248,0.15013885498046875,-0.22866651405123517,0.20647384956428913,0.8118551757291609,-0.49595499164538825,-1.119115123410187,-2.750253327343056,-0.25106551504029245
1781556227703802624,1.9469504356384277,0.42921483516693115,0.3767038881778717,-1.2328282594680786,-0.17866602540016174,0.9000462889671326,0.3974863588809967,0.03909386694431305,0.11991232633590698,0.10779327154159546,-0.2336632889341158,0.20177761599975058,0.8111898511281183,-0.4966471556066674,-1.1198757626902411,-2.719163187964542,-0.2203767982544163
1781556227713837568,1.9569854736328125,-0.006639167666435242,0.46522071957588196,-1.2504249811172485,-0.191597580909729,0.8985475301742554,0.39484530687332153,0.00574551522731781,0.07952570915222168,0.11432522535324097,-0.2386849637822476,0.19749730427917872,0.8114292719367733,-0.4955874006065176,-1.1164486788042887,-2.6898167731564415,-0.19242755146374774
1781556227723873536,1.9670214653015137,-0.2931484282016754,0.5471966862678528,-1.2539646625518799,-0.20484526455402374,0.8954522609710693,0.3952259421348572,-0.030475765466690063,0.06641596555709839,0.1257854402065277,-0.24369306259335186,0.19385230814996354,0.812424918415373,-0.49295098003036175,-1.1094460876888288,-2.663413127020294,-0.1686568297505518
1781556227733908736,1.9770565032958984,-0.43534231185913086,0.6005579233169556,-1.243627905845642,-0.218328595161438,0.8912228941917419,0.39756011962890625,-0.040414661169052124,0.08984076976776123,0.09534448385238647,-0.24872000808036807,0.19064041940905133,0.8139018891220949,-0.48924245125444815,-1.1000342251641164,-2.639385913637813,-0.14816390011249708
1781556227743943680,1.9870915412902832,-0.2535751760005951,0.6999454498291016,-1.234765648841858,-0.2319977879524231,0.8870740532875061,0.3990945816040039,-0.033703505992889404,0.16500413417816162,0.1168203055858612,-0.2540869931049235,0.18757619488064034,0.8150843316144122,-0.48568761027433877,-1.0909677405673914,-2.6150289690271435,-0.1280873201508161
1781556227753978368,1.9971263408660889,-0.014337567612528801,0.8006755709648132,-1.2606183290481567,-0.2461240142583847,0.8835405707359314,0.39847084879875183,-0.053497567772865295,0.1632581353187561,0.13323688507080078,-0.2600898827616528,0.18447267062393058,0.8156011610196557,-0.4828227648821685,-1.0833687049172112,-2.5882807647499733,-0.10644006086398573
1781556227764014592,2.00716233253479,0.13934600353240967,0.8434637784957886,-1.2623860836029053,-0.2605813145637512,0.8806580901145935,0.3956497609615326,-0.01100987195968628,0.077059805393219,0.09734642505645752,-0.2665764252251803,0.18117058783011167,0.8154766037477276,-0.4807412476484935,-1.0772495240776705,-2.5591841872143837,-0.08277944043063933
1781556227774049536,2.017197370529175,-0.06530807167291641,0.907765805721283,-1.1358238458633423,-0.27472060918807983,0.8776532411575317,0.39275142550468445,0.11200085282325745,-0.11889457702636719,0.01497882604598999,-0.27312304014916,0.17823763125135964,0.8152343546903208,-0.47856890039027716,-1.0709437374788258,-2.5312177537745835,-0.06094889397001554
1781556227784084480,2.0272324085235596,-0.89939945936203,0.9963811635971069,-0.8071621060371399,-0.2870941460132599,0.8731351494789124,0.3939691483974457,0.2732391953468323,-0.5305907130241394,-0.03789013624191284,-0.2789695191752736,0.17711892091137052,0.8158513755777974,-0.474543294797256,-1.061597126720823,-2.5118488752055796,-0.049744184055219555
1781556227794119680,2.0372674465179443,-2.2936415672302246,0.7798645496368408,-0.5531407594680786,-0.2964862585067749,0.8649367094039917,0.4049451947212219,0.5131915807723999,-1.2012403011322021,-3.796815872192383e-05,-0.28292982928514615,0.17889329287598602,0.8188221937962243,-0.4663455767549308,-1.0450242604772286,-2.5096047039015312,-0.05796939681204131
1781556227804155648,2.0473034381866455,-3.037686347961426,-0.05566548556089401,-0.8271248936653137,-0.30390769243240356,0.8513007760047913,0.4276995062828064,0.9120010137557983,-1.3289926052093506,0.06947758793830872,-0.2835739092221218,0.18095368229074407,0.8252911742464465,-0.4535812960068424,-1.0184595019277458,-2.5238121980582386,-0.07904752342550883
1781556227814190592,2.0573384761810303,-2.169938802719116,-0.45744940638542175,-0.8926287889480591,-0.31000927090644836,0.8367686867713928,0.4513455033302307,0.9458887577056885,-0.403251051902771,0.15329933166503906,-0.28178795836502946,0.18029919994920557,0.8325652872754369,-0.44150076195692645,-0.9913550340917026,-2.5397428953043026,-0.09401459454496715
1781556227824225792,2.067373514175415,-1.3699712753295898,0.07540038228034973,-0.5326743721961975,-0.3148905038833618,0.8267549276351929,0.46617645025253296,0.16498813033103943,0.3042266368865967,-0.02576202154159546,-0.2809153520431819,0.17930163162993146,0.8372210840339422,-0.43358785703248653,-0.9733146585106771,-2.5475167948838897,-0.10083027256026386
1781556227834260736,2.0774085521698,-1.3633192777633667,0.5510556101799011,-0.5681530237197876,-0.3209000527858734,0.8187333345413208,0.4761287271976471,-0.5530928373336792,0.39290595054626465,-0.11142855882644653,-0.2823188665989431,0.17973153514709528,0.8400957891320565,-0.4268859267876985,-0.9592014898570606,-2.548545749723811,-0.10634853308533228
1781556227844295424,2.0874433517456055,-1.6698973178863525,0.575707733631134,-0.757382869720459,-0.3290949761867523,0.8092870712280273,0.48657095432281494,-0.7147893309593201,0.3336268663406372,0.060166776180267334,-0.28478909995106777,0.1802900350895657,0.8430782794561675,-0.41905823367800443,-0.9429374095373136,-2.5469123375685845,-0.11141404095477571
1781556227854331392,2.0974793434143066,-1.9394946098327637,0.4497966170310974,-0.8424330353736877,-0.33826032280921936,0.7974779009819031,0.49960869550704956,-0.40790969133377075,0.32877326011657715,0.20345529913902283,-0.28703389104151056,0.18053335797605385,0.8468837299421087,-0.40964270680856857,-0.923103372382312,-2.546435647538318,-0.11731384062038028
1781556227864366592,2.1075143814086914,-1.6617079973220825,0.4013180434703827,-0.5505431294441223,-0.34602877497673035,0.7858017086982727,0.5126203298568726,-0.06304407119750977,0.15189659595489502,0.021589696407318115,-0.2886232088230859,0.18101302932633945,0.8506141650444144,-0.4004827506223673,-0.9039913457039858,-2.5478295155760184,-0.12444371395442543
1781556227874401536,2.117549419403076,-1.5175412893295288,0.024826958775520325,-0.716965913772583,-0.35186633467674255,0.7756158113479614,0.5240330100059509,0.27500778436660767,-0.19659042358398438,-0.5335085988044739,-0.28936119462130927,0.18118282585328294,0.8539258129290235,-0.39275147369225827,-0.8876901061427349,-2.550280069009574,-0.1305009830928318
1781556227884436480,2.127584457397461,-1.5731430053710938,-0.3112466633319855,-0.8400164842605591,-0.3572227954864502,0.7644172310829163,0.5367102026939392,0.4751122295856476,-0.21012663841247559,-0.5128913521766663,-0.2888031791017949,0.17964907645937514,0.8579518163999317,-0.3850162643541696,-0.8701369758210987,-2.5543437636465556,-0.13359035374149175
1781556227894472704,2.137620449066162,-1.0503839254379272,-0.08776962757110596,-0.6927348971366882,-0.3619176745414734,0.7543511986732483,0.5476948022842407,0.10633301734924316,0.06245166063308716,-0.14524435997009277,-0.288116460842872,0.17778475555806278,0.8615335036509375,-0.3783403458529999,-0.8546652376339224,-2.557661378322997,-0.1349511824324522
1781556227904507648,2.147655487060547,-0.515946090221405,0.27641725540161133,-0.4256187379360199,-0.3666159212589264,0.7481263875961304,0.5530820488929749,-0.3794320523738861,0.26133406162261963,-0.17628145217895508,-0.28889742628824716,0.17667223138122198,0.8633237757112675,-0.3741620941288093,-0.8452339468502923,-2.556230104773435,-0.13432095828337146
1781556227914542592,2.1576905250549316,-0.41595104336738586,0.4625897705554962,-0.3255789577960968,-0.3715622127056122,0.7442430257797241,0.5550171732902527,-0.4581954777240753,0.22557508945465088,-0.1298004388809204,-0.2908887695065866,0.17646772731388174,0.8639257656095835,-0.37131549680231396,-0.8394007509457379,-2.5516581930356903,-0.1334785341735701
1781556227924577536,2.1677253246307373,-0.2843669354915619,0.3223284184932709,-0.30736905336380005,-0.3761461079120636,0.7411154508590698,0.5561135411262512,-0.1744368076324463,0.014942348003387451,-0.09775477647781372,-0.2929214135454936,0.17639906493080978,0.864256993775866,-0.3689720507817431,-0.8347303142076907,-2.5468930555429576,-0.13257686197233742
1781556227934613760,2.1777615547180176,-0.042157482355833054,0.1638556867837906,-0.33536818623542786,-0.37987223267555237,0.7389041781425476,0.5565229058265686,0.11243143677711487,-0.07752722501754761,-0.18935060501098633,-0.2943749230262187,0.1756539633540455,0.8645271103712248,-0.36753500779808324,-0.8314426321985833,-2.542652840129797,-0.1299703658426234
1781556227944647424,2.187795400619507,0.3075816035270691,0.29568347334861755,-0.21304307878017426,-0.3830772638320923,0.7385194897651672,0.5548337697982788,0.08365407586097717,0.163915753364563,-0.11876815557479858,-0.2958985376475536,0.17467895956015647,0.8642361674087907,-0.36746031526269063,-0.830871858083913,-2.5373143056061735,-0.12560707863703677
1781556227954682624,2.1978304386138916,0.47147706151008606,0.3952164649963379,-0.13550861179828644,-0.3863369822502136,0.7400824427604675,0.5504743456840515,-0.08583104610443115,0.30949342250823975,-0.13487058877944946,-0.2981104356847894,0.17397947639679576,0.8631154617560174,-0.36863680794895526,-0.8331929529937364,-2.529642496100455,-0.12004702301718592
1781556227964717568,2.2078654766082764,0.5159074068069458,0.411197304725647,-0.07964641600847244,-0.3893510103225708,0.7424854636192322,0.5450882911682129,-0.1386336088180542,0.17079883813858032,-0.03318643569946289,-0.3005035578098178,0.17349808061583874,0.8616510648078851,-0.3703424264602188,-0.8367731928908216,-2.521340437649136,-0.11431883675935639
1781556227974753536,2.2179014682769775,0.472002774477005,0.371563583612442,-0.048300474882125854,-0.391971617937088,0.7449080348014832,0.5398802757263184,-0.07430654764175415,-0.001972675323486328,0.11609518527984619,-0.3027566577791997,0.1732261905650078,0.8601934806197209,-0.3720193579385502,-0.8403969605678883,-2.51360682222054,-0.10926551556576382
1781556227984788736,2.2279365062713623,0.5475614666938782,0.4022946059703827,-0.015218153595924377,-0.3942417502403259,0.747459352016449,0.534675657749176,-0.0030666887760162354,0.0029832124710083008,0.14742273092269897,-0.3048814545674568,0.17305745785518684,0.8587135383569539,-0.3737773612928219,-0.8442293414106069,-2.5062384530793027,-0.10450625671526902
1781556227994823680,2.237971544265747,0.7023702263832092,0.2999645173549652,-0.0680566057562828,-0.39644721150398254,0.7507167458534241,0.5284452438354492,0.03887265920639038,0.06845146417617798,0.012829840183258057,-0.3070663871692907,0.17261363685473877,0.8569872539319172,-0.3761485719325801,-0.8491463776885833,-2.497954362742187,-0.09832338353415093
1781556228004858368,2.2480063438415527,0.7998965382575989,0.21053171157836914,-0.08023630082607269,-0.39847445487976074,0.7543785572052002,0.521661639213562,0.07240942120552063,0.07249510288238525,-0.07462495565414429,-0.3090000617982884,0.17154486091018345,0.8552211314810136,-0.37906208982937406,-0.8547069272611156,-2.489282425465935,-0.09024063894082461
1781556228014894592,2.258042335510254,0.8371874094009399,0.09104020148515701,-0.05099080130457878,-0.3996562063694,0.758359432220459,0.5149424076080322,0.0426158607006073,-0.048642754554748535,-0.1333964467048645,-0.3104329225388714,0.17034599805861098,0.8534948399838919,-0.3823089411511481,-0.8607925730150491,-2.481584326435568,-0.08203937167372534
1781556228024929536,2.2680773735046387,1.0456732511520386,0.0396806076169014,-0.09213024377822876,-0.4005124866962433,0.7629019618034363,0.507513701915741,0.01817306876182556,-0.07642441987991333,-0.14298129081726074,-0.3116202106930305,0.16866515546506206,0.8516506936148803,-0.38618124413026256,-0.8677899790058274,-2.4734928584740627,-0.07214735980875284
1781556228034964480,2.2781124114990234,1.0887218713760376,0.1302533894777298,-0.09113156050443649,-0.40162193775177,0.7679572701454163,0.49894049763679504,-0.01068580150604248,0.07849353551864624,0.00029659271240234375,-0.31302714103845797,0.16670782550901908,0.8495167781561522,-0.39056858588631027,-0.8756457743241928,-2.4638409742898455,-0.060497454045336234
1781556228044999680,2.288147449493408,0.860267162322998,0.2704031467437744,-0.07606606185436249,-0.40326377749443054,0.7725948691368103,0.4903830587863922,-0.05025792121887207,0.1107669472694397,0.21533596515655518,-0.3149082070360546,0.16522850406034767,0.8472845281685157,-0.39451402499673327,-0.8829181275682625,-2.4533747779764323,-0.0496656112622558
1781556228055035648,2.2981834411621094,0.5244998335838318,0.1319483518600464,-0.18682505190372467,-0.40530502796173096,0.7754752039909363,0.4841134250164032,-0.022200405597686768,-0.17510300874710083,0.20538538694381714,-0.31665035629725696,0.16401734846326868,0.8456683882812822,-0.39708406589116113,-0.8874673674491893,-2.4445703325094215,-0.041088303144307774
1781556228065070592,2.308218479156494,0.38108912110328674,0.05658808723092079,-0.21395547688007355,-0.4073099195957184,0.7767369151115417,0.4803941547870636,0.055365920066833496,-0.23956650495529175,0.11273026466369629,-0.31777395622575555,0.16262963715194162,0.8448364827551178,-0.3985256239800832,-0.8894681729327244,-2.438338754897922,-0.034157024593407616
1781556228075105792,2.318253517150879,0.4967544674873352,0.04636154696345329,-0.21773023903369904,-0.409241259098053,0.7778578996658325,0.47692611813545227,0.013809740543365479,-0.1369125247001648,-0.08738461136817932,-0.31876816350436016,0.16116051629318273,0.8440914357721441,-0.399904666369578,-0.8912499783021662,-2.4324257963496043,-0.027236939642676698
1781556228085140736,2.3282885551452637,0.6711441278457642,0.08067437261343002,-0.24023422598838806,-0.41132521629333496,0.7797442674636841,0.47202807664871216,0.003289937973022461,0.04368096590042114,-0.11765792965888977,-0.3199620896757124,0.15935066675072623,0.842983634947274,-0.40200775092230645,-0.8942572388966403,-2.424805318788418,-0.01821784522093822
1781556228095176704,2.338324546813965,0.581413984298706,0.11238889396190643,-0.21938006579875946,-0.4136233925819397,0.7817525863647461,0.46666771173477173,0.02659943699836731,0.1105203628540039,-0.028236865997314453,-0.3213608038896735,0.15755649829757779,0.8417302447677177,-0.4042195247652881,-0.8974713371859544,-2.416379419973011,-0.008723033662646469
1781556228105211392,2.3483593463897705,0.5200102925300598,0.06425066292285919,-0.21024516224861145,-0.41568079590797424,0.7834588289260864,0.4619544744491577,0.030655741691589355,0.012546420097351074,0.10271227359771729,-0.32259704635774533,0.15596209447941464,0.8406265898270827,-0.4061452437032312,-0.9002122109382669,-2.4088711387741655,-0.0002723580820991309
1781556228115246592,2.3583943843841553,0.543022632598877,0.06854954361915588,-0.1935412883758545,-0.4175885021686554,0.7849920392036438,0.45761045813560486,0.03874331712722778,0.0232049822807312,0.013794541358947754,-0.3236925713230388,0.15439747311315835,0.8396229188762938,-0.40794349919730666,-0.9026832993236793,-2.401891615640983,0.007788942167487434
1781556228125281536,2.36842942237854,0.5690145492553711,0.1435241848230362,-0.17859269678592682,-0.41955286264419556,0.786773145198822,0.4527292251586914,0.02247336506843567,0.11378544569015503,0.01522737741470337,-0.3249476740575423,0.1528891821383224,0.8384446952312511,-0.4099323328345579,-0.9055635843846154,-2.3942101344373823,0.01625829953230221
1781556228135317504,2.378465414047241,0.42183414101600647,0.20383065938949585,-0.12158667296171188,-0.42151957750320435,0.7884179949760437,0.4480164349079132,0.02134251594543457,0.18796157836914062,0.18735969066619873,-0.32637731401358266,0.15180882085155434,0.837234911158991,-0.4116670557823523,-0.9082329238390939,-2.386657460780456,0.023603789607268832
1781556228145352704,2.388500452041626,0.35135650634765625,0.157063290476799,-0.09942704439163208,-0.4231865704059601,0.7895984649658203,0.44435083866119385,0.02445906400680542,0.06809818744659424,0.18931621313095093,-0.3276496473516644,0.1511495383070074,0.8362590723717077,-0.41288058268754796,-0.9101543338060474,-2.3805854611457806,0.028946865185107935
1781556228155387648,2.3985354900360107,0.5626168847084045,0.07938048243522644,-0.1576938033103943,-0.42469897866249084,0.7910393476486206,0.44032689929008484,0.04538065195083618,-0.014824628829956055,-0.06822603940963745,-0.32871188869275336,0.15008611428393132,0.8352470377365244,-0.4144696825220018,-0.9125060382960131,-2.3742589637114344,0.03558366503585378
1781556228165422592,2.4085705280303955,0.670028030872345,0.1095462441444397,-0.19524544477462769,-0.42653846740722656,0.7930572628974915,0.43488481640815735,0.04436695575714111,0.1158934235572815,-0.18876060843467712,-0.32994792342459556,0.14846874426119344,0.8339061365692233,-0.41676354843402175,-0.9158116607023182,-2.3658832103523606,0.0450002884375165
1781556228175458560,2.4186065196990967,0.6245254874229431,0.23735320568084717,-0.22281821072101593,-0.42897164821624756,0.7950583696365356,0.42879584431648254,0.012650817632675171,0.2209634780883789,-0.02965635061264038,-0.331632370552288,0.14687677490163856,0.8323611827010301,-0.41907298098739687,-0.9191037763963402,-2.3559895423367543,0.05517301433760151
1781556228185493760,2.4286415576934814,0.4564288854598999,0.3135097324848175,-0.3369591534137726,-0.4323391318321228,0.7961534857749939,0.42334720492362976,0.016506552696228027,0.11534565687179565,0.11325865983963013,-0.33374809771777214,0.14541708857104713,0.830979829879745,-0.420640842428248,-0.9209114507655959,-2.3456864389784555,0.0646610811170435
1781556228195528448,2.438676357269287,0.2848890721797943,0.3487396240234375,-0.41034069657325745,-0.43673235177993774,0.7960423827171326,0.4190247058868408,0.06365489959716797,0.09591025114059448,0.18964844942092896,-0.3361750810203571,0.14393796154744695,0.8299362687366344,-0.42127674263631193,-0.9207279360668608,-2.335505051407162,0.0733039313794355
1781556228205563648,2.448711395263672,0.26653963327407837,0.3722051680088043,-0.4624395966529846,-0.44171538949012756,0.7952417135238647,0.41530510783195496,0.0056954026222229,-0.029906511306762695,0.19857126474380493,-0.3387911876527063,0.14244557006718547,0.82907286089326,-0.4213882318806646,-0.9194061304583465,-2.3253878391578287,0.08145294533642451
1781556228215599616,2.458747386932373,0.4209845960140228,0.41449296474456787,-0.5027726888656616,-0.4472343921661377,0.7945011258125305,0.41079115867614746,-0.1113288402557373,-0.14894753694534302,0.008779764175415039,-0.3416996252817378,0.14065315664281638,0.828017074584218,-0.4217176791487301,-0.9181856475065168,-2.313746641922352,0.09114956631956993
1781556228225634560,2.468782424926758,0.5486869215965271,0.526196300983429,-0.5152083039283752,-0.45320507884025574,0.7942019104957581,0.4047824740409851,-0.18859490752220154,-0.03039252758026123,-0.15884119272232056,-0.3450597043693353,0.1386860197998255,0.8265333756584466,-0.42254311441754366,-0.9176930171896975,-2.2998168663322405,0.10278524944067949
1781556228235669504,2.4788174629211426,0.5916631817817688,0.4790101945400238,-0.5777776837348938,-0.45964089035987854,0.7940068244934082,0.39784806966781616,-0.1674494743347168,0.051787734031677246,-0.1689053177833557,-0.348761801113662,0.13653229320760812,0.824792683668636,-0.4236048328553003,-0.9173720849736584,-2.2842563307367496,0.11582332797474576
1781556228245704704,2.4888525009155273,0.7399109601974487,0.33089393377304077,-0.6243547797203064,-0.4660579264163971,0.7937808036804199,0.3907710313796997,-0.008826106786727905,0.06252717971801758,-0.05234634876251221,-0.3521585010017409,0.13373687241129986,0.8231038556954601,-0.4249692331614077,-0.9170003283112094,-2.268552667356747,0.13051469566972249
1781556228255740672,2.4988884925842285,0.9565151333808899,0.23327124118804932,-0.6359256505966187,-0.472180038690567,0.7941467761993408,0.38259264826774597,0.03509196639060974,0.10361945629119873,-0.033135831356048584,-0.35523239762583836,0.13019550916458122,0.8211853972644864,-0.4272162245364194,-0.9176023269730438,-2.251767308152269,0.1481286401173312
1781556228265775616,2.5089235305786133,1.0403695106506348,0.17399339377880096,-0.6455191373825073,-0.47808873653411865,0.7948693037033081,0.3736494183540344,-0.03376734256744385,0.11048036813735962,-0.08274057507514954,-0.3581046099234444,0.1262040882178079,0.8190831725566569,-0.4300422845042361,-0.9187921978402491,-2.2341845262829008,0.16766010686764998
1781556228275810560,2.518958330154419,1.0469017028808594,0.10875634849071503,-0.6311324834823608,-0.48365548253059387,0.7957186102867126,0.36456719040870667,-0.02376025915145874,0.10720491409301758,0.026256173849105835,-0.3606932393754528,0.12198953130413598,0.8169468481883021,-0.4331475121043992,-0.9201930983253247,-2.216708774852544,0.18792115649809407
1781556228285845504,2.5289933681488037,0.867734968662262,0.09705361723899841,-0.6126189827919006,-0.4890075623989105,0.7962010502815247,0.3562805950641632,-0.00830698013305664,0.07565575838088989,0.12771299481391907,-0.36305896410883837,0.11788911912277418,0.8150107106219585,-0.43594497439826235,-0.920990095334937,-2.2004464199461773,0.2070616433293865
1781556228295881472,2.539029359817505,0.6389928460121155,0.08862604200839996,-0.584712028503418,-0.49411407113075256,0.7959511876106262,0.34973254799842834,0.00015658140182495117,0.043297410011291504,0.19454845786094666,-0.365186619321046,0.11424399500941197,0.8135198753041178,-0.4379182843302633,-0.9205772757793029,-2.1867361585800498,0.22314383155302275
1781556228305916672,2.5490643978118896,0.30918562412261963,0.12111421674489975,-0.6169578433036804,-0.4993029832839966,0.7945803999900818,0.34545379877090454,0.05978888273239136,0.022420823574066162,0.22125765681266785,-0.3672137507975606,0.11115189326307957,0.8126328523533304,-0.4386651247779677,-0.9183161633016135,-2.1760464415003877,0.23524333500098674
1781556228315951616,2.5590994358062744,0.017609180882573128,0.1115952804684639,-0.6040361523628235,-0.5045437812805176,0.792094349861145,0.34354332089424133,0.09937721490859985,0.0946243405342102,0.32206031680107117,-0.369119989445863,0.10862880317050189,0.8123862634071048,-0.4381537816851772,-0.9142325215256938,-2.168587420828871,0.2431588782761261
1781556228325986560,2.569134473800659,-0.12632109224796295,0.01740259863436222,-0.6043078303337097,-0.5096179246902466,0.7887423634529114,0.34376588463783264,0.06306952238082886,-0.06135594844818115,0.10937437415122986,-0.37069795575630926,0.10642391357624519,0.81274651053609,-0.43669220819324994,-0.9087604929075113,-2.164240950331424,0.2477934322107574
1781556228336022528,2.5791704654693604,0.20710161328315735,-0.03141207993030548,-0.6041629314422607,-0.5143886804580688,0.7855867743492126,0.3438868224620819,0.009765207767486572,-0.1954529881477356,-0.08471617102622986,-0.3719747392367345,0.10392054039121355,0.8131075755404641,-0.435535929678718,-0.9036438528672862,-2.1600912334082416,0.2532338958161577
1781556228346057728,2.589205503463745,0.7763224840164185,0.0014148443005979061,-0.5216608643531799,-0.5187290906906128,0.7844213843345642,0.3400043547153473,-0.03868967294692993,-0.04466015100479126,-0.1596912443637848,-0.3734073408774736,0.10070400450289388,0.8123182117233517,-0.43653715631254425,-0.9017626829062497,-2.15099783452846,0.2649356042880009
1781556228356092672,2.59924054145813,0.8603087067604065,0.011987593024969101,-0.5773031115531921,-0.5229002833366394,0.7846406698226929,0.3330383896827698,-0.02647721767425537,0.10284113883972168,-0.14442452788352966,-0.3749940734886799,0.09685622319704466,0.8106405290556937,-0.4391586871249521,-0.9021163203736888,-2.1379115690917208,0.28168841340252226
1781556228366127616,2.6092753410339355,0.4379231035709381,0.11276493966579437,-0.5919927954673767,-0.5278851389884949,0.7835667729377747,0.32765886187553406,0.024512946605682373,0.07336682081222534,-0.033988237380981445,-0.3768924095018492,0.09331214693154279,0.8093962390283653,-0.44059352067320956,-0.9003859424101243,-2.1262982804042143,0.2957079902223589
1781556228376163584,2.6193113327026367,0.0187628623098135,0.2307184785604477,-0.5881274938583374,-0.5328608155250549,0.7814295291900635,0.324695885181427,-0.05907338857650757,-0.14628243446350098,0.19919943809509277,-0.3789474899734801,0.09090587828158911,0.8087546421915286,-0.4405121034368238,-0.8969534732212421,-2.118058602943513,0.30405894417944573
1781556228386198528,2.6293463706970215,-0.8724626302719116,0.4937330484390259,-0.6150509715080261,-0.5391572117805481,0.7765256762504578,0.32606345415115356,0.016818344593048096,0.013223469257354736,0.24412691593170166,-0.3816307278677741,0.089791917071492,0.8093016366344572,-0.4374086013172246,-0.8891329172735875,-2.1147121823355817,0.3038508535225974
1781556228396233472,2.6393814086914062,-1.3726645708084106,0.2716589868068695,-0.588522732257843,-0.5449504852294922,0.7694913148880005,0.33303460478782654,-0.02360713481903076,-0.22943705320358276,0.27574536204338074,-0.3839883944459343,0.09060221177571001,0.8113621502922747,-0.4313184303527403,-0.8780442446258713,-2.119358153483954,0.29260671589207576
1781556228406268672,2.649416446685791,-1.1125227212905884,0.24016951024532318,-0.5811058282852173,-0.550265371799469,0.7619970440864563,0.3414209485054016,0.07268065214157104,-0.40581125020980835,0.08405512571334839,-0.38562007150628175,0.09111050122351678,0.8138853400569358,-0.4249548149288278,-0.866391430341573,-2.126128588447716,0.28075961423383644
1781556228416303616,2.659451484680176,-1.0748165845870972,0.3589901626110077,-0.49599993228912354,-0.5553707480430603,0.7554243206977844,0.34770286083221436,-0.002917766571044922,0.0886460542678833,-0.19915857911109924,-0.3875207006505951,0.09162571005210919,0.8157549586426942,-0.4194951960507636,-0.8563014177778662,-2.130167122769243,0.2713714071276114
1781556228426339584,2.669487476348877,-1.005770206451416,0.2650165259838104,-0.5668363571166992,-0.5604827404022217,0.7488313317298889,0.35370978713035583,-0.08729857206344604,0.06907021999359131,-0.3383289873600006,-0.3894465996453417,0.09211888414566968,0.8175383814875641,-0.4140971072087844,-0.8462969814629367,-2.133756254138407,0.26239443940971535
1781556228436374784,2.6795225143432617,-1.0989261865615845,0.20815643668174744,-0.5236063003540039,-0.5653901696205139,0.7420112490653992,0.36021316051483154,0.05701303482055664,-0.1171637773513794,-0.1803424060344696,-0.39102590480734584,0.09237557040128735,0.8194957769344224,-0.4086468866817032,-0.8360655703516716,-2.138053345836249,0.253579132710152
1781556228446409728,2.6895575523376465,-1.449083924293518,0.3859286904335022,-0.4757085144519806,-0.570198118686676,0.7343993782997131,0.3681461215019226,0.0576096773147583,-0.10677492618560791,0.05977126955986023,-0.3926559227029405,0.09344621734701192,0.8217912544935306,-0.4021793697695772,-0.824781351194953,-2.1441046275359614,0.24139074355040824
1781556228456444416,2.699592351913452,-1.3444797992706299,0.44143298268318176,-0.4852956235408783,-0.575210452079773,0.7264024019241333,0.3761284351348877,-0.09243786334991455,-0.1371384859085083,0.1462867259979248,-0.39466907549139074,0.09516913393728364,0.8240188400455258,-0.39518622007818516,-0.8130727521683178,-2.149906262665387,0.22762639206392102
1781556228466480384,2.7096283435821533,-1.2828611135482788,0.48923736810684204,-0.621850848197937,-0.5810065269470215,0.7182334661483765,0.38284748792648315,0.03858715295791626,0.046659111976623535,0.08282029628753662,-0.39704743917528007,0.09633547341644606,0.8259196243173296,-0.38849660060219676,-0.8012600965726924,-2.153429468891939,0.21636067949260576
1781556228476515584,2.719663381576538,-1.5641911029815674,0.594597339630127,-0.6068085432052612,-0.5875899195671082,0.7091302871704102,0.3897082209587097,0.08493483066558838,0.14314943552017212,0.18299990892410278,-0.3998292070300128,0.09760168590305456,0.827845412651035,-0.3811595053343143,-0.7882639690080818,-2.156417063643257,0.20451990695125138
1781556228486550528,2.729698419570923,-1.8202258348464966,0.5911222100257874,-0.542727530002594,-0.5940544009208679,0.6989801526069641,0.39815375208854675,-0.02568143606185913,-0.043859243392944336,0.35010677576065063,-0.4025962187206721,0.09978482582990869,0.8301324396703167,-0.37261171934852294,-0.7739704023645108,-2.1612626067955545,0.18899498079807975
1781556228496585728,2.7397334575653076,-1.6065495014190674,0.3152831494808197,-0.35955822467803955,-0.5990006923675537,0.689070463180542,0.40789735317230225,-0.014952003955841064,-0.09528988599777222,0.18136662244796753,-0.40442900623213857,0.1024314715295418,0.8327403352032717,-0.36398979764853157,-0.7602056439516449,-2.168631254078669,0.17169844929291153
1781556228506621696,2.749769449234009,-0.9515057802200317,0.1274966150522232,-0.6781373023986816,-0.6034461855888367,0.6807520389556885,0.4152466654777527,0.08452516794204712,-0.0007897019386291504,-0.5591522455215454,-0.40560350840770565,0.10318160517314183,0.8348514187688746,-0.3575788246719567,-0.7487887749120088,-2.1735082263039693,0.16150056625999348
1781556228516656640,2.7598044872283936,-0.731370747089386,0.29977622628211975,-0.45788371562957764,-0.608253538608551,0.6737083792686462,0.41969603300094604,-0.0150679349899292,0.09780651330947876,-0.6731597185134888,-0.40700669271942574,0.10268123899687637,0.836244327020268,-0.3528421430000054,-0.7392155110967453,-2.1747805088367897,0.15691573582007348
1781556228526691584,2.7698395252227783,-0.6830796599388123,0.4520704448223114,-0.2685646712779999,-0.6124299168586731,0.66847825050354,0.4219793379306793,-0.12464594841003418,0.09336262941360474,0.06878906488418579,-0.40900148047588397,0.10334313071516663,0.8368451898100988,-0.34889562327746887,-0.7321607802566977,-2.1741182905463035,0.15175629103138427
1781556228536726528,2.779874324798584,-0.2037746161222458,0.1804615557193756,-0.42757827043533325,-0.6159366965293884,0.6646378040313721,0.42293989658355713,0.015305101871490479,-0.06867539882659912,0.1716492474079132,-0.41067782227239547,0.10345139463410337,0.8371187246819362,-0.3462277347975442,-0.7270089836293421,-2.1725139364850388,0.1493487756444535
1781556228546762752,2.7899105548858643,0.11096496134996414,0.032289404422044754,-0.5091953873634338,-0.6195380687713623,0.6615426540374756,0.4225326478481293,0.21966630220413208,0.09390467405319214,-0.15435948967933655,-0.41186762447306,0.10158358393671608,0.8372258319027515,-0.3451068088261314,-0.7228740181167553,-2.1693477913444634,0.15285307784256724
1781556228556797440,2.79994535446167,0.05925063043832779,0.22106143832206726,-0.31990721821784973,-0.6227754354476929,0.6593104600906372,0.42126014828681946,0.0610995888710022,0.14072299003601074,0.008137375116348267,-0.41313591453026555,0.09992611644565859,0.8370453063778887,-0.34451200488506434,-0.7199012771661063,-2.1655234867883415,0.15675199799478057
1781556228566832640,2.8099803924560547,-0.09458926320075989,0.2646878957748413,-0.26927119493484497,-0.6257721781730652,0.6574642658233643,0.41970211267471313,-0.09169602394104004,0.05754733085632324,0.2717803716659546,-0.4147190438750708,0.09919070600128319,0.8366673566964686,-0.343739780218034,-0.7174484478854412,-2.161582423227045,0.15877357493993235
1781556228576867584,2.8200154304504395,-0.41315552592277527,0.15079568326473236,-0.3942387104034424,-0.6290170550346375,0.6543014049530029,0.4197942316532135,-0.006740391254425049,-0.01833033561706543,0.17546629905700684,-0.4161595351523972,0.09861294840976975,0.8367631705508382,-0.3419270642403484,-0.7132584444421266,-2.159293516565329,0.15876678673634642
1781556228586903552,2.8300514221191406,-0.3145783543586731,0.01913844794034958,-0.1826886385679245,-0.6311914324760437,0.6507326364517212,0.4220714867115021,0.05062508583068848,-0.016333281993865967,0.08415409922599792,-0.4167179742948188,0.09834418674956881,0.8374748758380551,-0.3395738153104423,-0.7085489421338799,-2.160198485194845,0.15642587216569942
1781556228596938496,2.8400864601135254,0.005094453692436218,0.15640628337860107,-0.2064426988363266,-0.632837176322937,0.648863673210144,0.4224841296672821,-0.01628696918487549,-0.14065438508987427,-0.322051078081131,-0.4173403631589296,0.09796989641537901,0.8376419099415113,-0.3385038784520888,-0.7060900707546184,-2.1594470354136335,0.15625945378882838
1781556228606973696,2.85012149810791,0.2866739332675934,0.15785878896713257,-0.1969759613275528,-0.6348403096199036,0.6483554840087891,0.4202533960342407,-0.03843843936920166,0.13483238220214844,-0.3267780542373657,-0.4184572425488329,0.09701233536627948,0.8370873895714667,-0.3387725617032861,-0.7054224406345796,-2.1555492450037192,0.1597513362879956
1781556228617009664,2.8601574897766113,0.22711899876594543,0.07349835336208344,-0.23514704406261444,-0.6366719603538513,0.6481572389602661,0.4177810251712799,0.027922630310058594,0.2175043821334839,-0.17615807056427002,-0.4194053658112205,0.09573529193522762,0.8364958246608682,-0.3394239736235681,-0.7051620809174329,-2.1515143008928233,0.16429301674694488
1781556228627044608,2.870192527770996,0.15002474188804626,0.1580481380224228,-0.19590936601161957,-0.6385043263435364,0.6475504040718079,0.4159221649169922,0.013336360454559326,-0.06319957971572876,-0.020460039377212524,-0.42032164749721196,0.09468791733021593,0.8360593732926455,-0.3396598601949527,-0.7043654027886573,-2.148155573131095,0.16771368089050043
1781556228637079552,2.8802273273468018,0.10790126025676727,0.12381213158369064,-0.30438071489334106,-0.6407017707824707,0.6465622186660767,0.4140757620334625,0.015869617462158203,-0.13394320011138916,0.10019123554229736,-0.42142192871193784,0.0936259314380816,0.8356267507599866,-0.33965532705734086,-0.7030693218157533,-2.144555306855398,0.17098573193084068
1781556228647114496,2.8902623653411865,-0.15500015020370483,0.24406157433986664,-0.30317190289497375,-0.6434739232063293,0.6444119811058044,0.4131276607513428,0.044429123401641846,0.02756977081298828,0.11954137682914734,-0.42267580186100595,0.0926476198255672,0.8354521229226747,-0.3387939066088403,-0.7002540714677025,-2.1415462448727394,0.17295245913585744
1781556228657149440,2.9002974033355713,-0.3449261486530304,0.13602511584758759,-0.32968100905418396,-0.6462969183921814,0.6412919759750366,0.41357624530792236,0.028315842151641846,0.005513012409210205,0.2028789222240448,-0.4239257800552781,0.09229722198054942,0.8356251197695107,-0.33689606329748173,-0.6961808774736491,-2.140050468844909,0.17208039824217114
1781556228667185664,2.9103333950042725,-0.26642146706581116,0.12064602971076965,-0.32622742652893066,-0.6489636898040771,0.6377810835838318,0.4148270785808563,0.04668402671813965,-0.1533297300338745,-0.036531150341033936,-0.42483544477327656,0.09171470295665515,0.8360633649556389,-0.33481540608755966,-0.6916139476632177,-2.1395521336668595,0.171076431922615
1781556228677220608,2.9203684329986572,-0.012846197001636028,0.1435691863298416,-0.25328558683395386,-0.6513299942016602,0.6354067325592041,0.41476166248321533,-0.005133569240570068,-0.05958592891693115,-0.13731124997138977,-0.42582715271118027,0.09105428027325244,0.8361159942752009,-0.3336020328003066,-0.6885351766143942,-2.1378303160153376,0.17159133125264217
1781556228687255552,2.930403470993042,0.14224298298358917,0.05462600290775299,-0.2974429130554199,-0.6534974575042725,0.6339792013168335,0.413535475730896,-0.005712747573852539,0.006096482276916504,-0.326865553855896,-0.42674623748087087,0.08987255873581221,0.8358771824435288,-0.33334662403272874,-0.6866878673794219,-2.1349874817690897,0.17449768106136795
1781556228697291520,2.940439462661743,-0.01400041114538908,-0.0009437841363251209,-0.24431711435317993,-0.6552956700325012,0.6325109004974365,0.4129379987716675,0.041800737380981445,0.027035057544708252,-0.1990707516670227,-0.42732327998322284,0.08863943785188533,0.835830152620994,-0.3330554051802623,-0.6847906731072523,-2.1330941765887266,0.17711638512947847
1781556228707326720,2.950474500656128,-0.196214959025383,-0.018600143492221832,-0.23678196966648102,-0.6567608714103699,0.6304410099983215,0.41377487778663635,0.06618452072143555,-0.028115391731262207,0.08436354994773865,-0.42763546766335914,0.08791482522096408,0.8361569394028376,-0.3320249903867399,-0.6821211986093902,-2.13299999512543,0.17735654970836268
1781556228717361664,2.9605095386505127,-0.22919447720050812,-0.004000161308795214,-0.24441298842430115,-0.6582671403884888,0.6279080510139465,0.415229856967926,0.07551872730255127,-0.04010897874832153,0.2627638578414917,-0.4278984676597053,0.08732682110075542,0.8366534263237304,-0.33058730490130495,-0.6788623716627991,-2.1335500549411845,0.17667670850845793
1781556228727396608,2.9705443382263184,-0.29294922947883606,0.004314760211855173,-0.32110562920570374,-0.6600512862205505,0.6249806880950928,0.4168114960193634,0.06823909282684326,0.0500834584236145,0.20754772424697876,-0.4282573312800964,0.08667312237207972,0.837193831430939,-0.3289225576976679,-0.6751067745612026,-2.134044329516395,0.17589346093514024
1781556228737432576,2.9805803298950195,-0.47059139609336853,-0.0075738574378192425,-0.24877257645130157,-0.6618460416793823,0.6214872002601624,0.41918206214904785,0.014003574848175049,0.011188030242919922,0.020332157611846924,-0.4285556101288514,0.08625821136344353,0.8379442425639423,-0.3267247832703204,-0.6706395879589253,-2.1353796512882837,0.17380729691672997
1781556228747467520,2.9906153678894043,-0.42908814549446106,-0.01108803041279316,-0.2473917305469513,-0.6632937788963318,0.6179752349853516,0.42207562923431396,-0.010152816772460938,-0.14617353677749634,0.020978540182113647,-0.42871269885932645,0.08622347521723937,0.8388106590538698,-0.32429548138242303,-0.6661646675550231,-2.137503617579651,0.1705137779456062
1781556228757502464,3.000650405883789,-0.45555758476257324,0.022652622312307358,-0.32354268431663513,-0.6650962829589844,0.6142051219940186,0.42473381757736206,0.01476675271987915,0.020743489265441895,-0.04713985323905945,-0.42900938608514894,0.08594650581739481,0.8396309311488841,-0.32184462692489996,-0.6613783094090735,-2.139119257850845,0.16783061288934353
1781556228767537664,3.010685443878174,-0.5928059816360474,0.042969875037670135,-0.22595354914665222,-0.6669642925262451,0.610037088394165,0.4278007745742798,-0.006222963333129883,0.07146620750427246,-0.002141594886779785,-0.429372921360425,0.0859757769459544,0.8405406355475511,-0.3189647932581246,-0.656107387635911,-2.14111258906279,0.1640127993552212
1781556228777573632,3.020721435546875,-0.6221635937690735,0.08002323657274246,-0.18513688445091248,-0.6685037612915039,0.6059882640838623,0.43113958835601807,-0.02949434518814087,-0.08995121717453003,0.11132568120956421,-0.42971114178286396,0.0865493642623584,0.8414742984183493,-0.31587762360324045,-0.6510076292467845,-2.14360067318707,0.15882950243744096
1781556228787608576,3.0307564735412598,-0.3820415437221527,0.13340802490711212,-0.20568209886550903,-0.6701178550720215,0.6025415062904358,0.43345844745635986,-0.011461913585662842,0.01240307092666626,0.0400371253490448,-0.43023574202356313,0.08697498203074346,0.8421190971976792,-0.3133179243989977,-0.64668179183789,-2.144946294945337,0.15488042566190416
1781556228797643776,3.0407915115356445,-0.33660563826560974,0.1826128512620926,-0.22776876389980316,-0.6721365451812744,0.5995628237724304,0.43446141481399536,0.01152259111404419,0.1582190990447998,-0.07230940461158752,-0.43110239352020946,0.0870384838656054,0.8424102357394891,-0.3113197020392446,-0.6429547264863559,-2.1446285903833333,0.15275241438193377
1781556228807678720,3.0508265495300293,-0.5986257791519165,0.23856599628925323,-0.2079383283853531,-0.6743773818016052,0.5960808992385864,0.4357782304286957,-0.005294740200042725,0.1361883282661438,0.0413946807384491,-0.4321532612168484,0.08747241734629899,0.8427560120847277,-0.30879513676323256,-0.6386111771558389,-2.1444909105509495,0.14933285259944667
1781556228817714688,3.0608625411987305,-0.7139188051223755,0.1950339674949646,-0.20789465308189392,-0.6765716671943665,0.5917240977287292,0.4383074641227722,-0.032229602336883545,-0.007709205150604248,0.022721529006958008,-0.4331030764169412,0.0884003042567708,0.8434092270844403,-0.30539812382123993,-0.6331958486735602,-2.145648756985062,0.14367285436239582
1781556228827749376,3.070897340774536,-0.6567521691322327,0.18116317689418793,-0.11818554997444153,-0.6783405542373657,0.5874947905540466,0.4412527084350586,-0.05585134029388428,-0.12655729055404663,-0.1259145736694336,-0.4338018557152448,0.08951032376182778,0.8441648236807155,-0.30197617187005654,-0.6279595746505467,-2.1475148378224027,0.13744280745135598
1781556228837784576,3.080932378768921,-0.35879722237586975,0.2052120417356491,-0.17975303530693054,-0.6800798177719116,0.5842736959457397,0.44284987449645996,-0.051670730113983154,-0.06014949083328247,-0.22173458337783813,-0.43463459788050773,0.09027784546809793,0.8445560025345455,-0.2994460700092444,-0.6239848246873526,-2.147995959591801,0.13323713411324045
1781556228847819520,3.0909674167633057,-0.132461816072464,0.21293361485004425,-0.16142462193965912,-0.6819614768028259,0.5820513367652893,0.44288215041160583,-0.01748603582382202,0.06147277355194092,-0.16414982080459595,-0.43564812475634773,0.09043769083739667,0.8445484558157704,-0.29794223487846055,-0.6212491086651575,-2.1467665031774588,0.13176837843325256
1781556228857855488,3.101003408432007,-0.04452236741781235,0.17176328599452972,-0.23713669180870056,-0.6839715242385864,0.5804294943809509,0.44190987944602966,0.003536403179168701,0.0612635612487793,-0.13616961240768433,-0.43674386197511983,0.09004816524848101,0.8443022337471452,-0.29715277403006984,-0.6192559931903231,-2.144420751734654,0.13240442756458762
1781556228867890688,3.1110384464263916,-0.18513967096805573,0.1804446578025818,-0.24917392432689667,-0.6861820220947266,0.5782055854797363,0.44139814376831055,0.005334913730621338,-0.0014844536781311035,-0.04805713891983032,-0.4377871946988386,0.08949049013274556,0.8442100043491592,-0.2960460230729076,-0.6165276715452861,-2.1424236450600533,0.13289971589611813
1781556228877925632,3.1210734844207764,-0.14083638787269592,0.11681587249040604,-0.24886418879032135,-0.6882569193840027,0.5757661461830139,0.4413570463657379,0.0006347894668579102,-0.05238962173461914,0.19113510847091675,-0.43872987005341346,0.08912429249519073,0.8442365651550876,-0.2946822998002453,-0.6135408624679548,-2.1410084564282608,0.13258720788690032
1781556228887960576,3.131108522415161,0.109508216381073,-0.021790608763694763,-0.3823314309120178,-0.6902803182601929,0.5735031962394714,0.4411431550979614,0.03940141201019287,-0.061708152294158936,-0.029720425605773926,-0.4393868342647338,0.08790722972013128,0.8443008305262371,-0.29388377148890044,-0.6107758157099181,-2.139455342386895,0.13445821939865943
1781556228897996544,3.1411445140838623,0.29370707273483276,-0.10542931407690048,-0.3790200650691986,-0.6922304034233093,0.57170569896698,0.4404199719429016,0.060348689556121826,0.04322350025177002,-0.12480711936950684,-0.4397657938458437,0.08568539320924665,0.8443151072783642,-0.2939321252547954,-0.6085832846512071,-2.1374326927048815,0.13919046324119055
1781556228908031744,3.151179552078247,0.3460155427455902,-0.12382575869560242,-0.37218692898750305,-0.6938584446907043,0.5705831050872803,0.4393129050731659,-0.00684046745300293,-0.013545632362365723,-0.10366517305374146,-0.43996480591942216,0.08318873556666043,0.8442369836119239,-0.29457537268680606,-0.607215679807093,-2.135231203231923,0.14509922066871622
1781556228918066432,3.1612143516540527,0.2388313114643097,-0.04727266728878021,-0.25810644030570984,-0.6953362226486206,0.5695754885673523,0.4382822811603546,-0.039527058601379395,-0.0884353518486023,-0.027164816856384277,-0.44021522734452234,0.0811070741690517,0.8441343435633866,-0.2950752704664634,-0.6059892738905358,-2.1332100384866695,0.15004144961957158
1781556228928101632,3.1712493896484375,0.30408620834350586,-0.09437772631645203,-0.2806681990623474,-0.6965188384056091,0.5689222812652588,0.4372512698173523,0.027970314025878906,0.034532248973846436,0.15979450941085815,-0.4404099528343521,0.07930367029605577,0.8440003296702406,-0.2956574837728316,-0.6051947879154294,-2.1313826247307253,0.15450219652685077
1781556228938137600,3.1812853813171387,0.24604395031929016,-0.04066842794418335,-0.25998395681381226,-0.6978371739387512,0.5682069063186646,0.4360782504081726,0.09996730089187622,0.13185101747512817,0.00964626669883728,-0.4406541270745009,0.0773582788691269,0.8438334086128719,-0.2962850203199222,-0.6043251569051996,-2.1293235378967648,0.15933870804874947
1781556228948172288,3.1913201808929443,0.1272837370634079,-0.05310378968715668,-0.23324023187160492,-0.699011504650116,0.5673673152923584,0.43528980016708374,0.07327908277511597,0.1173403263092041,0.030683040618896484,-0.4408983098114883,0.07585067962110854,0.8437366718449083,-0.2965868884643972,-0.6033052701028699,-2.1277557986846967,0.16287955512617666
1781556228958207232,3.20135498046875,0.14353780448436737,0.005708392709493637,-0.13867776095867157,-0.6999407410621643,0.5665915608406067,0.4348069727420807,0.009327948093414307,0.02193993330001831,0.0161970853805542,-0.44110714540909496,0.07478291435532383,0.8436889270146796,-0.2966834052930219,-0.6023634857779452,-2.1266623059654197,0.16525539590481444
1781556228968242176,3.2113900184631348,0.10890154540538788,0.16277830302715302,-0.08654186874628067,-0.7009667754173279,0.5663105249404907,0.43351778388023376,-0.07044118642807007,0.031086206436157227,0.006835490465164185,-0.44167592349870854,0.07412844498193102,0.8433646057357428,-0.2969232013252411,-0.602022472490576,-2.1246766827527113,0.1673099218617545
1781556228978278144,3.221426010131836,0.16700692474842072,0.19211967289447784,-0.11012788861989975,-0.7022829651832581,0.5663499236106873,0.4313305914402008,-0.07335168123245239,0.1421613097190857,0.04965689778327942,-0.4426512946472739,0.07367798595975752,0.8427555133373044,-0.29731198116024493,-0.6020702756393204,-2.121579653514112,0.1694975655702117
1781556228988313088,3.2314610481262207,0.1125095933675766,0.20961904525756836,-0.15896333754062653,-0.7039408087730408,0.5660161375999451,0.4290604591369629,-0.03408098220825195,0.11902713775634766,-0.011946260929107666,-0.44375122492283997,0.07302148195952311,0.8421389993511519,-0.2975811503175466,-0.601665308757222,-2.1181807099938714,0.17202197060854882
1781556228998348288,3.2414960861206055,0.15248869359493256,0.15158289670944214,-0.16680501401424408,-0.7055972218513489,0.5655419230461121,0.42696064710617065,-0.0613858699798584,-0.01306682825088501,0.047389447689056396,-0.4448270688529487,0.07239338506214774,0.8415696742516686,-0.2977393567555977,-0.6010901793399515,-2.1149612895507692,0.1743184967538121
1781556229008383232,3.2515311241149902,0.1207858994603157,0.2867320775985718,-0.15253819525241852,-0.7074320316314697,0.5649309754371643,0.42472708225250244,-0.13775229454040527,-0.11708545684814453,-0.062376558780670166,-0.44598289708448585,0.07164558074729262,0.8409699469774147,-0.2978855536341446,-0.6003496334553198,-2.111494175751709,0.17689179741549696
1781556229018419200,3.2615671157836914,0.055265478789806366,0.3378192186355591,-0.13196127116680145,-0.709606945514679,0.5643272995948792,0.4218922555446625,-0.21870732307434082,-0.13709640502929688,-0.03564649820327759,-0.4476358826991781,0.07144443248416912,0.8401439308249194,-0.29778534181699257,-0.5996181507234944,-2.107194112545271,0.17846554090942268
1781556229028454400,3.271602153778076,0.07614360004663467,0.19412757456302643,-0.2443232387304306,-0.7118026614189148,0.5631982088088989,0.4196963310241699,-0.08902442455291748,-0.05176931619644165,-0.041583478450775146,-0.44905067761214407,0.07090122700386252,0.8395362901660592,-0.297498603332111,-0.598251165893588,-2.10355190586472,0.18024545823490765
1781556229038489088,3.281636953353882,0.06699351221323013,0.28264519572257996,-0.22531944513320923,-0.7141379714012146,0.5617069005966187,0.41772323846817017,-0.018726468086242676,-0.07107579708099365,-0.0821363627910614,-0.45038359871448014,0.0700413620548225,0.8390207516181338,-0.2971416009726287,-0.5964474859123817,-2.100063858918497,0.18246431276689146
1781556229048525312,3.291673183441162,0.18267136812210083,0.3689080476760864,-0.205161452293396,-0.7166457176208496,0.5608019232749939,0.4146324098110199,-0.020445287227630615,-0.020732402801513672,0.17266318202018738,-0.45212422407894026,0.06942277367896506,0.8381507497237761,-0.2970984040449123,-0.5953540623336279,-2.0953122241965874,0.18497387792068273
1781556229058560256,3.3017079830169678,0.23540595173835754,0.24405664205551147,-0.2953411340713501,-0.7194049954414368,0.5598968267440796,0.4110619127750397,0.06945687532424927,0.16439205408096313,0.1581060290336609,-0.4539209257913419,0.06829990681214922,0.8371774483736556,-0.29736305600027235,-0.5942612450365233,-2.0899145155599386,0.1889173100246939
1781556229068595200,3.3117430210113525,0.09881722182035446,0.14556056261062622,-0.251487135887146,-0.7217156887054443,0.5585445165634155,0.40884509682655334,0.1295679211616516,-0.015972614288330078,-0.06334033608436584,-0.4551438876875564,0.06700546183072516,0.8366198780957056,-0.2973574409941654,-0.592630089966401,-2.0862119931939453,0.1923466195052597
1781556229078630144,3.3217780590057373,0.11114605516195297,0.19507139921188354,-0.18635447323322296,-0.7236126065254211,0.557391881942749,0.40706151723861694,0.10065734386444092,-0.1187475323677063,0.057858556509017944,-0.45623085596713303,0.06619236963699193,0.8361514960047827,-0.2971912892834296,-0.5912411127051734,-2.083216652011032,0.19451801702348553
1781556229088666112,3.3318140506744385,0.1670476645231247,0.12058397382497787,-0.22027942538261414,-0.7254580855369568,0.5564959049224854,0.4049972593784332,0.05547523498535156,-0.013206779956817627,-0.05267181992530823,-0.45729131312808424,0.0652158737078605,0.8356108676315891,-0.29729782083115697,-0.5901623094023635,-2.079962237332427,0.19735882914771
1781556229098701312,3.3418490886688232,0.055676404386758804,0.05913100391626358,-0.14752638339996338,-0.7268112897872925,0.5556542277336121,0.40372517704963684,0.0656173825263977,-0.036534905433654785,-0.11322838068008423,-0.45793007028943206,0.0642460730602888,0.8353053543318006,-0.2973845629426912,-0.5891496758685167,-2.0778329357080696,0.19982343828742433
1781556229108736256,3.351884126663208,-0.002363994950428605,0.15321262180805206,-0.021840637549757957,-0.7276732921600342,0.5550991296768188,0.4029351770877838,0.036556899547576904,-0.17478901147842407,0.07934945821762085,-0.4584890157176605,0.06406602651164138,0.8350827081084679,-0.29718733897988747,-0.5884821684882122,-2.076499432003161,0.20032310600607886
1781556229118771200,3.3619191646575928,0.1344207525253296,0.06568624079227448,-0.10520104318857193,-0.7285035252571106,0.5549421906471252,0.4016491174697876,0.09584355354309082,0.010792732238769531,0.14453929662704468,-0.45911323710388263,0.06383073364046275,0.8347156414820591,-0.2973055242338319,-0.5882934988215627,-2.0746635220119414,0.20142539330716944
1781556229128807424,3.371955156326294,-0.02571112848818302,0.007435719016939402,-0.046613361686468124,-0.7290924191474915,0.5545863509178162,0.40107184648513794,0.17329096794128418,0.1854649782180786,0.008886158466339111,-0.45938179226120546,0.06336676807103482,0.8345780845063429,-0.29737618115393855,-0.5878658031968421,-2.0737143240798157,0.2026142042264687
