time,seconds_elapsed,rotationRateX,rotationRateY,rotationRateZ,gravityX,gravityY,gravityZ,accelerationX,accelerationY,accelerationZ,quaternionW,quaternionX,quaternionY,quaternionZ,pitch,roll,yaw
1781518981713996288,0.020647525787353516,0.11591461300849915,-0.08333718031644821,-0.09414362907409668,-0.7867640256881714,-0.6068577170372009,0.11281130462884903,0.005849599838256836,-0.023345589637756348,0.038891568779945374,0.4642761280775262,-0.10590736399988165,-0.7383693406472487,-0.47753760223631453,0.6521011086421392,-1.7132120725015563,-0.8551441625395076
1781518981724031488,0.03068256378173828,0.17955590784549713,-0.0611497238278389,-0.08867216855287552,-0.7861402034759521,-0.6073842644691467,0.11431462317705154,-0.025047481060028076,0.028496384620666504,-0.0023456886410713196,0.4638781803235487,-0.10539212089384176,-0.7389518344451795,-0.4771369827423429,0.652763773418616,-1.7151967437454274,-0.8530627699676249
1781518981734065408,0.04071640968322754,0.18499141931533813,-0.06469465792179108,-0.08216952532529831,-0.7855489253997803,-0.6078488826751709,0.11589852720499039,-0.036365628242492676,0.025802433490753174,-0.020042784512043,0.46354673913798133,-0.10479450317116423,-0.739572427565649,-0.4766288981338872,0.6533487361142074,-1.7172778415706793,-0.850629082892876
1781518981744100352,0.050751447677612305,0.16638045012950897,-0.07946880161762238,-0.073123037815094,-0.7849836349487305,-0.6082635521888733,0.1175418570637703,-0.020253121852874756,0.0033136606216430664,-0.007907398045063019,0.46318224547077186,-0.10426598164172692,-0.7402023587644723,-0.47612106692327544,0.6538710836587738,-1.7194299963170696,-0.8482833824674637
1781518981754135296,0.06078648567199707,0.13298334181308746,-0.08154180645942688,-0.06496071070432663,-0.7844706773757935,-0.6086245775222778,0.11908897757530212,0.0005044937133789062,-0.005663812160491943,-0.007058963179588318,0.4627986951289453,-0.1038556702243532,-0.7407823500469797,-0.4756816217696686,0.654325963792812,-1.7214540888701497,-0.846281842718198
1781518981764169472,0.07082056999206543,0.07945327460765839,-0.0681353211402893,-0.06545685976743698,-0.7839913368225098,-0.6089988946914673,0.1203237771987915,0.014795899391174316,0.0038048624992370605,0.00017487257719039917,0.4624251702969288,-0.1035490906013359,-0.7412418455445665,-0.475395663846223,0.6547978380358443,-1.7230839387353216,-0.8448303061483814
1781518981774204160,0.0808553695678711,0.06543678790330887,-0.06639574468135834,-0.07392571121454239,-0.7834891080856323,-0.6094552874565125,0.12128076702356339,0.022075533866882324,0.02159518003463745,0.019008517265319824,0.4620467133370665,-0.10329183286927934,-0.7416004184058645,-0.47526039805826353,0.6553733891120035,-1.7243731411496495,-0.8438240353258526
1781518981784239360,0.09089040756225586,0.09550175070762634,-0.06250473111867905,-0.09678015857934952,-0.7829052209854126,-0.6100141406059265,0.1222371831536293,0.02416205406188965,0.02931046485900879,0.029206261038780212,0.46165646983000685,-0.10295471244695442,-0.7419696207684382,-0.4751364103839231,0.6560784434266878,-1.7256786576893224,-0.8427079175999664
1781518981794274304,0.10092544555664062,0.08001492917537689,-0.05952013283967972,-0.0988001674413681,-0.7822105884552002,-0.6106989979743958,0.12326153367757797,0.013060808181762695,0.005886375904083252,0.013457179069519043,0.46123630089405626,-0.10251388905814329,-0.7423756931506091,-0.4750056052673695,0.6569429903292199,-1.7270920946827335,-0.8413861561436705
1781518981804308480,0.11095952987670898,0.13436952233314514,-0.053275685757398605,-0.064512237906456,-0.7816526293754578,-0.6111900806427002,0.12436205893754959,-0.008737385272979736,-0.024506330490112305,-0.010943412780761719,0.46088641985014867,-0.10211167066933824,-0.7428016127461733,-0.47476595437790803,0.6575633112729434,-1.7285753322472652,-0.8399068055625266
1781518981814343424,0.12099456787109375,0.19626830518245697,-0.06730575114488602,-0.03974777087569237,-0.7812472581863403,-0.6114147305488586,0.12579607963562012,-0.014712154865264893,-0.017125308513641357,-0.02305866777896881,0.4606299286237136,-0.10166730250428441,-0.7433450045849549,-0.47425939694586655,0.6578471562125716,-1.7304455194012236,-0.8377688901361352
1781518981824378368,0.13102936744689941,0.22797536849975586,-0.12115325778722763,-0.015601420775055885,-0.7809720039367676,-0.611335039138794,0.12787523865699768,0.0025449395179748535,0.0030282139778137207,-0.05536545813083649,0.46033430388456087,-0.10128427519558544,-0.7440961739085208,-0.4734497400972321,0.6577464727717804,-1.7330946992844116,-0.8349615753140706
1781518981834412288,0.14106345176696777,0.20585381984710693,-0.16018162667751312,0.008221353404223919,-0.7807596325874329,-0.6110880374908447,0.13032877445220947,0.023450791835784912,0.002353966236114502,-0.08089031279087067,0.459902797465537,-0.10110094592044727,-0.7449449550227604,-0.4725726607810224,0.657434388733929,-1.7361969361586822,-0.83222168045024
1781518981844447488,0.15109848976135254,0.1369469314813614,-0.1577184647321701,0.03137247636914253,-0.7806803584098816,-0.6106883883476257,0.1326565146446228,0.019938230514526367,-0.0009906888008117676,-0.05808688700199127,0.4594458691797487,-0.10115382922209923,-0.7457185553442863,-0.47178508202740255,0.6569295848782258,-1.739112858352017,-0.8300702577807862
1781518981854481920,0.1611330509185791,0.021249620243906975,-0.11900542676448822,0.018751492723822594,-0.780647337436676,-0.6103844046592712,0.13424135744571686,0.0015030503273010254,0.00606006383895874,-0.006357431411743164,0.45901935720310055,-0.10140004845071693,-0.746216263748253,-0.47136036929079383,0.65654576041638,-1.741092362554701,-0.8291406085133196
1781518981864516608,0.17116785049438477,-0.0792040154337883,-0.060462892055511475,0.020399723201990128,-0.7806286811828613,-0.6103034615516663,0.1347161829471588,-0.013987958431243896,0.008695244789123535,0.06795106828212738,0.45870607463984303,-0.1017572967195945,-0.746326701114806,-0.4714134038901366,0.6564435857379689,-1.7416870773792772,-0.8296322609814963
1781518981874550784,0.18120193481445312,-0.04386919364333153,-0.11900635808706284,-0.0724702924489975,-0.780535101890564,-0.6103954911231995,0.1348421573638916,-0.015134453773498535,0.008009016513824463,0.1186826229095459,0.4584057793685609,-0.10208746332196032,-0.7463238101390108,-0.47163873755995545,0.6565597683407048,-1.741863894064277,-0.8305077469809102
1781518981884585984,0.1912369728088379,-0.018895935267210007,-0.06932508945465088,-0.027442101389169693,-0.7800067067146301,-0.6109831929206848,0.13523748517036438,0.006401360034942627,-0.011300742626190186,0.09483444690704346,0.4579179269262553,-0.1021174883055979,-0.7464521170675578,-0.4719030584250326,0.657301991043583,-1.7424696051046868,-0.8308590318487152
1781518981894620928,0.20127201080322266,0.09412915259599686,-0.05997486785054207,-0.05918831378221512,-0.7796458601951599,-0.6112749576568604,0.1359979659318924,0.0038583874702453613,-0.021491825580596924,0.03219963610172272,0.4575720257554989,-0.10203958076994797,-0.7467174217289191,-0.47183569792043223,0.6576705671286466,-1.7434942845383934,-0.8303270994106836
1781518981904654848,0.21130585670471191,0.15133517980575562,-0.10383180528879166,-0.00036734135937877,-0.7793675065040588,-0.6113145351409912,0.13740795850753784,-0.028112351894378662,0.007371664047241211,-0.07232928276062012,0.4572731377089544,-0.10183153128041023,-0.747217720386697,-0.4713781313153886,0.6577205814558377,-1.7453098980526194,-0.8286676924312876
1781518981914689792,0.22134089469909668,0.16617991030216217,-0.14685942232608795,0.0277567058801651,-0.7792696952819824,-0.610996425151825,0.13936373591423035,-0.025082111358642578,0.002857387065887451,-0.14275121688842773,0.4569254417447797,-0.10179085797201037,-0.74787732445689,-0.4706775251572774,0.6573186829765514,-1.7477643866184194,-0.8266595790639631
1781518981924724736,0.23137593269348145,0.10164805501699448,-0.18187467753887177,0.03478078916668892,-0.7792524695396423,-0.6105285286903381,0.14149442315101624,-0.003782927989959717,-0.01648569107055664,-0.10383568704128265,0.456451425404698,-0.10200997437516628,-0.7485594014552707,-0.470005258856746,0.6567277400052368,-1.7504164778496984,-0.8250605267061928
1781518981934758912,0.2414100170135498,0.046286262571811676,-0.17362819612026215,0.012145787477493286,-0.7791251540184021,-0.6102588772773743,0.1433451920747757,0.00559622049331665,-0.003953099250793457,-0.01874198019504547,0.45586734400404233,-0.10234018496438965,-0.7491322179123523,-0.469587315690549,0.6563873326071039,-1.752743833381427,-0.8241846134430639
1781518981944793856,0.25144505500793457,0.0865202397108078,-0.14698925614356995,-0.013780085369944572,-0.7788844704627991,-0.6101841926574707,0.14496248960494995,0.005630135536193848,0.0072179436683654785,0.06071065366268158,0.4552859170174279,-0.1025858145170271,-0.7496381783075338,-0.4692903450722509,0.6562930261027567,-1.7548064899485407,-0.8234658082717291
1781518981954828800,0.26147985458374023,0.06866960227489471,-0.10238876938819885,-0.02237117663025856,-0.778562068939209,-0.6102330684661865,0.1464807689189911,0.0015540719032287598,-0.004757106304168701,0.07339833676815033,0.45480364055408035,-0.10259845139068413,-0.7501426127689961,-0.46894907543717823,0.6563547567162064,-1.756765066395288,-0.8223280679692364
1781518981964863744,0.271514892578125,0.07808893173933029,-0.08060917258262634,0.030873669311404228,-0.7783581614494324,-0.6101856231689453,0.147757887840271,-0.005134940147399902,-0.013608992099761963,0.0584646612405777,0.4544305508384851,-0.10264100173124407,-0.7505623007920953,-0.46863000073201966,0.6562948484167352,-1.7583968586977294,-0.8213700372853535
1781518981974897920,0.28154897689819336,0.13258014619350433,-0.17671653628349304,0.0703454464673996,-0.7785432934761047,-0.6095899939537048,0.14923278987407684,0.026025593280792236,0.001496732234954834,0.013685345649719238,0.45416465906926434,-0.10294504634326583,-0.7510117937487265,-0.4681005154487457,0.6555432942346533,-1.7601812399585657,-0.8204136823557546
1781518981984932864,0.2915840148925781,0.1882748305797577,-0.1956176608800888,0.07659082859754562,-0.7786095142364502,-0.6089194416999817,0.1516060084104538,0.048522233963012695,-0.0069863200187683105,-0.047785282135009766,0.45374258243377413,-0.10314318843470227,-0.7517742260964664,-0.4672415630092118,0.6546976223313955,-1.7631038599636681,-0.8183886123391478
1781518981994968064,0.3016190528869629,0.16091111302375793,-0.30377766489982605,0.17741702497005463,-0.7790290713310242,-0.6075574159622192,0.1548793762922287,0.06931233406066895,-0.028398334980010986,-0.11023224890232086,0.4530922469738053,-0.10393943963079406,-0.7527524689403494,-0.4661198430797195,0.6529817274843372,-1.767048136209466,-0.8165746786937926
1781518982005001728,0.31165289878845215,0.12178075313568115,-0.34920522570610046,0.23962661623954773,-0.7797452807426453,-0.6057867407798767,0.1581769585609436,0.05077177286148071,-0.038836121559143066,-0.056705936789512634,0.45246458946449986,-0.10507311052168361,-0.7536896735119685,-0.4649595775541764,0.6507543267108611,-1.770937705466714,-0.815260812091731
1781518982015036928,0.3216879367828369,0.015555249527096748,-0.38299432396888733,0.278008371591568,-0.7807343006134033,-0.6036415100097656,0.16146592795848846,0.05519402027130127,-0.04189687967300415,0.01785542070865631,0.4516982300888896,-0.10678910694433975,-0.7545389661497776,-0.46393520679952294,0.6480607727789359,-1.7747340972448093,-0.8151589898392918
1781518982025071872,0.3317229747772217,-0.08297558128833771,-0.3790648579597473,0.3228147327899933,-0.781934916973114,-0.6013175845146179,0.1643006056547165,0.050978004932403564,-0.05552738904953003,0.0873626172542572,0.4509419495090786,-0.10887643896873302,-0.755179596463533,-0.46314249178956823,0.6451491440731629,-1.7779039842511295,-0.8162475515121037
1781518982035106048,0.34175705909729004,-0.17575931549072266,-0.36191675066947937,0.37228694558143616,-0.7834071516990662,-0.5988191366195679,0.1663995385169983,0.04129600524902344,-0.060284197330474854,0.1311316341161728,0.45026986095158705,-0.11135247016719284,-0.7555133309395548,-0.46266321458888204,0.6420258371640188,-1.7800907446842933,-0.8187927550412518
1781518982045140736,0.3517918586730957,-0.14482936263084412,-0.35367998480796814,0.3956146240234375,-0.7851249575614929,-0.5960947275161743,0.16807633638381958,0.05425959825515747,-0.016957581043243408,0.14417944848537445,0.44973213716318333,-0.11403041681329264,-0.7556687302891265,-0.4622799628507704,0.6386284169419776,-1.7816890425315295,-0.8220020621798809
1781518982055175680,0.36182689666748047,-0.08174414187669754,-0.4137270748615265,0.41341519355773926,-0.7869099974632263,-0.5930351614952087,0.1705334633588791,0.054595112800598145,-0.028211116790771484,0.0641925185918808,0.44917640373821405,-0.11667055311958378,-0.756078507992712,-0.46149073923299694,0.634823164962834,-1.7842090148458711,-0.8242043069497568
1781518982065210880,0.37186193466186523,-0.14336782693862915,-0.495873361825943,0.4972435235977173,-0.7887957096099854,-0.5896923542022705,0.17339034378528595,0.02965569496154785,-0.07594180107116699,-0.04523181915283203,0.4484149587191546,-0.11971543138875321,-0.7565470171883453,-0.46068300943589907,0.6306778362203299,-1.7871716339203316,-0.8269246969884737
1781518982075244800,0.3818960189819336,-0.03174621984362602,-0.5445284843444824,0.5973395109176636,-0.7911315560340881,-0.5854735374450684,0.17700742185115814,0.007348597049713135,-0.07161569595336914,-0.06810545921325684,0.4476537936953242,-0.12321243033690057,-0.7571805630307522,-0.4594588085974374,0.6254640471142991,-1.7909107231889645,-0.8294707550823215
1781518982085280000,0.39193105697631836,0.013701156713068485,-0.6439814567565918,0.658945620059967,-0.7937454581260681,-0.5804975032806396,0.18163371086120605,0.009458959102630615,-0.07434868812561035,-0.14696574211120605,0.4468560106936796,-0.1269728174008411,-0.7580862471281443,-0.45771481806554715,0.6193395208157213,-1.7957543308256563,-0.831290063684839
1781518982095314688,0.401965856552124,-0.013550704345107079,-0.736390233039856,0.703490138053894,-0.796423614025116,-0.5750281810760498,0.18722166121006012,0.03305691480636597,-0.0970909595489502,-0.13206124305725098,0.4457850513672993,-0.1311468617496407,-0.759217577553563,-0.4557025886377368,0.612638628378264,-1.8016821877586582,-0.8330884624687623
1781518982105348864,0.4119999408721924,-0.0023798090405762196,-0.7797199487686157,0.76535564661026,-0.7991728782653809,-0.5692070722579956,0.1931990385055542,0.033959925174713135,-0.11379152536392212,-0.04764546453952789,0.4445442143619624,-0.13571090058917978,-0.7603828447820583,-0.4536307582065355,0.6055411639598269,-1.8079941543998488,-0.8353854889141908
1781518982115383808,0.42203497886657715,-0.04973107948899269,-0.7876609563827515,0.808394730091095,-0.8020969033241272,-0.562930703163147,0.1993730068206787,0.0366244912147522,-0.09191548824310303,0.011717081069946289,0.4433217026232543,-0.14054312714039652,-0.7615340646984423,-0.45141929487342364,0.5979274398293929,-1.8144236937388936,-0.837925223661262
1781518982125419008,0.4320700168609619,-0.07504122704267502,-0.7729563117027283,0.8740658760070801,-0.8052433729171753,-0.5562579035758972,0.20532944798469543,0.05234426259994507,-0.04516720771789551,0.06447635591030121,0.4421953357552105,-0.14566630920312756,-0.7625260985055355,-0.4492199352810582,0.5898759304910799,-1.8204664285024112,-0.8411347180308938
1781518982135453952,0.4421050548553467,-0.2039099931716919,-0.7727177143096924,0.9232147932052612,-0.8086202144622803,-0.5492496490478516,0.21085189282894135,0.06043589115142822,-0.04013639688491821,0.10099199414253235,0.4411696754235399,-0.15112820884439937,-0.7632733524474616,-0.4471504137901182,0.581466027971005,-1.8258716026752175,-0.8453504400248737
1781518982145487872,0.45213890075683594,-0.3854004144668579,-0.7990736961364746,0.9723735451698303,-0.8121230006217957,-0.5421923995018005,0.21560078859329224,0.053639113903045654,-0.06883049011230469,0.11395847797393799,0.44004533523829764,-0.15718158281645497,-0.7636061449357887,-0.4456004412299161,0.5730441599068636,-1.83028863580947,-0.8517179965101205
1781518982155522816,0.4621739387512207,-0.49696555733680725,-0.8203715085983276,1.0036728382110596,-0.8156914710998535,-0.5350803136825562,0.21985551714897156,0.03921753168106079,-0.09822040796279907,0.14093850553035736,0.4387961180045434,-0.16373604899482458,-0.7636218065289159,-0.4444436906062083,0.56460279916821,-1.8340725481472757,-0.8597802557698623
1781518982165557760,0.47220897674560547,-0.6496760249137878,-0.8583070635795593,1.056005597114563,-0.8192946910858154,-0.5279592871665955,0.22364048659801483,0.01802527904510498,-0.10906457901000977,0.08945462107658386,0.4373782935348157,-0.1708133978834217,-0.7633105711730017,-0.443711566863427,0.5561958941506931,-1.8372715732835914,-0.8696085729848211
1781518982175591936,0.48224306106567383,-0.6836295127868652,-0.8941324353218079,1.1078245639801025,-0.8230193853378296,-0.5205286145210266,0.22735288739204407,0.014120340347290039,-0.06984925270080566,0.04739692807197571,0.43585142461538,-0.17838016728552786,-0.7627954917499803,-0.44312211688469855,0.5474699235015672,-1.8403172636299372,-0.8805792020871401
1781518982185626624,0.4922778606414795,-0.7547582387924194,-0.9549179077148438,1.1202095746994019,-0.8266773819923401,-0.5129562616348267,0.23125867545604706,0.02372920513153076,-0.04368436336517334,-0.01211199164390564,0.4341482972508214,-0.18625261450978667,-0.7621937430572773,-0.4425900907731974,0.5386251495644575,-1.843568351070437,-0.8921697900900786
1781518982195661824,0.5023128986358643,-0.8712127208709717,-1.0097854137420654,1.1420005559921265,-0.8301458954811096,-0.5054652690887451,0.23529227077960968,0.02329176664352417,-0.03507727384567261,-0.04188708961009979,0.43211249937602747,-0.19453027766094877,-0.7614486880832142,-0.44230371736147567,0.5299210739422506,-1.8469872967058265,-0.9048781469547748
1781518982205696768,0.512347936630249,-0.8942607641220093,-1.0196865797042847,1.1664530038833618,-0.8335356116294861,-0.49797844886779785,0.239240825176239,-0.003683805465698242,-0.022208988666534424,-0.03968629240989685,0.4298951427081792,-0.20313686526570693,-0.7604970929712948,-0.44223281366863115,0.5212660422222213,-1.8503021231422305,-0.9185929694206794
1781518982215730944,0.5223820209503174,-0.823374330997467,-1.0728487968444824,1.1727702617645264,-0.8368119597434998,-0.4901927411556244,0.24383775889873505,-0.02631664276123047,-0.02082410454750061,-0.08067548274993896,0.4276282829547519,-0.21173989696869275,-0.7596611699173598,-0.4418316382311876,0.5123108706156821,-1.8543344638420423,-0.9316856017839245
1781518982225765888,0.5324170589447021,-0.8370558023452759,-1.1139243841171265,1.1778699159622192,-0.8398364782333374,-0.48239395022392273,0.2489389330148697,-0.03714704513549805,-0.029065340757369995,-0.13301792740821838,0.4251574629533959,-0.2204229993056425,-0.7588696646098082,-0.44132935421669245,0.50338562616042,-1.858959582652418,-0.9447180021914142
1781518982235800832,0.5424518585205078,-0.8498413562774658,-1.1435493230819702,1.1690559387207031,-0.8426374793052673,-0.4745938777923584,0.2544073462486267,-0.03748965263366699,-0.012924522161483765,-0.10065978765487671,0.422523970393721,-0.22917888878825157,-0.7580769782227439,-0.4407606709768519,0.49450258979209133,-1.8640117327106724,-0.9577807008420143
1781518982245834752,0.5524859428405762,-0.897789478302002,-1.1961076259613037,1.1429522037506104,-0.8450791835784912,-0.46705925464630127,0.2601870000362396,-0.028623998165130615,0.008837729692459106,-0.08909004926681519,0.4196150321165541,-0.23799308161647875,-0.7572666605787289,-0.4402611732153457,0.4859620755246754,-1.8694710623932074,-0.9710879384079849
1781518982255869952,0.5625209808349609,-0.9561414122581482,-1.2406247854232788,1.1219619512557983,-0.8471251726150513,-0.4598901569843292,0.26623281836509705,-0.016491711139678955,0.012746632099151611,-0.08700314164161682,0.4163617405787317,-0.24692251633637027,-0.7564031174700947,-0.4399164346212793,0.4778714837177244,-1.8753001914024046,-0.9848965597721959
1781518982265904896,0.5725560188293457,-1.0181549787521362,-1.2823847532272339,1.084926724433899,-0.8487818837165833,-0.45316386222839355,0.27241820096969604,-0.009753823280334473,0.018776684999465942,-0.07434394955635071,0.4127704059150875,-0.2559567758051838,-0.7554437274430793,-0.4397856554559315,0.47031136342299834,-1.881362555654701,-0.999320957135358
1781518982275939840,0.5825910568237305,-1.0036994218826294,-1.3370429277420044,1.0444293022155762,-0.8499653339385986,-0.4468887448310852,0.2790149450302124,-0.006434142589569092,0.052998363971710205,-0.06720772385597229,0.4088321726455371,-0.26497015011031827,-0.7545185813915872,-0.43971440400727135,0.46328443391948265,-1.8879796060135197,-1.0138404629535895
1781518982285973760,0.5926249027252197,-1.0383031368255615,-1.369681477546692,0.9808655977249146,-0.8506288528442383,-0.44116365909576416,0.2860163748264313,-0.008624136447906494,0.08368074893951416,-0.07437694072723389,0.4045602928442567,-0.27385971014014104,-0.7536637460110803,-0.43968492554043426,0.45689490935649457,-1.8951615782910167,-1.0282523485001203
1781518982296008704,0.6026599407196045,-1.1097294092178345,-1.4042599201202393,0.9465427398681641,-0.8508448600769043,-0.4360390603542328,0.2931431531906128,-0.03469890356063843,0.08777248859405518,-0.05831041932106018,0.3999585903396482,-0.2827167710686031,-0.7527568059802668,-0.43984263502407045,0.4511925710632363,-1.9025914642679145,-1.043015345508902
1781518982306043904,0.6126949787139893,-1.2259782552719116,-1.4498646259307861,0.885360598564148,-0.8506051301956177,-0.4316921830177307,0.3001876771450043,-0.04800015687942505,0.0787716805934906,-0.03181615471839905,0.3949237394421658,-0.2916647876515609,-0.7516817735202828,-0.4403877375784309,0.44636791742061294,-1.9100618577445116,-1.0587188940419197
1781518982316077824,0.6227290630340576,-1.3534221649169922,-1.4965591430664062,0.794648289680481,-0.8497458696365356,-0.4284042418003082,0.3072487413883209,-0.050888895988464355,0.07475128769874573,0.003145575523376465,0.3893249256584033,-0.3006250003925313,-0.7504991563507659,-0.4413634975581948,0.4427260230338557,-1.9177474726973807,-1.0752765512373805
1781518982326112768,0.6327638626098633,-1.5229151248931885,-1.519881248474121,0.7269813418388367,-0.8482841849327087,-0.4264861047267914,0.3138851821422577,-0.06483238935470581,0.0836363434791565,0.01706281304359436,0.3831096121100422,-0.3096171677250288,-0.7490525977618157,-0.4430401400981852,0.44060427894543874,-1.92519701246191,-1.0932518705525938
1781518982336147712,0.642798900604248,-1.506880760192871,-1.5442206859588623,0.6743083000183105,-0.8464235067367554,-0.4253522455692291,0.3203798532485962,-0.07087403535842896,0.12135130167007446,0.02672716975212097,0.3765312813983349,-0.3185734008048782,-0.7474629832535961,-0.44501062522033236,0.4393510505948756,-1.9326407960271619,-1.1118225227475254
1781518982346181888,0.6528329849243164,-1.4770472049713135,-1.592878818511963,0.5964521169662476,-0.844049334526062,-0.42479488253593445,0.32730793952941895,-0.06799918413162231,0.15598073601722717,-0.030799120664596558,0.36967060857507816,-0.32725705822877016,-0.7460273351781381,-0.44686668216595743,0.4387353034196326,-1.9407266050081973,-1.1297859692513383
1781518982356216832,0.6628680229187012,-1.4250620603561401,-1.6135313510894775,0.5651333332061768,-0.841182291507721,-0.42473524808883667,0.3346818685531616,-0.07956337928771973,0.18390586972236633,-0.061229169368743896,0.3625451982637693,-0.33570116464142485,-0.7447453716264776,-0.4485754241070562,0.4386694281421057,-1.9494658460304057,-1.1471436615637194
1781518982366252032,0.6729030609130859,-1.4631012678146362,-1.608206033706665,0.5092535614967346,-0.8380119204521179,-0.42506664991378784,0.34213271737098694,-0.08963102102279663,0.19531500339508057,-0.07414254546165466,0.35530247390835956,-0.3439274132650378,-0.7434919598503521,-0.45021546926574635,0.4390355083276485,-1.9584091478670815,-1.1641260696863176
1781518982376286720,0.6829378604888916,-1.5507140159606934,-1.6273301839828491,0.42320817708969116,-0.8344157934188843,-0.426380455493927,0.34921401739120483,-0.08742886781692505,0.19295144081115723,-0.04660162329673767,0.3477122442061861,-0.3519884459909839,-0.7420991502789849,-0.45220496254746917,0.4404874680123063,-1.9671598098217682,-1.181594108384398
1781518982386320896,0.69297194480896,-1.6614125967025757,-1.7042372226715088,0.3146292269229889,-0.8301089406013489,-0.4289570748806,0.35625195503234863,-0.07073962688446045,0.1485462486743927,-0.03978458046913147,0.33950961269078606,-0.3598974421181953,-0.7406752348225202,-0.45454089533821274,0.4433379323247878,-1.9761876838337231,-1.1995177399466856
1781518982396355840,0.7030069828033447,-1.7256416082382202,-1.7627474069595337,0.23743456602096558,-0.8250009417533875,-0.43286052346229553,0.3633250594139099,-0.07070517539978027,0.09637373685836792,-0.06489375233650208,0.3305585228987538,-0.3677509179735795,-0.7392034825225129,-0.45724008698993096,0.44766358291122677,-1.9856328268106302,-1.218111313605289
1781518982406390784,0.7130420207977295,-1.7359224557876587,-1.7574083805084229,0.16311877965927124,-0.8194036483764648,-0.43758293986320496,0.3702683448791504,-0.0828789472579956,0.09754085540771484,-0.07725384831428528,0.3212724489065602,-0.375376897702216,-0.7377169900247736,-0.4600540994194425,0.4529088331036001,-1.9952087356668986,-1.2366642955081162
1781518982416424704,0.7230758666992188,-1.6746470928192139,-1.7979280948638916,0.0683283656835556,-0.8132655620574951,-0.44300010800361633,0.37729334831237793,-0.06837218999862671,0.15395280718803406,-0.10429829359054565,0.3117409318223768,-0.38263069267334476,-0.7363697599476962,-0.4627861136101923,0.45894229702195755,-2.005168872063133,-1.254519245793963
1781518982426459904,0.7331109046936035,-1.7033003568649292,-1.8274908065795898,-0.052497923374176025,-0.8063656687736511,-0.44940274953842163,0.3844631612300873,-0.027832448482513428,0.20114219188690186,-0.10357934236526489,0.3017964988732155,-0.3894689754812159,-0.7352179976893403,-0.46549695768166566,0.4660966442364046,-2.0157001687976632,-1.2716678482346173
1781518982436494848,0.7431459426879883,-1.6654411554336548,-1.8388097286224365,-0.11657756567001343,-0.7988381385803223,-0.4566846191883087,0.39153146743774414,-0.027440547943115234,0.19966557621955872,-0.05631113052368164,0.2915071674889483,-0.39595957069725557,-0.7341537683290095,-0.4682498089799302,0.47426491481965755,-2.026513704287449,-1.2883833308929389
1781518982446529792,0.753180980682373,-1.6164379119873047,-1.8099099397659302,-0.2138010710477829,-0.7908494472503662,-0.4644401967525482,0.3985625207424164,-0.04084599018096924,0.15793699026107788,-0.016787707805633545,0.28113299945465053,-0.40201673110410985,-0.7332556177461228,-0.47083208301230295,0.4830023967361833,-2.0376129815303696,-1.304097771343452
1781518982456563968,0.7632150650024414,-1.738660454750061,-1.8049333095550537,-0.34403494000434875,-0.7822628021240234,-0.473385751247406,0.4049334228038788,-0.07077991962432861,0.10854804515838623,0.009205400943756104,0.27044410110986533,-0.4075759229261455,-0.732358226317411,-0.4737017492150458,0.49313051918154405,-2.048459069798421,-1.3195659186024935
1781518982466598656,0.7732498645782471,-1.7727313041687012,-1.7976726293563843,-0.42340540885925293,-0.773024320602417,-0.48365628719329834,0.4104999601840973,-0.08215463161468506,0.07798606157302856,0.020896613597869873,0.2592439556555376,-0.41282211152194653,-0.7313192799534357,-0.4770143345485064,0.5048272937330374,-2.0589595504988365,-1.3354758861691787
1781518982476633856,0.7832849025726318,-1.6501028537750244,-1.7434359788894653,-0.4990184009075165,-0.7633988857269287,-0.494343638420105,0.4157481789588928,-0.07372879981994629,0.08098304271697998,0.004799246788024902,0.24805679026879138,-0.4175600262830301,-0.7304229720470741,-0.48020179137244706,0.5170795955237238,-2.0694853706368534,-1.3503247702349954
1781518982486667776,0.7933189868927002,-1.4770262241363525,-1.7186305522918701,-0.5540608763694763,-0.7535274028778076,-0.5048931241035461,0.42104601860046387,-0.061932921409606934,0.14261889457702637,-0.06978863477706909,0.23849151913716177,-0.4197262777666864,-0.7309944334933499,-0.48228507926105996,0.5292581183153776,-2.080345292979169,-1.3578067153374311
1781518982496702976,0.803354024887085,-1.4928113222122192,-1.7675347328186035,-0.6569523811340332,-0.7430467009544373,-0.515685498714447,0.42655590176582336,-0.02270030975341797,0.1779170036315918,-0.15383556485176086,0.2275416538803868,-0.4234494493274375,-0.7307314906950999,-0.4847131227335529,0.5418075583635185,-2.0919264140818075,-1.3692812536630699
1781518982506737920,0.8133890628814697,-1.524285078048706,-1.8640856742858887,-0.7133064866065979,-0.7315922379493713,-0.5274055600166321,0.43199071288108826,-0.005819201469421387,0.13462913036346436,-0.14492720365524292,0.21590737772197213,-0.4270698066351606,-0.7304839096052291,-0.48722538553297134,0.5555439962420164,-2.104186562794384,-1.3808100823876086
1781518982516772864,0.8234238624572754,-1.3502248525619507,-1.8999462127685547,-0.7329797744750977,-0.7194987535476685,-0.5389103889465332,0.4380608797073364,-0.012984156608581543,0.04275554418563843,-0.12650686502456665,0.20414336554840085,-0.4305589766942627,-0.7305131091269624,-0.4891780126784945,0.5691430513522842,-2.1176917360774805,-1.390989676198267
1781518982526806784,0.8334579467773438,-1.207582712173462,-1.877008318901062,-0.7625494003295898,-0.7070444226264954,-0.5499130487442017,0.4446165859699249,-0.058489084243774414,-0.012281835079193115,-0.13480216264724731,0.1926060804116844,-0.4337396741898284,-0.7308749514742646,-0.49050447079345866,0.582260148727129,-2.1321509970771553,-1.3992828447110033
1781518982536841984,0.8434929847717285,-1.1095988750457764,-1.810072660446167,-0.7818860411643982,-0.6944528222084045,-0.560558557510376,0.45112040638923645,-0.08922338485717773,-0.0041539669036865234,-0.12101173400878906,0.18140097657126414,-0.43654434430527034,-0.7314295856781805,-0.49146062586104705,0.5950601216671414,-2.1468942205767565,-1.4060764386700129
1781518982546876928,0.8535280227661133,-0.9677576422691345,-1.7424886226654053,-0.815364420413971,-0.6818434596061707,-0.5707705616950989,0.457504540681839,-0.08384257555007935,-0.022903084754943848,-0.0764162540435791,0.17065348992868523,-0.4389075154126727,-0.732197006854657,-0.4920620952013142,0.6074440210998844,-2.161780364310197,-1.4112250291517314
1781518982556910848,0.8635618686676025,-0.9650896787643433,-1.7329866886138916,-0.8678390383720398,-0.6689713597297668,-0.5809324383735657,0.46367523074150085,-0.05348646640777588,-0.03587353229522705,-0.07326391339302063,0.16007337597951726,-0.44089853766440573,-0.733107150928405,-0.49248236765063413,0.619873814295048,-2.176887664473774,-1.4151978832758403
1781518982566945792,0.8735969066619873,-0.9802765846252441,-1.7562329769134521,-0.9130702018737793,-0.6555835008621216,-0.5913649201393127,0.4695720970630646,-0.012446403503417969,-0.01950550079345703,-0.08129698038101196,0.14931608884634653,-0.44269103291872813,-0.7340372594688205,-0.4928678172341701,0.632750363828929,-2.19235580187777,-1.418658393940937
1781518982576980736,0.8836319446563721,-1.0802748203277588,-1.75264573097229,-0.9704208374023438,-0.6416164040565491,-0.6023936867713928,0.4748159945011139,0.005859017372131348,-0.029945731163024902,-0.08321443200111389,0.13821970910447076,-0.4443001179880381,-0.7348505963175762,-0.4934443412837702,0.6464965665042525,-2.207886625986623,-1.4221407996864075
1781518982587015936,0.8936669826507568,-1.0296138525009155,-1.7542366981506348,-0.984081506729126,-0.6272843480110168,-0.6137476563453674,0.47940418124198914,-0.0037429332733154297,-0.030432701110839844,-0.08233994245529175,0.12695401511210033,-0.4457440820467905,-0.7355367487346549,-0.49414639921219633,0.6607987592182836,-2.2233573682482826,-1.425558248202452
1781518982597049856,0.9037010669708252,-0.873288631439209,-1.7820022106170654,-0.9843481183052063,-0.6126156449317932,-0.6244871020317078,0.4844769835472107,-0.005701005458831787,-0.004602253437042236,-0.11689281463623047,0.1158469478313225,-0.4470726950869411,-0.7364540055007042,-0.49430860493975043,0.6744746546570652,-2.2399229029395933,-1.4274570783074598
1781518982607084800,0.9137358665466309,-0.5975199341773987,-1.72806715965271,-1.0265305042266846,-0.5976797342300415,-0.634190559387207,0.4904903769493103,-0.016410112380981445,0.013890445232391357,-0.05346357822418213,0.10518515655240161,-0.4481515894630769,-0.7378382904929233,-0.49365042185121405,0.6869611897492645,-2.2580070371426877,-1.4268149079026557
1781518982617119744,0.9237709045410156,-0.43660369515419006,-1.6348533630371094,-1.0544848442077637,-0.582675576210022,-0.6428629755973816,0.49720874428749084,-0.0708431601524353,-0.031026244163513184,-0.05351370573043823,0.09524834386796016,-0.4486917578948762,-0.7397838093027368,-0.4922635972821943,0.6982300999046197,-2.277214677790614,-1.4231227527739008
1781518982627153920,0.933804988861084,-0.3762921392917633,-1.5846425294876099,-1.0509194135665894,-0.5677804946899414,-0.650980532169342,0.5038352608680725,-0.09547340869903564,-0.07042467594146729,-0.09428930282592773,0.08576924886574505,-0.4489249955226168,-0.7418786792178278,-0.49063846255117766,0.7088754060275427,-2.2965933639084484,-1.41807407078218
1781518982637188864,0.9438400268554688,-0.3035401701927185,-1.5855555534362793,-1.0587158203125,-0.5528256893157959,-0.6586216688156128,0.510490894317627,-0.05513012409210205,-0.07611942291259766,-0.1091543436050415,0.07652494186074683,-0.44903149869143244,-0.744053878224046,-0.48877232727717207,0.7189855622332844,-2.3164016089177784,-1.4120591246779681
1781518982647224064,0.9538750648498535,-0.31172701716423035,-1.6094120740890503,-1.0940676927566528,-0.5374394655227661,-0.6660782098770142,0.5172029137611389,-0.003484666347503662,-0.050154149532318115,-0.13312393426895142,0.06723945243957132,-0.4490195158038505,-0.746312896104442,-0.4867005985023038,0.7289384421324145,-2.3370087803320447,-1.4051233081493912
1781518982657258752,0.9639098644256592,-0.2627922296524048,-1.5899707078933716,-1.095841884613037,-0.5217043161392212,-0.6734492182731628,0.5237278938293457,0.032507479190826416,-0.005216002464294434,-0.11276286840438843,0.05789380688058544,-0.44890499542586565,-0.7485641318106782,-0.4845455557920284,0.7388648548304545,-2.35813015908166,-1.3975911802232204
1781518982667292928,0.9739439487457275,-0.15749137103557587,-1.5547480583190918,-1.1018867492675781,-0.5059351921081543,-0.6801950931549072,0.5304376482963562,0.0452876091003418,0.0005686283111572266,-0.07728219032287598,0.04885195536138178,-0.44864969249611514,-0.7509542542144219,-0.4820732452062033,0.7480287285132659,-2.37983262274375,-1.3888499779042356
1781518982677327872,0.9839789867401123,-0.08770615607500076,-1.5056724548339844,-1.1277716159820557,-0.4900864362716675,-0.6864375472068787,0.5372324585914612,0.029240548610687256,-0.0064029693603515625,-0.07310587167739868,0.04010405482245337,-0.4481591705429974,-0.7535048699148414,-0.47934894059356836,0.7565786805652889,-2.4020545994171667,-1.3788076621092673
1781518982687362816,0.9940140247344971,-0.010562371462583542,-1.4373384714126587,-1.1197872161865234,-0.4743126630783081,-0.6921473741531372,0.5440216064453125,0.011574625968933105,0.011284947395324707,-0.044403076171875,0.03172228227493993,-0.44743122685673486,-0.7561852271381029,-0.4764272102312015,0.7644600081406129,-2.4245417508262705,-1.367608838066395
1781518982697396736,1.0040478706359863,0.028943758457899094,-1.3732950687408447,-1.0897512435913086,-0.45890793204307556,-0.6972734928131104,0.5506476759910583,0.007965058088302612,0.031212151050567627,-0.041019558906555176,0.023776596375838524,-0.446575781250174,-0.7588767487892508,-0.4734033367014983,0.7715866932086013,-2.4468170150078192,-1.3558103454807091
1781518982707431680,1.014082908630371,0.003691132878884673,-1.3409589529037476,-1.0854371786117554,-0.4437735080718994,-0.7020182013511658,0.5569882988929749,0.03340351581573486,0.028723955154418945,-0.05369234085083008,0.01610967769199624,-0.44564883219330853,-0.7615059257932827,-0.4703684358169793,0.7782274486244806,-2.4688441628399147,-1.343758912123337
1781518982717466880,1.0241179466247559,-0.13579699397087097,-1.3492892980575562,-1.1062545776367188,-0.42846882343292236,-0.7072149515151978,0.5623717308044434,0.06393623352050781,0.020782887935638428,-0.04601418972015381,0.008227107841279186,-0.44461914930438284,-0.7638715045497959,-0.4677035531747433,0.7855511832945007,-2.4905214205518114,-1.332137332360253
1781518982727501824,1.0341529846191406,-0.14976367354393005,-1.3137470483779907,-1.1090378761291504,-0.41301751136779785,-0.7127436995506287,0.5669328570365906,0.07154107093811035,0.017873704433441162,-0.0060961246490478516,0.00017767166195250874,-0.44349589748242757,-0.7660142381150232,-0.46533160272824786,0.7934020485728669,-2.511986145429603,-1.3207660615914343
1781518982737536000,1.044187068939209,-0.16847823560237885,-1.2545932531356812,-1.1217387914657593,-0.3977108895778656,-0.7181577682495117,0.5710302591323853,0.0648098886013031,0.02716350555419922,-0.035355210304260254,-0.007689630880269925,-0.4421917136327417,-0.7681026069926347,-0.4630613173104343,0.8011513839618482,-2.533233305083921,-1.309035137990258
1781518982747570688,1.0542218685150146,-0.18175914883613586,-1.220751404762268,-1.140291452407837,-0.3824259340763092,-0.7236462235450745,0.5745314955711365,0.0698648989200592,0.08280760049819946,-0.03697967529296875,-0.01548551273121744,-0.44067514020078585,-0.770111140850457,-0.4609711562240557,0.8090708393908582,-2.5543074516378144,-1.2969881846830422
1781518982757605888,1.0642569065093994,-0.11167220771312714,-1.2061116695404053,-1.1617112159729004,-0.367048442363739,-0.7287944555282593,0.5780431032180786,0.0846540629863739,0.09126704931259155,0.01903325319290161,-0.02314845359263378,-0.43902681151765305,-0.7721897455850545,-0.45874014179341815,0.8165596830058955,-2.575845614663963,-1.2841093525776734
1781518982767639808,1.0742909908294678,-0.10782607644796371,-1.174165964126587,-1.212339997291565,-0.3514133095741272,-0.7336923480033875,0.5815534591674805,0.05908539891242981,0.03436678647994995,0.012059211730957031,-0.03072280968868596,-0.43713536271804565,-0.7743961534356232,-0.45637642380092086,0.8237401909132156,-2.59804189402215,-1.2700786115912595
1781518982777675008,1.0843260288238525,-0.1800033301115036,-1.1464922428131104,-1.2177356481552124,-0.33561936020851135,-0.738723874092102,0.5845053195953369,0.02188342809677124,0.011840999126434326,-0.03520423173904419,-0.038334830111733685,-0.43502328738847545,-0.7765355037899695,-0.4541780661313061,0.8311750502638364,-2.6203644152116152,-1.255585290846096
1781518982787709952,1.0943610668182373,-0.19200220704078674,-1.1300073862075806,-1.2039116621017456,-0.3199450969696045,-0.7438406348228455,0.5868016481399536,0.02085760235786438,0.043401241302490234,-0.02904719114303589,-0.04593716368215168,-0.4328443474486132,-0.778489946412871,-0.45220452068660666,0.8387985049896176,-2.6424147537623646,-1.2412118354925772
1781518982797744640,1.104395866394043,-0.20999425649642944,-1.145045518875122,-1.2419394254684448,-0.30412352085113525,-0.7488023638725281,0.5889008045196533,0.034454911947250366,0.07048815488815308,-0.047335803508758545,-0.053549212159927764,-0.43058908707856064,-0.7804123538093455,-0.4502023687607639,0.8462533217472646,-2.664890988177225,-1.2263298376532497
1781518982807778816,1.1144299507141113,-0.3044786751270294,-1.2050983905792236,-1.2722036838531494,-0.28765857219696045,-0.7541301250457764,0.5903729796409607,0.03938284516334534,0.07984429597854614,-0.05973333120346069,-0.061575558318384266,-0.42821654028858147,-0.7821873629049603,-0.44835471260621035,0.8543285462629148,-2.688197876034607,-1.2110078286587145
1781518982817813760,1.124464988708496,-0.2271050661802292,-1.180483341217041,-1.2901467084884644,-0.270852267742157,-0.7592913508415222,0.5917059183120728,0.027276188135147095,0.034712374210357666,0.06147712469100952,-0.06972794146545334,-0.4258105133348368,-0.7839249712685531,-0.44641360747340786,0.8622234183726091,-2.7123141029002915,-1.1950556873466545
1781518982827848960,1.1345000267028809,-0.2825126647949219,-1.0737781524658203,-1.3517141342163086,-0.2540285587310791,-0.7642591595649719,0.592771053314209,-0.0534055233001709,-0.057640254497528076,0.046312808990478516,-0.07765986828354653,-0.4230270176923835,-0.7857694791406026,-0.4445036101850937,0.8698918358688034,-2.7367239234392864,-1.1778735553498592
1781518982837882880,1.1445338726043701,-0.24831421673297882,-1.030834436416626,-1.3184771537780762,-0.2375096082687378,-0.7691720724105835,0.5932652354240417,-0.1098872572183609,-0.069954514503479,-0.04252970218658447,-0.08533952774786478,-0.4199626694498842,-0.7875683850335756,-0.4428143941517116,0.8775445532800816,-2.760790580910438,-1.1601725544938004
1781518982847917824,1.1545689105987549,-0.23655661940574646,-1.0375261306762695,-1.3112157583236694,-0.2212294340133667,-0.7736178040504456,0.5937787890434265,-0.05989854037761688,-0.032900869846343994,-0.046781718730926514,-0.09283395507684468,-0.4169723581434696,-0.7893183491601985,-0.4410130662640114,0.8845308546873941,-2.7849463189776027,-1.1423031969299815
1781518982857952768,1.1646039485931396,-0.25446903705596924,-1.039857029914856,-1.3639417886734009,-0.20464089512825012,-0.7779096364974976,0.5941205024719238,-0.024530917406082153,0.010972261428833008,-0.008701682090759277,-0.10040519107403394,-0.4138555370098462,-0.7910649999928597,-0.4391568184782011,0.8913323676220124,-2.8098765569006936,-1.1236085093177854
1781518982867987968,1.1746389865875244,-0.3394092321395874,-1.0592120885849,-1.391503930091858,-0.1876046061515808,-0.7824186086654663,0.5938228368759155,-0.022585198283195496,0.033181607723236084,-0.011669576168060303,-0.10821936057233335,-0.41051946985936466,-0.7927075021399053,-0.43746670695136003,0.8985401053521415,-2.8355888305616546,-1.1041127816975183
1781518982878021888,1.1846730709075928,-0.3407738506793976,-1.0455175638198853,-1.3875364065170288,-0.17036588490009308,-0.7869659066200256,0.593009352684021,-0.02467195689678192,0.031137049198150635,0.045006394386291504,-0.11617615442688875,-0.4071030668815987,-0.794211408653332,-0.43588806797779434,0.9058759105171922,-2.861836448612616,-1.0841679471950803
1781518982888057088,1.1947081089019775,-0.35304221510887146,-0.9884061217308044,-1.4107180833816528,-0.15327206254005432,-0.791255533695221,0.591964840888977,-0.040438294410705566,-0.0058789849281311035,0.06759625673294067,-0.12397422016855185,-0.40356054729340407,-0.7956892044799373,-0.43433625415429156,0.912859548872823,-2.8882356580859723,-1.0636639052943624
1781518982898091776,1.2047429084777832,-0.3596247434616089,-0.9448298811912537,-1.432153582572937,-0.1361984759569168,-0.7954657673835754,0.5904950499534607,-0.055116236209869385,-0.00862663984298706,0.001408696174621582,-0.1316540199028361,-0.3997247490923248,-0.7971622441200624,-0.43292003537012436,0.9197757650543907,-2.9149057294498455,-1.0422335167316361
1781518982908125952,1.2147769927978516,-0.23278053104877472,-0.9134402275085449,-1.3987884521484375,-0.11938469111919403,-0.7991036176681519,0.5892201662063599,-0.03002934902906418,0.009583473205566406,-0.005312144756317139,-0.1390551318385863,-0.39586859157515936,-0.7986852610503266,-0.43133916869692385,0.9258026883576002,-2.941684194271391,-1.0203413987786059
1781518982918160896,1.2248120307922363,-0.13115297257900238,-0.8666825890541077,-1.4469422101974487,-0.102747842669487,-0.8016872406005859,0.5888465046882629,-0.0009966567158699036,-0.0035341978073120117,-0.016077399253845215,-0.1460150298982203,-0.39197779389748055,-0.8004852572121218,-0.42925084438756367,0.9301125863464728,-2.9688418441275473,-0.9975487223860272
1781518982928195840,1.234847068786621,-0.15395282208919525,-0.870100200176239,-1.4536141157150269,-0.08591601252555847,-0.803878128528595,0.5885559320449829,0.0051054805517196655,-0.0051427483558654785,-0.08443617820739746,-0.15288206663699536,-0.38786990091820905,-0.802393239213222,-0.42702344489288335,0.9337869492363501,-2.9966388534646433,-0.9737065745646875
1781518982938231040,1.2448821067810059,-0.22862359881401062,-0.8757187128067017,-1.4142720699310303,-0.06914486736059189,-0.8061441779136658,0.5876654386520386,0.02742733806371689,0.01933997869491577,-0.048725008964538574,-0.1598598615693139,-0.38380384342553825,-0.8040692352454998,-0.42498488044474747,0.937606606892067,-3.0244708913801133,-0.9500584339964484
1781518982948264960,1.2549159526824951,-0.2614385485649109,-0.8320074081420898,-1.391403317451477,-0.05275832861661911,-0.8084196448326111,0.5862376689910889,0.040795426815748215,0.04094821214675903,0.005467712879180908,-0.16675806863330253,-0.379773954972147,-0.8055374404578194,-0.4231702296045012,0.9414622762937053,-3.0518396581903886,-0.9267994497109374
1781518982958299904,1.2649509906768799,-0.39466583728790283,-0.801587700843811,-1.4277926683425903,-0.036541055887937546,-0.8109492063522339,0.5839745402336121,0.039074014872312546,0.06403148174285889,-0.002431511878967285,-0.17364604627423566,-0.375526800252309,-0.8068251902987739,-0.4217342992656013,0.9457725384646937,-3.0791010990706185,-0.9032134183426792
1781518982968334848,1.2749860286712646,-0.3549021780490875,-0.779483437538147,-1.4139152765274048,-0.020279625430703163,-0.8136734962463379,0.5809682607650757,0.04757760465145111,0.09591537714004517,0.014460146427154541,-0.1806160406140385,-0.37107416633614165,-0.8079530338489006,-0.4205873246977444,0.9504436756970819,-3.1067002236693053,-0.8790388521884949
1781518982978369024,1.285020112991333,-0.19729496538639069,-0.7079898715019226,-1.4255388975143433,-0.004387872759252787,-0.8154034614562988,0.5788766741752625,0.05690861865878105,0.06425893306732178,0.03091031312942505,-0.18710882336743326,-0.3666564787683416,-0.8093215498273316,-0.41898929444252153,0.9534257952743894,-3.1340128202570217,-0.8546758428152483
1781518982988403712,1.2950549125671387,-0.19281020760536194,-0.658113420009613,-1.4759693145751953,0.011437803506851196,-0.8164626359939575,0.57728511095047,0.0410982146859169,0.014857351779937744,-0.04782027006149292,-0.19326155389324887,-0.36199246877431285,-0.8109278656885426,-0.41714204206309874,0.9552578777435131,3.1217821523041063,-0.8294463839409605
1781518982998438912,1.3050899505615234,-0.1434895247220993,-0.6539838910102844,-1.4476324319839478,0.027260538190603256,-0.8172116279602051,0.5756929516792297,0.04239584133028984,-0.007861793041229248,-0.06928420066833496,-0.1993214958277339,-0.3572132207634006,-0.812554722683665,-0.415240379344393,0.9565561708153401,3.0942754294118426,-0.8038390035507755
1781518983008473856,1.3151249885559082,-0.07780106365680695,-0.6154206395149231,-1.4199438095092773,0.042649995535612106,-0.8172620534896851,0.5746859312057495,0.06083511561155319,-0.04275393486022949,-0.036599934101104736,-0.20505108302250688,-0.35259541854452137,-0.8142600500913898,-0.41305104694535966,0.9566437424086942,3.067514011847762,-0.7788763412195627
1781518983018508032,1.3251590728759766,-0.13047705590724945,-0.5876632928848267,-1.4175169467926025,0.05777624994516373,-0.8171741366386414,0.5734876990318298,0.051171500235795975,-0.03786730766296387,-0.09097439050674438,-0.21063708835468306,-0.34789970579577945,-0.815910323239985,-0.4109599642263196,0.9564911200899786,3.041186038526386,-0.7540213351423403
1781518983028542976,1.3351941108703613,-0.10590752959251404,-0.5841989517211914,-1.3570767641067505,0.07251089811325073,-0.8169258832931519,0.5721663236618042,0.05587654560804367,0.0025948286056518555,-0.0987623929977417,-0.21608621907042924,-0.34329824355139593,-0.817453035731993,-0.4089298118369814,0.9560605619325984,3.0155341843554684,-0.729813895752436
1781518983038577920,1.345228910446167,-0.1763092577457428,-0.5792611837387085,-1.351831078529358,0.08691645413637161,-0.8166634440422058,0.5705313682556152,0.0830359160900116,0.05874425172805786,-0.09021532535552979,-0.22148441890343712,-0.33879099928243067,-0.8188323089220363,-0.4070366967304369,0.9556057057245629,2.9904120627387742,-0.7062109586384391
1781518983048611840,1.3552629947662354,-0.18202947080135345,-0.5692164301872253,-1.3524247407913208,0.101291224360466,-0.8164327144622803,0.5684872269630432,0.0868038684129715,0.10612082481384277,-0.016180038452148438,-0.226915950146946,-0.334193094058517,-0.8200966964604218,-0.4052968467850846,0.955205976935814,2.965266270910487,-0.6824836531271837
1781518983058647040,1.3652980327606201,-0.2303391993045807,-0.527995765209198,-1.368031620979309,0.1155560314655304,-0.8160839676856995,0.5662626028060913,0.06738157570362091,0.08811783790588379,0.03883981704711914,-0.23227636083680442,-0.32949742732463,-0.8213176918763244,-0.40362885229989154,0.954602300773263,2.9402887112717813,-0.6586791660907775
1781518983068681984,1.3753330707550049,-0.18387317657470703,-0.4596872329711914,-1.3407009840011597,0.12949012219905853,-0.8156843185424805,0.5638187527656555,0.030681386590003967,0.04770946502685547,0.10401272773742676,-0.23743356164979093,-0.3246304852294455,-0.8225110413555458,-0.4021392719594085,0.9539111499815074,2.9158412961811138,-0.6348067727164038
1781518983078716928,1.3853681087493896,-0.0507044643163681,-0.3708284795284271,-1.328795313835144,0.1427159458398819,-0.8144718408584595,0.5623767375946045,0.008529171347618103,-0.012203454971313477,0.10467642545700073,-0.2420013162058286,-0.31984791021182607,-0.8239451896275002,-0.4003085349150747,0.951818265579009,2.893066236370221,-0.6119873686684576
1781518983088750848,1.395401954650879,-0.09897825121879578,-0.35070085525512695,-1.3320374488830566,0.15560376644134521,-0.8128964304924011,0.5612369775772095,-0.002237677574157715,-0.04217559099197388,-0.020480751991271973,-0.2462562616705547,-0.3149422126741476,-0.8254876733521297,-0.3984211075801852,0.9491081547927384,2.8711345002682256,-0.5893908758463398
1781518983098785792,1.4054369926452637,-0.07699306309223175,-0.40914419293403625,-1.2612063884735107,0.1683083325624466,-0.8113197684288025,0.5598500370979309,0.022899523377418518,-0.01714080572128296,-0.061635494232177734,-0.2505629977887432,-0.31020201515073037,-0.8268613629639455,-0.39660185433821615,0.9464061820759039,2.849556950450635,-0.5675037030516032
1781518983108820992,1.4154720306396484,-0.08505737781524658,-0.45197367668151855,-1.2171154022216797,0.18077071011066437,-0.8095558881759644,0.558517336845398,0.05859394371509552,0.00819462537765503,-0.0849606990814209,-0.25491344151873657,-0.3058391865926466,-0.8280827596938415,-0.39466515832746296,0.9433951587553715,2.8285716091315303,-0.5469448418094717
1781518983118855936,1.4255070686340332,-0.1933995634317398,-0.49831509590148926,-1.22458815574646,0.19330428540706635,-0.8080084919929504,0.5565572381019592,0.06180743873119354,0.03792780637741089,-0.08811241388320923,-0.25949079219249926,-0.30154430867031223,-0.8290655353528064,-0.3929198037282101,0.9407640258076172,2.80730604752668,-0.5265339921108481
1781518983128889856,1.4355409145355225,-0.23002734780311584,-0.5036247372627258,-1.1882400512695312,0.2059560865163803,-0.8068690896034241,0.5536647439002991,0.05507604777812958,0.03352302312850952,0.04196208715438843,-0.2643370277424957,-0.29719339296040276,-0.8297641064734973,-0.3915273211426528,0.9388326679728887,2.785466142859949,-0.5057946297364528
1781518983138924800,1.4455759525299072,-0.11085248738527298,-0.3876808285713196,-1.1603106260299683,0.21788905560970306,-0.8052884340286255,0.551393449306488,0.03012727200984955,-0.03058791160583496,0.19221311807632446,-0.2687443050213508,-0.2930087584038122,-0.83056762954345,-0.3899739910455139,0.9361617725887369,2.765264983387164,-0.48636079233032586
1781518983148960000,1.455610990524292,-0.13056866824626923,-0.3009343445301056,-1.1938248872756958,0.22927391529083252,-0.8032550811767578,0.5497408509254456,-0.017664983868598938,-0.05102360248565674,0.10740941762924194,-0.2726167490916376,-0.28859819810382237,-0.8316137873977055,-0.3883423182080859,0.9327401047598526,2.7464679817141806,-0.46720036125710984
1781518983158993920,1.4656450748443604,-0.14642353355884552,-0.2933747172355652,-1.146931767463684,0.24035081267356873,-0.8012880682945251,0.5478771924972534,-0.01478007435798645,0.02003788948059082,0.04453015327453613,-0.27633833078259856,-0.2840657069294051,-0.8326135181538096,-0.3869091669948124,0.9294451211220859,2.728179907797943,-0.44808441023554185
1781518983169029120,1.4756801128387451,-0.0910811796784401,-0.30283263325691223,-1.1179893016815186,0.2510409355163574,-0.799160897731781,0.5461872816085815,0.03611421585083008,0.056393444538116455,0.04493814706802368,-0.27993548557255826,-0.27976124410249836,-0.8335630126637631,-0.3854122043462409,0.9258980452228492,2.71076406920775,-0.43005111176287975
1781518983179063808,1.4857149124145508,-0.0942000076174736,-0.3435877859592438,-1.1302465200424194,0.26179245114326477,-0.7967334389686584,0.5446839928627014,0.06704971194267273,0.03393131494522095,0.004739165306091309,-0.2835642604318488,-0.2755608610350817,-0.8345107527981832,-0.38373082285136434,0.9218705083737709,2.6935592830932023,-0.41252800657934313
1781518983189098752,1.4957499504089355,-0.20320744812488556,-0.41884925961494446,-1.1284685134887695,0.2729000747203827,-0.7945228815078735,0.5424560308456421,0.08124110102653503,0.02108556032180786,-0.01665353775024414,-0.28754403329442574,-0.2713469924784541,-0.8352238143049054,-0.3822175820808996,0.9182214336199425,2.675482182313755,-0.39463159963369915
1781518983199132928,1.505784034729004,-0.09412490576505661,-0.4288467764854431,-1.0526275634765625,0.2839270234107971,-0.7923555970191956,0.5399615168571472,0.08397769927978516,0.0041016340255737305,0.06140267848968506,-0.29165147764226595,-0.26734891207185973,-0.8357663048533834,-0.3807345389202287,0.914660648587888,2.6574965723159543,-0.3773806438395048
1781518983209167872,1.5158190727233887,-0.03389565646648407,-0.3680116534233093,-1.0426303148269653,0.2943200170993805,-0.7896272540092468,0.5383905172348022,0.06278139352798462,-0.05921906232833862,0.11790519952774048,-0.2953703372924673,-0.26367799049377894,-0.8364622983807087,-0.3788944909540819,0.9102012295283117,2.6413124022700782,-0.3619757908438395
1781518983219203072,1.5258541107177734,-0.06754842400550842,-0.3353287875652313,-1.0160778760910034,0.30440181493759155,-0.7868092060089111,0.5369089245796204,0.020442575216293335,-0.05639159679412842,0.05188208818435669,-0.29886956603446135,-0.25989698727061444,-0.8372024943276284,-0.3771241708271699,0.9056219827331865,2.6258273627999813,-0.34675178640731064
1781518983229236736,1.5358879566192627,0.022203031927347183,-0.3135731816291809,-0.9207683205604553,0.313769668340683,-0.7839452028274536,0.5357040762901306,0.028591841459274292,-0.005605757236480713,0.02911531925201416,-0.3020947442187879,-0.25641521844376625,-0.8379160304747458,-0.3753489705972832,0.9009953140040691,2.611743374872041,-0.3329832862596201
1781518983239271936,1.5459229946136475,0.023886948823928833,-0.3228532373905182,-0.9076983332633972,0.32259461283683777,-0.7808653116226196,0.5349603295326233,0.066504567861557,-0.008914589881896973,0.014890193939208984,-0.3050844499083562,-0.2532387962280103,-0.8386598149500591,-0.3734212820038269,0.8960497414695288,2.598951634749908,-0.32067928542375645
1781518983249306880,1.5559580326080322,0.017572861164808273,-0.383014976978302,-0.8688632845878601,0.3314736485481262,-0.7778527140617371,0.5339202284812927,0.07572242617607117,-0.03847736120223999,-0.008224308490753174,-0.3082163121005453,-0.25015196469583784,-0.839275938104787,-0.37154102321689075,0.8912417389349452,2.5859976786638095,-0.3085799942929054
1781518983259342080,1.565993070602417,0.006708228029310703,-0.4007745087146759,-0.7857910394668579,0.3400462865829468,-0.775036633014679,0.5326222777366638,0.07484015822410583,-0.053042471408843994,0.004609048366546631,-0.3114170227044424,-0.24740303842179198,-0.8397040394375622,-0.36974076410403545,0.8867731094706781,2.5733883813343588,-0.2974492270049106
1781518983269375744,1.5760269165039062,0.14527569711208344,-0.3849632143974304,-0.6941788196563721,0.3478567600250244,-0.7720959782600403,0.5318493247032166,0.0646493136882782,-0.06086611747741699,0.03823435306549072,-0.31433878972547047,-0.24514081744917376,-0.8401372768244642,-0.36778597764362053,0.8821326651698239,2.5623746701249894,-0.28829381729091935
1781518983279410944,1.586061954498291,0.12623010575771332,-0.3664158880710602,-0.6695123910903931,0.35513195395469666,-0.7689074873924255,0.5316605567932129,0.053437381982803345,-0.09046763181686401,0.012147486209869385,-0.3169997455693439,-0.24319668203045355,-0.8406459761392912,-0.3656241515058584,0.8771306768660775,2.552690039117523,-0.28063203037370515
1781518983289445888,1.5960969924926758,0.09728766232728958,-0.3687039315700531,-0.5691639184951782,0.3618967533111572,-0.7661104202270508,0.5311364531517029,0.04035547375679016,-0.07615959644317627,0.00167006254196167,-0.31956265300380954,-0.24139540083644387,-0.8410092125855053,-0.36374660562597727,0.8727672463626768,2.5434845358088394,-0.27342600301616904
1781518983299480832,1.6061320304870605,0.09429293870925903,-0.34907856583595276,-0.48898735642433167,0.3678160011768341,-0.7636651396751404,0.5305913090705872,0.05790427327156067,-0.04834669828414917,0.029772460460662842,-0.32190697044409083,-0.24000678972219977,-0.841244550239221,-0.36205013786768303,0.8689711888840793,2.5354321924273795,-0.2676072879780357
1781518983309515008,1.616166114807129,0.055734094232320786,-0.35908380150794983,-0.45621103048324585,0.3733222782611847,-0.7615271806716919,0.529817521572113,0.06057664752006531,-0.060478925704956055,0.03671067953109741,-0.3241705626003285,-0.23875641594523775,-0.8413703860265619,-0.36056152209171105,0.8656661362340197,2.5277698944526326,-0.2621973758142878
1781518983319549696,1.6262009143829346,0.053435519337654114,-0.33924350142478943,-0.3553602993488312,0.37830182909965515,-0.7596883177757263,0.5289247035980225,0.04433608055114746,-0.09730631113052368,0.03316330909729004,-0.32632567787940503,-0.23776851560783652,-0.8413848638279451,-0.3592341699698627,0.8628337009837646,2.520719427967909,-0.2575800847215984
1781518983329584896,1.6362359523773193,0.06561335921287537,-0.3056311011314392,-0.28231433033943176,0.3824111521244049,-0.7581889033317566,0.5281204581260681,0.03506931662559509,-0.09344983100891113,-0.006178319454193115,-0.32818871307203434,-0.23711476041778498,-0.8413303937580289,-0.35809482468902676,0.8605309931397621,2.5148757536152253,-0.25415300114431805
1781518983339618816,1.6462700366973877,0.011960248462855816,-0.28109753131866455,-0.23419634997844696,0.38594016432762146,-0.7569813132286072,0.5272853374481201,0.03814738988876343,-0.07706421613693237,-0.03908032178878784,-0.32985195259400973,-0.2366199334916677,-0.8412215318967404,-0.35714861878706144,0.8586809566898551,2.5097517871462847,-0.2513023792285198
1781518983349654016,1.6563050746917725,0.04788709059357643,-0.2314552664756775,-0.13137783110141754,0.3887097239494324,-0.7561237812042236,0.5264803767204285,0.047493308782577515,-0.09281420707702637,0.009759187698364258,-0.3312473233531471,-0.23635802985021134,-0.8410559289116655,-0.35641972191240295,0.8573695976637926,2.5056103168763473,-0.24928446662404685
1781518983359688960,1.6663401126861572,-0.07963624596595764,-0.160827174782753,-0.08606386929750443,0.39051783084869385,-0.7557315230369568,0.5257045030593872,0.04617336392402649,-0.1588038206100464,0.05757784843444824,-0.33224996788930045,-0.23625712091653248,-0.8408536342306294,-0.3560302601410425,0.8567704239766712,2.5026854622113004,-0.24797216420610838
1781518983369723904,1.676374912261963,-0.217726469039917,-0.158097043633461,-0.029936684295535088,0.3918004631996155,-0.7563378810882568,0.5238749980926514,0.019423842430114746,-0.18575483560562134,0.05531799793243408,-0.33320803905374835,-0.23601500922688998,-0.8403775433073515,-0.3564193947148933,0.8576968722824309,2.499443827782031,-0.24576278827722692
1781518983379757824,1.6864089965820312,-0.27121418714523315,-0.13990499079227448,0.03345533460378647,0.39254605770111084,-0.7576758861541748,0.5213777422904968,0.00254976749420166,-0.14088362455368042,0.059493839740753174,-0.33412755666974836,-0.23588558847702712,-0.8396706905380252,-0.35730921444758335,0.8597445918383747,2.4962372342196533,-0.24351394947715507
1781518983389793024,1.696444034576416,-0.2762584984302521,-0.11080209165811539,0.06618798524141312,0.39284297823905945,-0.7593274712562561,0.5187448263168335,-0.025594443082809448,-0.040095746517181396,0.0691152811050415,-0.3349097796450924,-0.235850851879519,-0.8388961701498484,-0.35841738583314525,0.8622789380724152,2.493438928642627,-0.2415169333312733
1781518983399827968,1.7064790725708008,-0.13755707442760468,-0.04920664057135582,0.12266004830598831,0.39255693554878235,-0.7608208656311035,0.5167694687843323,-0.044275134801864624,0.06424194574356079,0.033721864223480225,-0.3353465886154146,-0.23603518282672803,-0.8382553984633672,-0.35938551049033374,0.8645770840184546,2.491952660783424,-0.24066342841685676
1781518983409861888,1.71651291847229,-0.02854110486805439,-0.004071652423590422,0.14369848370552063,0.3916267454624176,-0.7617585062980652,0.5160932540893555,-0.014521092176437378,0.08609944581985474,-0.015101492404937744,-0.3352847941690287,-0.23652179219652414,-0.8379165025328729,-0.3599130737008513,0.8660231614371822,2.4924646052918757,-0.24163072787377804
1781518983419896832,1.7265479564666748,-0.0824621245265007,-0.007808866444975138,0.10251882672309875,0.39067259430885315,-0.7624385952949524,0.51581209897995,0.020460158586502075,0.025683283805847168,-0.013004601001739502,-0.3351095622836807,-0.23699958711838004,-0.8376975865136979,-0.3602713762115501,0.8670734979373509,2.4933766266273345,-0.24286363742049188
1781518983429931776,1.7365829944610596,-0.27308639883995056,-0.05849108472466469,0.047459300607442856,0.3902583420276642,-0.7636539936065674,0.5143254995346069,0.03237956762313843,-0.012560486793518066,-0.008252620697021484,-0.33530460633990083,-0.23704452389067796,-0.837241098550972,-0.36112044026774986,0.868953937001399,2.4924979287164204,-0.2420562966516725
1781518983439966976,1.7466180324554443,-0.3261594772338867,-0.05654138699173927,0.0735207349061966,0.3901497721672058,-0.7654808163642883,0.5116856694221497,0.0005057454109191895,-0.01044386625289917,0.057039856910705566,-0.33584663620695915,-0.23689150338697162,-0.8364958234943435,-0.3624419631094918,0.8717882197465242,2.4901524861681246,-0.2398653658447769
1781518983450000896,1.7566521167755127,-0.44674474000930786,-0.002641268540173769,0.039861567318439484,0.389798104763031,-0.7676724791526794,0.5086617469787598,-0.06718146800994873,-0.016080141067504883,0.05048137903213501,-0.33627937848044487,-0.23653354529851764,-0.8356929753655193,-0.36412280777953643,0.8752011956332366,2.4877277413454757,-0.23697275318004993
1781518983460035840,1.7666869163513184,-0.4489128291606903,-0.04096069559454918,0.07448479533195496,0.3894939124584198,-0.770220160484314,0.5050303339958191,-0.11459150910377502,0.007509469985961914,0.019841492176055908,-0.33681633679741163,-0.23602137724138383,-0.8347509080629816,-0.36611426007569015,0.8791862366057456,2.4846430194024434,-0.23324206815029472
1781518983470070784,1.7767219543457031,-0.42364102602005005,-0.05453788861632347,0.06358075141906738,0.38912782073020935,-0.7727001309394836,0.5015116930007935,-0.09106263518333435,0.03423577547073364,0.015242457389831543,-0.3373741139094828,-0.23569383110576714,-0.8337890981697836,-0.36799840569191317,0.8830838862906841,2.4817144607664283,-0.23002920463279306
1781518983480105984,1.786756992340088,-0.4018486440181732,-0.1634497195482254,0.004786141682416201,0.3893916606903076,-0.7749582529067993,0.4978090226650238,-0.07890579104423523,0.053064942359924316,0.0010923147201538086,-0.3382500135441268,-0.23530744928606126,-0.8327874415789522,-0.36970582350282616,0.8866490012180268,2.4777932329605754,-0.22631525073522124
1781518983490139904,1.7967910766601562,-0.3179031312465668,-0.19433626532554626,-0.017877625301480293,0.39036825299263,-0.7766928672790527,0.49432894587516785,-0.08529925346374512,0.058827757835388184,-0.004796445369720459,-0.3394569226917676,-0.2350267900390418,-0.8318214262451786,-0.37095095338415407,0.8893982275241479,2.4731679616071385,-0.22276403004402623
1781518983500175104,1.806826114654541,-0.2871452271938324,-0.1651459038257599,-0.06177637353539467,0.3915373980998993,-0.7780243754386902,0.49130114912986755,-0.1116301417350769,0.038430750370025635,0.002076566219329834,-0.3406210062264801,-0.2346959403939141,-0.8310044421408072,-0.3719231941126906,0.8915149570684634,2.468720495633641,-0.21934392180532739
1781518983510209792,1.8168609142303467,-0.3465840518474579,-0.17287811636924744,-0.1190471202135086,0.3930325508117676,-0.7792375683784485,0.48817458748817444,-0.11961027979850769,0.026704490184783936,-0.0010072588920593262,-0.34184167128555326,-0.2340888189433056,-0.8302347326220564,-0.37290354514481727,0.8934483824254895,2.4637456959080195,-0.21506277895284542
1781518983520243968,1.826894998550415,-0.4384745657444,-0.20458756387233734,-0.20342086255550385,0.3951765298843384,-0.7804924845695496,0.4844244122505188,-0.07973158359527588,0.04720085859298706,-0.0036963224411010742,-0.3433628076813426,-0.23311575356785735,-0.8293788313978732,-0.3740184091837572,0.8954531606748479,2.457312494250693,-0.20920300038056633
1781518983530278912,1.8369300365447998,-0.4464251697063446,-0.24900604784488678,-0.2608377933502197,0.39811837673187256,-0.7817580103874207,0.479954332113266,-0.045258909463882446,0.06357264518737793,0.010234326124191284,-0.3452920543668815,-0.23180573500574658,-0.8283980126782191,-0.3752282359261586,0.8974800638972855,2.449125544847943,-0.2017045523824566
1781518983540313856,1.8469650745391846,-0.4591872990131378,-0.26862871646881104,-0.32475367188453674,0.4016379415988922,-0.7827519774436951,0.4753801226615906,-0.03503027558326721,0.05513662099838257,-0.015037775039672852,-0.3474429915148651,-0.23031879858656165,-0.827431758034512,-0.37628883822440784,0.8990756255094371,2.4400800269856036,-0.19349479510579826
1781518983550349056,1.8570001125335693,-0.5507481098175049,-0.33609485626220703,-0.44030264019966125,0.40605273842811584,-0.7835783958435059,0.47024086117744446,-0.027283698320388794,0.05266696214675903,-0.06080174446105957,-0.3499797555840909,-0.22842845769068107,-0.826402363886766,-0.3773511149397468,0.9004046474608225,2.429313471482347,-0.18357956127108066
1781518983560382720,1.8670339584350586,-0.5895746350288391,-0.40562066435813904,-0.5135869383811951,0.4115583896636963,-0.7843360900878906,0.4641508162021637,-0.023176580667495728,0.07088112831115723,-0.0435120165348053,-0.35308942961330236,-0.22612978361290403,-0.8251913270096212,-0.3784867881007722,0.9016251794843048,2.416179376329392,-0.17158905725945958
1781518983570417920,1.8770689964294434,-0.5356360077857971,-0.43610191345214844,-0.5648016929626465,0.41775643825531006,-0.7847312688827515,0.4579046368598938,-0.03769046068191528,0.08363556861877441,-0.004855811595916748,-0.3565026116717414,-0.2236816796866681,-0.8239653044454147,-0.37941225408514195,0.9022624625462756,2.4020114314550076,-0.15891788949777128
1781518983580452864,1.8871040344238281,-0.4455503225326538,-0.46436071395874023,-0.6173242926597595,0.4244534373283386,-0.7844833135604858,0.4521341621875763,-0.04362457990646362,0.07467496395111084,-0.003952980041503906,-0.36002707761584346,-0.22120611472231883,-0.8228820951459442,-0.37988608110186844,0.9018624868670756,2.38776185027357,-0.1464791586546904
1781518983590488064,1.897139072418213,-0.4279620051383972,-0.5145705938339233,-0.6960300207138062,0.4317985773086548,-0.7836098074913025,0.44666048884391785,-0.009099602699279785,0.029154300689697266,0.008768528699874878,-0.3637610822298767,-0.21865973460892574,-0.8218991210290701,-0.37993104149603146,0.9004551938793585,2.373111027339976,-0.13404092852979682
1781518983600521728,1.9071729183197021,-0.4862876236438751,-0.576745331287384,-0.7858613729476929,0.44002288579940796,-0.7824540138244629,0.4406193196773529,0.031534671783447266,-0.020875394344329834,0.03620252013206482,-0.36791339896673014,-0.21578717091708643,-0.8208200542677371,-0.37990789422238164,0.8985969992635123,2.3568717644929498,-0.12024696159645047
1781518983610556928,1.917207956314087,-0.39833804965019226,-0.6051103472709656,-0.8267152905464172,0.44899654388427734,-0.7808341383934021,0.4343964159488678,0.044487953186035156,-0.0436134934425354,0.07100510597229004,-0.3724039095004892,-0.21275353954273823,-0.8197158868130239,-0.3796276707386629,0.8959999288505252,2.3396686575210475,-0.10591457309121707
1781518983620591872,1.9272429943084717,-0.32137537002563477,-0.5592629909515381,-0.8823793530464172,0.4581811726093292,-0.7784647941589355,0.4290250539779663,0.038751810789108276,-0.04712718725204468,0.0667787492275238,-0.37678970328957573,-0.2097147207509436,-0.8188603427055546,-0.37883632409820855,0.8922162608049263,2.323343453767999,-0.09248797021629523
1781518983630626048,1.93727707862854,-0.36590394377708435,-0.5568718314170837,-0.9191264510154724,0.467614084482193,-0.7757394313812256,0.4237516522407532,0.010550588369369507,-0.059694528579711914,0.036361902952194214,-0.38115310243002387,-0.20640503223627965,-0.818090939341608,-0.37795038193460934,0.8878859486917837,2.307026029058673,-0.07868347113187955
1781518983640660992,1.9473121166229248,-0.4045639932155609,-0.5522794723510742,-0.8837839365005493,0.4769960343837738,-0.773093044757843,0.4180935323238373,-0.01918652653694153,-0.04258090257644653,0.06724280118942261,-0.38554917337385297,-0.20299898586506468,-0.8172136677319114,-0.37723356595803237,0.8837031174767808,2.290482959210598,-0.06453064064352669
1781518983650695680,1.9573469161987305,-0.3150990903377533,-0.5088443756103516,-0.814538836479187,0.48577427864074707,-0.7705335021018982,0.41267603635787964,-0.03638765215873718,0.013163506984710693,0.07008159160614014,-0.3897077533156617,-0.19982942214482433,-0.8163370781506716,-0.376549927053748,0.8796776995309795,2.2750129629781757,-0.05143074318404619
1781518983660730880,1.9673819541931152,-0.3205455243587494,-0.4473589360713959,-0.7830067276954651,0.4938831627368927,-0.7678967118263245,0.4079384207725525,-0.034059613943099976,-0.010103046894073486,0.03513091802597046,-0.39345545993379605,-0.19682635380219274,-0.8156154736002952,-0.3757971385319745,0.8755512410244446,2.2611801883276876,-0.039584817578769
1781518983670764800,1.9774160385131836,-0.19018299877643585,-0.44483253359794617,-0.6680710911750793,0.5013232827186584,-0.7653254270553589,0.4036734104156494,-0.029536724090576172,-0.048380136489868164,0.07026463747024536,-0.3969170814077299,-0.19415145872783315,-0.8149490260418476,-0.37499360569425344,0.8715467505864205,2.248709544133277,-0.029157453888308916
1781518983680800000,1.9874510765075684,-0.06865976005792618,-0.3941453993320465,-0.5969143509864807,0.5077913403511047,-0.7626559138298035,0.40062955021858215,0.01743149757385254,-0.007684171199798584,0.03024810552597046,-0.39990757940050015,-0.1921302717500456,-0.814494162176125,-0.37384382743070177,0.8674094732357874,2.238772254449062,-0.021603278291837457
1781518983690834944,1.9974861145019531,-0.07827084511518478,-0.38319724798202515,-0.5534342527389526,0.5137624144554138,-0.7599518895149231,0.3981476426124573,0.06012070178985596,0.06447142362594604,-0.040298402309417725,-0.4026338620612014,-0.19035768786553495,-0.8141484975177986,-0.37257514437622896,0.8632390942112624,2.230084231104687,-0.015287407520351995
1781518983700869888,2.007520914077759,-0.09218373149633408,-0.3828531801700592,-0.48351216316223145,0.5192373394966125,-0.757607638835907,0.3955041170120239,0.07440584897994995,0.10500437021255493,-0.03254324197769165,-0.40524946590035177,-0.18878096689611928,-0.8137037564780374,-0.3715116783763572,0.8596400494102865,2.22174472113517,-0.009366843171874533
1781518983710903808,2.017554998397827,-0.10022088140249252,-0.3223484456539154,-0.4167751967906952,0.5240387320518494,-0.7556210160255432,0.39296382665634155,0.07030642032623291,0.09074968099594116,-0.007755696773529053,-0.40760991039303107,-0.18741885618354961,-0.8132380286226144,-0.37063775741791766,0.8566016873788806,2.214217772072818,-0.00409313918559025
1781518983720939008,2.027590036392212,-0.18195995688438416,-0.2664310932159424,-0.38579970598220825,0.5281950831413269,-0.7540741562843323,0.3903616666793823,0.0687592625617981,0.06622320413589478,0.004078030586242676,-0.40967189490370337,-0.18605766980932234,-0.8127504965767443,-0.3701190931854312,0.8542433156189396,2.2072513951442456,0.0012452298335870122
1781518983730973952,2.0376250743865967,-0.21485479176044464,-0.2434617280960083,-0.35486283898353577,0.5319926738739014,-0.7529285550117493,0.3874047100543976,0.07674145698547363,0.08340340852737427,0.009812116622924805,-0.41159935762441013,-0.18459065138391204,-0.8121752533016394,-0.36997790465579355,0.8525008667183767,2.2002081885586597,0.0071804317820146416
1781518983741007872,2.047658920288086,-0.032546766102313995,-0.1642761081457138,-0.3157881200313568,0.5353469848632812,-0.7516330480575562,0.38529425859451294,0.07242590188980103,0.1173555850982666,0.02000969648361206,-0.4132056079244874,-0.1833519962761604,-0.811806118919975,-0.36961344643128463,0.8505345034396391,2.1946279954709516,0.011765538005723289
1781518983751042816,2.0576939582824707,0.01725487969815731,-0.09890056401491165,-0.33374476432800293,0.5382477641105652,-0.749873161315918,0.38468119502067566,0.06615293025970459,0.10294628143310547,-0.08641767501831055,-0.41429935153657615,-0.18228718346038453,-0.8118571213297049,-0.368802716417333,0.847870316392189,2.191314604798862,0.014522008499266381
1781518983761077760,2.0677289962768555,-0.046855662018060684,-0.10799206048250198,-0.32343754172325134,0.5411315560340881,-0.7481527924537659,0.38398492336273193,0.07390451431274414,0.07160842418670654,-0.14242294430732727,-0.415346172456831,-0.18108902895539344,-0.8119108526127354,-0.3680967855582684,0.8452738095743388,2.1879337572683335,0.01766243679586637
1781518983771112960,2.0777640342712402,-0.0785299688577652,-0.09116300940513611,-0.3115193545818329,0.5438774824142456,-0.7466841340065002,0.3829628825187683,0.08513569831848145,0.04142272472381592,-0.13148263096809387,-0.41638972843997923,-0.17985279244884692,-0.8118709352091965,-0.3676116382504656,0.8430630865801394,2.1842917239020254,0.02120627789012445
1781518983781146880,2.0877981185913086,-0.12979848682880402,-0.08935871720314026,-0.3071967661380768,0.5465500354766846,-0.7453799843788147,0.3816955089569092,0.09528034925460815,0.03557175397872925,-0.13074952363967896,-0.4174223821677278,-0.17853574884415072,-0.811771361132442,-0.367301931409912,0.8411047017192546,2.1804291849514845,0.025173192264201373
1781518983791181824,2.0978329181671143,-0.1952294260263443,-0.07468443363904953,-0.3073512315750122,0.549149215221405,-0.74431312084198,0.3800441026687622,0.08576911687850952,0.026707351207733154,-0.08290961384773254,-0.4184605124904612,-0.1770985788578236,-0.8115775696284332,-0.36724498124286614,0.8395057010059057,2.1761734312157004,0.029797247542026572
1781518983801216768,2.107867956161499,-0.1954595148563385,-0.07773135602474213,-0.2858768403530121,0.551654040813446,-0.743451714515686,0.37809765338897705,0.053952157497406006,0.018277645111083984,-0.011795103549957275,-0.41949896497056033,-0.17560249561868896,-0.8113030206884531,-0.3673852696806119,0.8382167572828901,2.171648872543141,0.034848812782233625
1781518983811251968,2.117902994155884,-0.12124041467905045,-0.059841711074113846,-0.257792204618454,0.5539260506629944,-0.7425670027732849,0.3765108585357666,0.02633523941040039,0.04281413555145264,0.046569645404815674,-0.4204192760758532,-0.17429305347893861,-0.8110963917438976,-0.36741299001495575,0.8368949373385075,2.1677768441329994,0.039124903986626706
1781518983821285888,2.127937078475952,-0.03113395720720291,-0.053087666630744934,-0.2431509643793106,0.5559890270233154,-0.7414834499359131,0.3756037950515747,0.009776294231414795,0.07087498903274536,0.05756264925003052,-0.4211728952290269,-0.17321068298451356,-0.8110486815894017,-0.3671667081634838,0.8352785489916756,2.164930418452901,0.04221515700128517
1781518983831321088,2.137972116470337,0.03755109757184982,-0.03389918804168701,-0.24947597086429596,0.5579751133918762,-0.740077018737793,0.3754329979419708,0.008553266525268555,0.05124950408935547,0.04165065288543701,-0.4217979051455365,-0.17232523475925635,-0.811184637054281,-0.3665652181000318,0.8331848348735864,2.1630668339517705,0.044113545625084655
1781518983841355776,2.1480069160461426,0.030872421339154243,-0.022126421332359314,-0.2583267092704773,0.5599467158317566,-0.7385114431381226,0.3755803108215332,0.017033934593200684,-0.0007921457290649414,0.010695934295654297,-0.4223289500232079,-0.17141807104172385,-0.8114222101646238,-0.36585258129197845,0.830859935963205,2.1616156905904362,0.0457494792853619
1781518983851390720,2.1580419540405273,-0.0037662507966160774,-0.031205402687191963,-0.27425187826156616,0.5620019435882568,-0.7369661331176758,0.3755461573600769,0.036463022232055664,-0.042285025119781494,0.014666855335235596,-0.4229074593582554,-0.17042302564814313,-0.8116212627046941,-0.36520714754905276,0.828570836576147,2.1598799590235536,0.04774462439709868
1781518983861425408,2.168076515197754,-0.030554454773664474,-0.056121405214071274,-0.28118622303009033,0.5642423629760742,-0.7354406118392944,0.3751770555973053,0.04063129425048828,-0.06404364109039307,0.00505673885345459,-0.4236159997671308,-0.1693280404480813,-0.8117367408285172,-0.36463822614210684,0.8263167348639143,2.15758994589619,0.050248610712031204
1781518983871460352,2.1781115531921387,-0.039337027817964554,-0.06580159813165665,-0.2639094889163971,0.5664880275726318,-0.7340286374092102,0.3745577931404114,0.02224189043045044,-0.04928135871887207,0.003997594118118286,-0.42439735099714243,-0.16825047973569912,-0.811770087536699,-0.3641539291042587,0.8242352626030226,2.1549997614200507,0.052932284805363425
1781518983881495296,2.1881463527679443,-0.011188746429979801,-0.07242647558450699,-0.23535189032554626,0.5685980319976807,-0.7327146530151367,0.3739330470561981,0.006170153617858887,-0.04270654916763306,0.03547552227973938,-0.4251677845268967,-0.16729310748133217,-0.811775547831636,-0.3636838792803361,0.8223024057317759,2.152523947860287,0.05534409766238057
1781518983891529216,2.1981804370880127,0.014597310684621334,-0.06028991937637329,-0.21147505939006805,0.5704818964004517,-0.7314387559890747,0.3735616207122803,-0.0026106834411621094,-0.057913899421691895,0.07298693060874939,-0.425844743978296,-0.16651372721437335,-0.8118213991493471,-0.36314683135755066,0.8204294299589969,2.150550846948787,0.05712023491592369
1781518983901564416,2.2082154750823975,0.06243221089243889,-0.042445674538612366,-0.1681331843137741,0.5720801949501038,-0.7302129864692688,0.37351489067077637,-0.0014014840126037598,-0.06132149696350098,0.09273269772529602,-0.4263789931694522,-0.1659080761694142,-0.8119310030196409,-0.362551458938009,0.8186336233281187,2.1492120616204478,0.058223301938923805
1781518983911599360,2.2182505130767822,0.14734762907028198,0.013698289170861244,-0.12942013144493103,0.5732151865959167,-0.728985607624054,0.37417149543762207,-0.0007970333099365234,-0.07881462574005127,0.11429283022880554,-0.426625097992997,-0.16555576743521802,-0.8122050420094256,-0.3618083446106263,0.8168389052912282,2.1491087772273563,0.05814948789690227
1781518983921634560,2.228285551071167,0.19684647023677826,0.06651516258716583,-0.11272770166397095,0.5739157795906067,-0.7276320457458496,0.3757287263870239,-0.008577704429626465,-0.14768832921981812,0.1206701397895813,-0.4265160829481964,-0.16538294919534596,-0.812719409588822,-0.36085951742420713,0.8148636056331178,2.150451493582692,0.05689183961373565
1781518983931668224,2.2383193969726562,0.22327248752117157,0.06113318353891373,-0.10736756026744843,0.5744772553443909,-0.7262181639671326,0.3776019215583801,-0.008971214294433594,-0.1691676378250122,0.07434815168380737,-0.42627529459110086,-0.16524157947732612,-0.813324154088016,-0.35984506784181636,0.8128047253176393,2.1522838458692304,0.055298230344853684
1781518983941703424,2.248354434967041,0.2716978192329407,0.05782819911837578,-0.06972217559814453,0.5748928189277649,-0.7247833013534546,0.3797205090522766,0.0010502338409423828,-0.10204476118087769,0.010111033916473389,-0.4259963075201021,-0.1653123664652769,-0.8139607315377166,-0.35870181234871246,0.8107198100168543,2.1545221184817938,0.0529957274585194
1781518983951738368,2.258389472961426,0.2697584927082062,0.034924883395433426,-0.05433071032166481,0.5751768350601196,-0.7233567833900452,0.3820032477378845,0.0021088719367980957,-0.07020699977874756,-0.018340617418289185,-0.42569375400670234,-0.16556937849922906,-0.8146093596091827,-0.3574677014815589,0.8086515635202665,2.157054078522658,0.050123933586132444
1781518983961773312,2.2684245109558105,0.22395852208137512,0.025041092187166214,-0.01451991219073534,0.5753111839294434,-0.7222155928611755,0.38395553827285767,-0.0034117698669433594,-0.10580265522003174,0.013947904109954834,-0.4254297123299233,-0.1659007230210307,-0.815140916905896,-0.3564153232774421,0.8070002858126798,2.159297823452482,0.047431282906618535
1781518983971807232,2.2784583568573,0.2677222490310669,0.06954197585582733,0.07418226450681686,0.5749468207359314,-0.7214624881744385,0.3859117329120636,0.0018506050109863281,-0.14653366804122925,0.08088511228561401,-0.42501241709452275,-0.16644851981486053,-0.8156290521636521,-0.3555397552729778,0.8059120318745991,2.161939722129997,0.04434548772990005
1781518983981842176,2.2884933948516846,0.3761163651943207,0.1699460744857788,0.1754193902015686,0.5735735893249512,-0.7209383249282837,0.3889233469963074,0.010593891143798828,-0.19857162237167358,0.18256407976150513,-0.42402868310681996,-0.1674287865054807,-0.8163511943485399,-0.3545956191736975,0.8051553803430362,2.1666523871856773,0.03948511782591223
1781518983991877376,2.2985284328460693,0.4512172341346741,0.23105856776237488,0.2728719413280487,0.5711374282836914,-0.7206113934516907,0.3930915892124176,0.01577657461166382,-0.25964367389678955,0.22617095708847046,-0.4224362510885048,-0.168861429408239,-0.8173320110857987,-0.35355583667589985,0.8046837123562591,2.1736001981953703,0.03271407139660001
1781518984001911296,2.3085625171661377,0.5646023750305176,0.24511873722076416,0.37295565009117126,0.5678673386573792,-0.7204484343528748,0.39809608459472656,0.032825350761413574,-0.23466014862060547,0.16386979818344116,-0.42046514831393206,-0.17083633818847171,-0.818451581459637,-0.3523647562855764,0.8044487221480147,2.182218028737866,0.024041902408838557
1781518984011946496,2.3185975551605225,0.6373892426490784,0.2524718642234802,0.45614001154899597,0.563861608505249,-0.7203633189201355,0.4039016664028168,0.033702969551086426,-0.15639132261276245,0.044752538204193115,-0.4181779644074582,-0.17336825124199973,-0.819691577228778,-0.35096477228465683,0.8043259682120564,2.1923872240963296,0.013429641142520304
1781518984021981184,2.328632354736328,0.6276745200157166,0.2650081515312195,0.5554442405700684,0.5591413378715515,-0.7206047177314758,0.40998807549476624,0.03193843364715576,-0.12175679206848145,-0.017943918704986572,-0.41566885924846114,-0.17635710214061898,-0.8209093768571882,-0.3496076411259596,0.8046740607773917,2.2034882610844133,0.0015801940578267332
1781518984032016384,2.338667392730713,0.4953165352344513,0.2712588608264923,0.6424662470817566,0.5536893010139465,-0.7216234803199768,0.4155576527118683,0.05562478303909302,-0.20243370532989502,-0.011336952447891235,-0.41299839781007486,-0.17950213237097437,-0.8219232386515226,-0.34878884053075465,0.806144581528418,2.214633356187258,-0.01007618726140974
1781518984042050304,2.3487014770507812,0.44249963760375977,0.29369840025901794,0.7450980544090271,0.5474734902381897,-0.723531186580658,0.42044660449028015,0.08771932125091553,-0.23258447647094727,0.052118152379989624,-0.41020733120995206,-0.1828314574141842,-0.8226761008990771,-0.34857800476630424,0.8089042127050627,2.2257032998922637,-0.02150508191016508
1781518984052085504,2.358736515045166,0.49434658885002136,0.3704557418823242,0.8699571490287781,0.5401954650878906,-0.7259838581085205,0.4256013333797455,0.09576040506362915,-0.17248421907424927,0.1104704737663269,-0.4070035029705698,-0.18653587075943812,-0.823410608730164,-0.34863673232379616,0.8124639644100197,2.2380941859010797,-0.034030251006966036
1781518984062120448,2.368771553039551,0.5443769693374634,0.4607028067111969,0.9824832081794739,0.5316139459609985,-0.7287424802780151,0.43164876103401184,0.08644324541091919,-0.1338062286376953,0.12569358944892883,-0.40315643112212857,-0.19070318161144212,-0.8242916186133217,-0.34876979165145333,0.816483758711897,2.2527869768110307,-0.04846097886967672
1781518984072155136,2.3788063526153564,0.546647846698761,0.5309609770774841,1.073509693145752,0.5218761563301086,-0.731786847114563,0.4383299946784973,0.08000677824020386,-0.17745381593704224,0.11686104536056519,-0.39875569575086467,-0.1952188854878697,-0.8252603130256987,-0.34903990938203144,0.82094008835353,2.269404515820259,-0.0643839221193373
1781518984082189312,2.388840436935425,0.5364000201225281,0.5536386370658875,1.170639991760254,0.5111917853355408,-0.7352134585380554,0.4451339542865753,0.08594566583633423,-0.19336014986038208,0.08617711067199707,-0.3939990572932237,-0.20000700498556226,-0.82617441992346,-0.3495680375877726,0.8259815770060517,2.2872294272666123,-0.0812630519334655
1781518984092224256,2.3988754749298096,0.4454514980316162,0.5847004055976868,1.262326717376709,0.49959924817085266,-0.7392330169677734,0.4515920877456665,0.09236553311347961,-0.17147260904312134,0.04387611150741577,-0.3889980492981837,-0.20500463911375488,-0.8269033450316436,-0.3505489448996068,0.8319307328469973,2.3057667101020134,-0.09862644509824112
1781518984102259456,2.4089105129241943,0.42437469959259033,0.6086462140083313,1.357715368270874,0.48707500100135803,-0.7437782883644104,0.4577685296535492,0.08175745606422424,-0.18181991577148438,0.026270806789398193,-0.38375154716526755,-0.210265572546523,-0.8274494884180017,-0.35192407060264286,0.8387051951813709,2.325187151573203,-0.11675578757878513
1781518984112294400,2.418945550918579,0.4009210467338562,0.6442787647247314,1.4426888227462769,0.4735780656337738,-0.748781681060791,0.46373459696769714,0.0873807966709137,-0.17396306991577148,0.01792430877685547,-0.3782185517498608,-0.21577401048908362,-0.8278338407372018,-0.35367133182323585,0.8462220427491658,2.3456930587613907,-0.13577842132284365
1781518984122328320,2.4289793968200684,0.4157727062702179,0.676956295967102,1.5167672634124756,0.4592200219631195,-0.7538890838623047,0.4698600471019745,0.094170480966568,-0.1338367462158203,0.038761258125305176,-0.3723708583366014,-0.2215534975435357,-0.8281570346918306,-0.35554183659163036,0.853961578930787,2.3676462166262047,-0.15615140738829816
1781518984132363264,2.439014434814453,0.4536830484867096,0.7244842648506165,1.5816419124603271,0.4440794587135315,-0.7589210867881775,0.47626936435699463,0.09414386749267578,-0.09810417890548706,0.042209088802337646,-0.3661986242127457,-0.22756672461781505,-0.8284612696356101,-0.35744087789118806,0.8616546643652817,2.3911560250345314,-0.17795681456740708
1781518984142398464,2.449049472808838,0.36148974299430847,0.7732589840888977,1.6205445528030396,0.42816755175590515,-0.7639776468276978,0.482712060213089,0.09845906496047974,-0.1045832633972168,0.037612736225128174,-0.35970327034269284,-0.2336583518182426,-0.8287097196361374,-0.3595241396871248,0.8694553898169958,2.416004192844111,-0.2006893961237695
1781518984152433408,2.4590845108032227,0.3188943564891815,0.8237099051475525,1.684459924697876,0.4115525782108307,-0.7693515419960022,0.4885927140712738,0.10274487733840942,-0.14788484573364258,0.08001077175140381,-0.35300420064904947,-0.23968203518519585,-0.828763465396053,-0.36206590326895316,0.8778254111534773,2.441572762243488,-0.22360599188892732
1781518984162467328,2.469118356704712,0.2584238350391388,0.8863138556480408,1.7284764051437378,0.3940827250480652,-0.7748079299926758,0.49433913826942444,0.09682294726371765,-0.21826446056365967,0.1357877552509308,-0.34596197665749356,-0.24573678784299458,-0.828723716029689,-0.3648844343029238,0.8864112379552852,2.4685668344016367,-0.2474142200689479
1781518984172502272,2.4791533946990967,0.18600581586360931,0.8896985054016113,1.775164008140564,0.3759574890136719,-0.7805102467536926,0.499459832906723,0.0701180100440979,-0.1942671537399292,0.07210397720336914,-0.3387644979725124,-0.251754826626689,-0.8284620802219516,-0.3681152443495183,0.8954815944952225,2.496347770045429,-0.27163455993742147
1781518984182537216,2.4891884326934814,0.17248600721359253,0.877536952495575,1.8594779968261719,0.35722655057907104,-0.786292552947998,0.5041161775588989,0.08256223797798157,-0.0706561803817749,0.02486032247543335,-0.33149338784198157,-0.2579657595659269,-0.8279563641889416,-0.37155620606481465,0.9047853297284953,2.525105145639133,-0.2970255274538291
1781518984192571392,2.49922251701355,0.11444933712482452,0.8711199164390564,1.914436936378479,0.3377765119075775,-0.7921395301818848,0.5083524584770203,0.09352844953536987,-0.021352410316467285,0.057260334491729736,-0.3241129238290917,-0.264435445663933,-0.8271941297363975,-0.3751995004060666,0.914306553727339,2.5551238812468915,-0.3239246735352665
1781518984202606336,2.5092575550079346,-0.02744867652654648,0.8287999033927917,1.929400086402893,0.318097859621048,-0.7982617616653442,0.5114609003067017,0.08555817604064941,-0.05345344543457031,0.06982272863388062,-0.3168999799458506,-0.2708581394451323,-0.8260546636143854,-0.37926782050917673,0.924403757161897,2.585196981170778,-0.351018751762804
1781518984212641280,2.5192923545837402,-0.033627476543188095,0.8482660055160522,1.9794987440109253,0.2980923056602478,-0.8044840693473816,0.5137571692466736,0.0767856240272522,-0.08394366502761841,0.11578989028930664,-0.30975736181333663,-0.27730538204966343,-0.8246091875765311,-0.38362979838569883,0.9348063664764513,2.615844065579736,-0.37883207701625343
1781518984222676224,2.529327392578125,-0.07196847349405289,0.8926113247871399,2.004983901977539,0.2774195671081543,-0.8105127811431885,0.5158557891845703,0.05807536840438843,-0.12678873538970947,0.1532878279685974,-0.30236262190825136,-0.2837843020384286,-0.8230397125707617,-0.3881351316368552,0.9450270632611699,2.6481758057851223,-0.40803235880708
1781518984232710400,2.5393614768981934,-0.16262248158454895,0.911471426486969,2.0266222953796387,0.2562567889690399,-0.8165266513824463,0.5173164010047913,0.05198594927787781,-0.13577419519424438,0.13412702083587646,-0.29484966269277263,-0.2901652535467387,-0.8212565571238181,-0.39294444015100594,0.955368701871438,2.681665586417044,-0.4380539232050049
1781518984242745344,2.549396514892578,-0.2515060007572174,0.9181919097900391,2.0304665565490723,0.23481152951717377,-0.822603702545166,0.5178672671318054,0.06522202491760254,-0.10166686773300171,0.12272709608078003,-0.28735854538975714,-0.2963944978279159,-0.8191971356032834,-0.39810973595279053,0.9659749774279754,2.7158980759683318,-0.46860513224366207
1781518984252780544,2.559431552886963,-0.29010212421417236,0.9383045434951782,2.005418539047241,0.21325093507766724,-0.8285712003707886,0.5176810622215271,0.06787697970867157,-0.055324554443359375,0.0767098069190979,-0.2799040241438711,-0.3024418762750881,-0.8169268214616607,-0.4035011220233652,0.9765508405209034,2.7508400165162388,-0.4996744857952264
1781518984262815232,2.5694663524627686,-0.34222766757011414,0.9738619923591614,1.9916592836380005,0.1916104555130005,-0.8342773914337158,0.5169783234596252,0.05942714214324951,-0.04604792594909668,0.05804908275604248,-0.2723987211241452,-0.3082277886226089,-0.814545761192045,-0.4090351474437437,0.9868208728750727,2.786653999404058,-0.5311918001874132
1781518984272849408,2.579500436782837,-0.3454306423664093,1.0003565549850464,1.980648159980774,0.16980357468128204,-0.8396497964859009,0.5159019827842712,0.05257801711559296,-0.07265788316726685,0.06707537174224854,-0.264794884555864,-0.31383384327946473,-0.8120709975476171,-0.41464763236043123,0.9966381642244896,2.8236215401600355,-0.5635143882611207
1781518984282884352,2.5895354747772217,-0.40650197863578796,1.0203673839569092,1.963692307472229,0.14790363609790802,-0.8447394967079163,0.5143344402313232,0.055206120014190674,-0.08770996332168579,0.04584628343582153,-0.2571482144474547,-0.3192516712713024,-0.8094724217754324,-0.42036607342702,1.0060781910138694,2.861584512874064,-0.5965491403845045
1781518984292919296,2.5995705127716064,-0.4954979121685028,1.0445048809051514,1.9522989988327026,0.12593011558055878,-0.8497552871704102,0.5119159817695618,0.06140203773975372,-0.0692664384841919,0.05593997240066528,-0.24952697141692345,-0.3244233614370009,-0.8066644072960666,-0.4263548348697371,1.0155209460525347,2.900384458012442,-0.6301024719781749
1781518984302954496,2.609605550765991,-0.5557149052619934,1.050410509109497,1.9410501718521118,0.10393177717924118,-0.8547214865684509,0.5085761547088623,0.06687512248754501,-0.05290192365646362,0.05372554063796997,-0.24197421944485978,-0.32936429068709383,-0.8036213275681032,-0.4326205326269705,1.0250140983556046,2.940009916532634,-0.6642534136890607
1781518984312988160,2.6196393966674805,-0.6032385230064392,1.0674405097961426,1.9387975931167603,0.08187355846166611,-0.859453022480011,0.5046157240867615,0.0761922299861908,-0.03916746377944946,0.027809202671051025,-0.23443520251267805,-0.33416997733718096,-0.800398833362451,-0.43901276198908873,1.0341987423304266,2.980744996689909,-0.6993988722151806
1781518984323023360,2.6296744346618652,-0.5928269028663635,1.0789587497711182,1.925656795501709,0.05973919853568077,-0.8638151288032532,0.50025475025177,0.09200945496559143,-0.06706267595291138,0.044178783893585205,-0.2268461661131408,-0.3388588582315383,-0.7970583755806004,-0.44543630212906893,1.0427937972118213,3.0227379448322775,-0.7356469386895715
1781518984333058304,2.63970947265625,-0.6794866919517517,1.0925989151000977,1.896370530128479,0.03769630938768387,-0.8679406642913818,0.49523529410362244,0.08821919560432434,-0.08985346555709839,0.03424474596977234,-0.2192983746394186,-0.34332788372822226,-0.7935638630726114,-0.4519851645937721,1.0510409060070813,3.0656211696790425,-0.7725777067286199
1781518984343093504,2.6497445106506348,-0.7289050817489624,1.0907868146896362,1.8895560503005981,0.0157741941511631,-0.871940016746521,0.4893588423728943,0.0774264931678772,-0.028252363204956055,0.006994307041168213,-0.21185698990910726,-0.34758332703868017,-0.7898514113809457,-0.4587344472124233,1.0591507965280833,3.1093693998068876,-0.810254367337728
1781518984353127168,2.659778356552124,-0.6981522440910339,1.0678699016571045,1.8898159265518188,-0.006082081235945225,-0.8755160570144653,0.483150452375412,0.09308769553899765,0.05424237251281738,-0.01560598611831665,-0.20445369353631024,-0.35181095720990463,-0.7860052669867057,-0.4654281433365937,1.0665027801318876,-3.129004939056235,-0.8491323313958072
1781518984363162368,2.669813394546509,-0.7105652093887329,1.048094391822815,1.8788706064224243,-0.027743171900510788,-0.8785865306854248,0.47677627205848694,0.10971339792013168,0.08628934621810913,-0.018844932317733765,-0.19712083596745364,-0.3560269242507084,-0.7820696688674136,-0.47196939795737664,1.0728945087000743,-3.083469116945473,-0.8889676370747635
1781518984373197312,2.6798484325408936,-0.7276709675788879,1.0126750469207764,1.8937846422195435,-0.04931148141622543,-0.8812795877456665,0.4700153172016144,0.10959896445274353,0.07924729585647583,0.036240726709365845,-0.18988407129736767,-0.3602655587753009,-0.7779565465901557,-0.4784728732085695,1.0785629843473785,-3.037060440638772,-0.9299697906964399
1781518984383232256,2.6898834705352783,-0.6938949227333069,1.0045031309127808,1.9097545146942139,-0.07083810120820999,-0.8835093975067139,0.46302592754364014,0.09435191005468369,0.05810052156448364,0.043809980154037476,-0.18268363065727913,-0.3645447418571497,-0.7737054329921965,-0.48488524924230836,1.083302203143916,-2.989780289842674,-0.9720870923547431
1781518984393266432,2.6999175548553467,-0.5471312999725342,1.0116615295410156,1.9619148969650269,-0.09267934411764145,-0.8847764134407043,0.4567069113254547,0.08982595801353455,0.01818406581878662,0.06612023711204529,-0.17517985198618705,-0.36902552146521067,-0.7695281826576856,-0.49087527374109746,1.0860139525103167,-2.941381787118381,-1.0153939006313473
1781518984403301120,2.7099523544311523,-0.5139877200126648,0.9362722635269165,2.0003201961517334,-0.11472994834184647,-0.8851692080497742,0.45090165734291077,0.08788976073265076,-0.02880162000656128,0.048045456409454346,-0.1674845882797323,-0.37372909519817915,-0.7653609545634004,-0.49648566835390834,1.086857583108964,-2.8924342752251366,-1.0595071613294895
1781518984413336320,2.719987392425537,-0.6003929376602173,0.91855388879776,2.0566565990448,-0.13695470988750458,-0.8849062323570251,0.4451788365840912,0.10541480779647827,-0.05265474319458008,0.07101067900657654,-0.15987738445630859,-0.3788729981803622,-0.7609498501427637,-0.5018463323951324,1.0862926514592242,-2.8431417417018032,-1.1049565757199382
1781518984423370240,2.7300214767456055,-0.6516883373260498,0.9968976974487305,1.897355079650879,-0.1588006168603897,-0.8848817348480225,0.4379121661186218,0.08482596278190613,-0.09918832778930664,0.07960498332977295,-0.15241729899956916,-0.3833967619557943,-0.7562823601342045,-0.5077529147337948,1.0862400795556044,-2.793709705495073,-1.1497463921356592
1781518984433405440,2.7400565147399902,-0.5511217713356018,0.9910489320755005,1.8655058145523071,-0.1797824501991272,-0.8842950463294983,0.4309298098087311,0.007022455334663391,-0.013440489768981934,-0.07488122582435608,-0.145013773191699,-0.38751356561919376,-0.7518631099879372,-0.513328426812971,1.0849820291682064,-2.746350082256117,-1.1920391038283762
1781518984443440384,2.750091552734375,-0.39593616127967834,1.0033948421478271,1.8726383447647095,-0.20064911246299744,-0.8828129768371582,0.42471325397491455,0.032054752111434937,0.1202244758605957,-0.12814342975616455,-0.13736052108859087,-0.3916086369475166,-0.7476625572078722,-0.5184356493818606,1.0818174799237612,-2.7002397534856777,-1.2328569219673833
1781518984453475328,2.7601263523101807,-0.25434812903404236,0.9417875409126282,1.85917067527771,-0.2213316112756729,-0.8801658749580383,0.4199053645133972,0.08975504338741302,0.12105631828308105,-0.08947628736495972,-0.12943347179408826,-0.39584858734173933,-0.7438121885012156,-0.522775641844215,1.0762116011979466,-2.65650175528889,-1.2713573739085466
1781518984463509248,2.770160436630249,-0.30447840690612793,0.8488072752952576,1.8098846673965454,-0.24127042293548584,-0.8770750164985657,0.415365070104599,0.12954555451869965,0.034240543842315674,-0.06618297100067139,-0.12181497065773059,-0.40013518668021353,-0.7399826785094669,-0.5267624142837316,1.0697387389302486,-2.615362940934438,-1.3079153953039109
1781518984473544448,2.780195474624634,-0.28605252504348755,0.7761021852493286,1.7984669208526611,-0.2604374587535858,-0.8738136291503906,0.41063642501831055,0.12960857152938843,0.005100131034851074,-0.02030128240585327,-0.11468059822145928,-0.4044973893962219,-0.7360027688642861,-0.5305942132786942,1.0629906523260482,-2.5763843653976557,-1.3432315954662823
1781518984483579392,2.7902305126190186,-0.30872297286987305,0.8758324980735779,1.762987732887268,-0.2794386148452759,-0.8701503276824951,0.4058973491191864,0.09470042586326599,0.024492859840393066,0.016786396503448486,-0.1074788964833139,-0.40873887768388883,-0.7320390737885686,-0.5343217101605305,1.0555073334587304,-2.538662879091335,-1.377078309983702
1781518984493614336,2.8002655506134033,-0.41809260845184326,0.95315021276474,1.6742570400238037,-0.298132061958313,-0.8667063117027283,0.3999221622943878,0.0459500253200531,0.07791835069656372,-0.008168041706085205,-0.1002552782472625,-0.4123422967784466,-0.727966280583917,-0.5385052493030899,1.0485609743510627,-2.5009936905197514,-1.4097790562671964
1781518984503648256,2.8102993965148926,-0.2783661186695099,0.936048150062561,1.6737004518508911,-0.316441148519516,-0.8629258871078491,0.3939840495586395,0.06419819593429565,0.08134037256240845,0.013929039239883423,-0.09298135198732799,-0.41570162374735314,-0.7240056534562854,-0.5425516378591125,1.0410314399447056,-2.464914098193273,-1.4404935320059484
1781518984513683200,2.8203344345092773,-0.25693246722221375,0.8858859539031982,1.591683030128479,-0.3341476023197174,-0.8586287498474121,0.38871827721595764,0.10189363360404968,0.040849268436431885,-0.05839601159095764,-0.08575058009078733,-0.4189967684817495,-0.7202783120266852,-0.5461571732487722,1.0325885807972524,-2.431543664719487,-1.468573288037514
1781518984523718400,2.830369472503662,-0.15570145845413208,0.7980735301971436,1.5910098552703857,-0.35103490948677063,-0.8540074825286865,0.38398662209510803,0.12921789288520813,0.07100272178649902,-0.07049477100372314,-0.07881590144381131,-0.4223177252748007,-0.7166875506527597,-0.5493584805122416,1.0236400909499257,-2.4009954466779995,-1.4944026215302773
1781518984533753344,2.840404510498047,-0.11736418306827545,0.760869562625885,1.5650259256362915,-0.3675602078437805,-0.8488124012947083,0.38002273440361023,0.16673925518989563,0.0957300066947937,-0.03940075635910034,-0.07192308726508048,-0.42578912014433673,-0.7132425916912533,-0.5521012675918379,1.0137349640295525,-2.372863379006675,-1.5182358544120076
1781518984543787264,2.850438356399536,-0.11135023087263107,0.6626335382461548,1.535788655281067,-0.3834380507469177,-0.8434292078018188,0.3763013482093811,0.16555774211883545,0.1212916374206543,-0.060963213443756104,-0.06531984916301944,-0.4292904581280737,-0.7098312283015749,-0.55460141470457,1.0036345582630724,-2.346801133471146,-1.5405372029469175
1781518984553822208,2.860473394393921,-0.1871107816696167,0.586066722869873,1.4979166984558105,-0.39860445261001587,-0.8379700779914856,0.3727205693721771,0.17706209421157837,0.1436799168586731,-0.05495631694793701,-0.059165344401468443,-0.4329205930087888,-0.7063568851288979,-0.5569013908915108,0.9935527487575612,-2.3226493891946425,-1.5618516278181873
1781518984563857408,2.8705084323883057,-0.28795403242111206,0.5494426488876343,1.4361238479614258,-0.41296249628067017,-0.8329270482063293,0.36836785078048706,0.1559586524963379,0.1534530520439148,0.0010170042514801025,-0.053618041247428486,-0.4364499219346566,-0.7026346035969199,-0.5594115907272581,0.9843762182814563,-2.299181041781155,-1.5831926228649917
1781518984573892352,2.8805434703826904,-0.2800111472606659,0.620354413986206,1.4202913045883179,-0.4270014762878418,-0.8279933929443359,0.36345091462135315,0.08796650171279907,0.132116436958313,0.05665406584739685,-0.04819920837230812,-0.43975281931031285,-0.6988153631997285,-0.5620954970560891,0.975519696400297,-2.2759693411514754,-1.604093941349346
1781518984583926528,2.890577554702759,-0.23545753955841064,0.681250274181366,1.3852840662002563,-0.44101420044898987,-0.8228018283843994,0.35847434401512146,0.027058452367782593,0.10476887226104736,-0.00059470534324646,-0.04250327295886116,-0.442756823611925,-0.6951284587574431,-0.5647622314646583,0.9663235138087265,-2.2533181671013707,-1.6235719404684703
1781518984593961216,2.9006123542785645,-0.19107195734977722,0.6242050528526306,1.3426876068115234,-0.4545917510986328,-0.817450225353241,0.35372528433799744,0.05282783508300781,0.14430874586105347,-0.06121420860290527,-0.03682237769832699,-0.44558634007656367,-0.6916035374647197,-0.5672578726461408,0.956970268801347,-2.2320504303935893,-1.6414408523298822
1781518984603996160,2.910647392272949,-0.12525513768196106,0.5360027551651001,1.3238720893859863,-0.46753841638565063,-0.8118274807929993,0.3497770428657532,0.12682491540908813,0.13943374156951904,-0.008727818727493286,-0.031363487844742,-0.44852576429399615,-0.6882682281874632,-0.5693222404954311,0.9472751436983261,-2.2130961681152543,-1.657575141610532
1781518984614031360,2.920682430267334,-0.18572060763835907,0.4926738142967224,1.314765453338623,-0.4800249934196472,-0.8060906529426575,0.34611213207244873,0.10034063458442688,0.030654311180114746,-0.003323495388031006,-0.026157553297905187,-0.45156305240742206,-0.6849429720199736,-0.5711913896339722,0.93751608144571,-2.195496999032848,-1.672931244593825
1781518984624065280,2.9307165145874023,-0.28025829792022705,0.47827595472335815,1.3361316919326782,-0.492397278547287,-0.8004150390625,0.34187793731689453,0.03547289967536926,-0.02043139934539795,0.001872032880783081,-0.021225657040947143,-0.4547088529025194,-0.6813067029753453,-0.5732455498424371,0.9279873031234969,-2.177695430790407,-1.689082919872032
1781518984634100480,2.940751552581787,-0.3392142951488495,0.5138366222381592,1.2791699171066284,-0.504583477973938,-0.7949285507202148,0.3368736207485199,0.013235330581665039,0.060904622077941895,-0.0005242228507995605,-0.016480387746546678,-0.45772361202032646,-0.6774406992643389,-0.5755792579256522,0.918889811251696,-2.1594635755201446,-1.7057105763923799
1781518984644135168,2.9507863521575928,-0.32910358905792236,0.47720932960510254,1.1930779218673706,-0.5161213874816895,-0.7897074222564697,0.33163416385650635,0.03420299291610718,0.21936428546905518,-0.07267722487449646,-0.011948642287491942,-0.460428165532178,-0.6736638537155736,-0.5779621643628038,0.9103319364726856,-2.1419169595987944,-1.7214406693133144
1781518984654170368,2.9608213901519775,-0.2701510787010193,0.33293700218200684,1.1397055387496948,-0.5266183614730835,-0.7846733927726746,0.32704851031303406,0.1169809103012085,0.28920525312423706,-0.044272661209106445,-0.007947436804686013,-0.4631545070415478,-0.6700836920739274,-0.5800108491278451,0.9021691077842573,-2.1265394014098535,-1.7358417956068837
1781518984664204288,2.970855474472046,-0.21516823768615723,0.3530856668949127,1.1044883728027344,-0.5365374088287354,-0.7794609665870667,0.3233698308467865,0.10208922624588013,0.1159479022026062,0.059793561697006226,-0.004100174172611722,-0.4659331714870133,-0.6667767165495876,-0.5816340917772646,0.893804880158468,-2.1131969920180826,-1.7485750272884937
1781518984674239488,2.9808905124664307,-0.2712469696998596,0.498689740896225,1.090547800064087,-0.5464797616004944,-0.7742752432823181,0.31915175914764404,-0.055464208126068115,-0.035020411014556885,-0.015501856803894043,-2.601754579564404e-05,-0.468340071663041,-0.6635009057303416,-0.5834587966580987,0.8855690737004381,-2.099378381556182,-1.7608188642648575
1781518984684274432,2.9909255504608154,-0.24938639998435974,0.5012059211730957,1.0576210021972656,-0.5564436912536621,-0.769214928150177,0.31413131952285767,-0.06245267391204834,0.07559627294540405,-0.06474176049232483,0.004178315909622028,-0.470402712680603,-0.6601416168105148,-0.5855909657565082,0.8776116646959158,-2.0847294709467437,-1.7731014948563448
1781518984694309120,3.000960350036621,-0.12950074672698975,0.4194200932979584,0.9686147570610046,-0.565730631351471,-0.7640461325645447,0.31013286113739014,0.07366520166397095,0.20702403783798218,-0.03321635723114014,0.008267587563471264,-0.4724239821964124,-0.6571773011642502,-0.5872522653637916,0.8695614958441312,-2.0722555867920525,-1.7833469157451087
1781518984704343296,3.0109944343566895,-0.3311326503753662,0.3852298855781555,0.8372300863265991,-0.5738862156867981,-0.7595231533050537,0.30623334646224976,0.11117881536483765,0.21647822856903076,-0.12152570486068726,0.011783532788182692,-0.474198587369305,-0.6544099424617151,-0.5888500292762445,0.8625797400447387,-2.06097162624626,-1.7927868368322808
1781518984714378240,3.021029472351074,-0.5003060102462769,0.24066033959388733,0.798073410987854,-0.5810310244560242,-0.756228506565094,0.30086827278137207,0.1238929033279419,0.19607824087142944,-0.06071016192436218,0.014134964321962028,-0.47593580078347025,-0.6510908114923074,-0.5910720712736386,0.8575296725039466,-2.0485964439773547,-1.804871076281901
1781518984724413440,3.031064510345459,-0.45191872119903564,0.16434532403945923,0.8076647520065308,-0.5876825451850891,-0.7529074549674988,0.2962430715560913,0.10907530784606934,0.013619005680084229,0.08705773949623108,0.016017090474099518,-0.47803845197427264,-0.6477659856268957,-0.5929772764775331,0.8524687533115521,-2.0377081107097164,-1.8168189664130272
1781518984734448384,3.0410995483398438,-0.5186865925788879,0.2590876817703247,0.8008990287780762,-0.594396710395813,-0.7495494484901428,0.29132145643234253,-0.058099567890167236,-0.1131976842880249,0.04052671790122986,0.01794636220017258,-0.4800631468527953,-0.644360222714482,-0.5949934613657375,0.8473811958638359,-2.0265029457994004,-1.8288922262472882
1781518984744482304,3.051133394241333,-0.36092838644981384,0.31936219334602356,0.7812054753303528,-0.6011672019958496,-0.7461569905281067,0.2860906422138214,-0.1275010108947754,0.07396155595779419,0.03620553016662598,0.020134447979520395,-0.4817753886529882,-0.6410443016372197,-0.5971175247592936,0.8422710056900973,-2.014972178741111,-1.8403785331367972
1781518984754517248,3.0611684322357178,-0.15890097618103027,0.38255608081817627,0.7192994952201843,-0.6078081130981445,-0.7422606945037842,0.28216713666915894,-0.07769298553466797,0.21569514274597168,0.05392289161682129,0.022920844267425144,-0.4831985317837926,-0.6384377393366506,-0.5986577048207606,0.8364377140027158,-2.005426630450432,-1.8485528841655137
1781518984764552448,3.0712034702301025,-0.19783292710781097,0.4759504795074463,0.6334900259971619,-0.6140390038490295,-0.7386035323143005,0.27824652194976807,-0.08402019739151001,0.20604121685028076,-0.06840762495994568,0.025936969350584274,-0.48405806400689944,-0.6362476321293165,-0.6001700504652016,0.8309965449766735,-1.9962596192678608,-1.8550128344159282
1781518984774587392,3.0812385082244873,-0.2579266130924225,0.36099353432655334,0.5814270973205566,-0.6197277903556824,-0.7354791164398193,0.2738761007785797,-0.0029224157333374023,0.22347038984298706,-0.13230499625205994,0.028569368214850278,-0.4847415836204207,-0.6340060276266096,-0.601868607166994,0.8263735603652167,-1.9869187254522043,-1.861865764374817
1781518984784621312,3.0912723541259766,-0.3829098343849182,0.15420813858509064,0.44032323360443115,-0.6242466568946838,-0.733137845993042,0.2698618173599243,0.15184974670410156,0.18473690748214722,-0.11132296919822693,0.03016993742080606,-0.48564295955803566,-0.631729237197886,-0.6034559011033808,0.822924471482003,-1.978833836616878,-1.8693171135177278
1781518984794656256,3.1013073921203613,-0.4515983462333679,0.053151555359363556,0.364419162273407,-0.6274188756942749,-0.7317917346954346,0.26613250374794006,0.1618884801864624,0.13518834114074707,-0.12062478065490723,0.030648690798073648,-0.4866601795252138,-0.6294665421199422,-0.6049747287983345,0.820947207205872,-1.9719640890881984,-1.8773454215571017
1781518984804691200,3.111342430114746,-0.3252614438533783,0.027981754392385483,0.33538004755973816,-0.6300920844078064,-0.7306277751922607,0.26299673318862915,0.11349046230316162,0.13492459058761597,-0.03962323069572449,0.030866658320354012,-0.48771337028500544,-0.6274026054552545,-0.6062581997378486,0.8192409575115166,-1.9662071049481422,-1.8847049355116934
1781518984814726400,3.121377468109131,-0.20511294901371002,0.08145962655544281,0.2951008081436157,-0.6325227618217468,-0.7293276786804199,0.2607612609863281,0.04830944538116455,0.08150047063827515,0.031230956315994263,0.03133170561626948,-0.4885951822291183,-0.6258237573885207,-0.6071555336398846,0.8173387387877915,-1.961823287820092,-1.8900431716976163
1781518984824760320,3.131411552429199,-0.17451243102550507,0.2260303944349289,0.2787117063999176,-0.6350497007369995,-0.7279515266418457,0.25845396518707275,-0.03590977191925049,0.0477452278137207,0.027022719383239746,0.032249578183344625,-0.4890729740683289,-0.6245275121138354,-0.6080567165954794,0.8153294269624677,-1.957307374768017,-1.8941398850092666
1781518984834795264,3.141446352005005,-0.21515358984470367,0.26907241344451904,0.17985887825489044,-0.6374377012252808,-0.7269489765167236,0.2553788423538208,-0.007093548774719238,0.15504956245422363,-0.0103684663772583,0.0333112806535809,-0.48904245247168515,-0.6233192633909433,-0.609262597482741,0.8138683446905205,-1.95184865372056,-1.8980411529962924
1781518984844830208,3.1514813899993896,-0.2728767991065979,0.08542799949645996,0.01812431775033474,-0.6386571526527405,-0.7269223928451538,0.2523901164531708,0.16810667514801025,0.3102964162826538,-0.05092838406562805,0.033612008894132524,-0.48882251274239585,-0.622292223806542,-0.6104712125302963,0.8138296051783183,-1.947148218921806,-1.9019023766624485
1781518984854865408,3.1615164279937744,-0.2964836061000824,-0.11864497512578964,-0.0978800505399704,-0.6382739543914795,-0.7279303073883057,0.2504473626613617,0.2945544719696045,0.31948304176330566,-0.08736145496368408,0.032705118807152,-0.4887978818898874,-0.6215306235170562,-0.6113155765561973,0.8152985283446992,-1.9447184621710163,-1.9055480620430798
1781518984864899072,3.1715502738952637,-0.3500048816204071,-0.19257818162441254,-0.1914566159248352,-0.6368239521980286,-0.7296789288520813,0.24904686212539673,0.26724064350128174,0.19256937503814697,-0.08998924493789673,0.03095726555903641,-0.48889058050204615,-0.6208940570028044,-0.6119790691870546,0.8178522487518527,-1.943586400465136,-1.9092913145351664
1781518984874934272,3.1815853118896484,-0.21996459364891052,-0.21220022439956665,-0.23555536568164825,-0.634730339050293,-0.7317845225334167,0.24821116030216217,0.17573070526123047,0.11622971296310425,-0.06190133094787598,0.02893998163278523,-0.4888912962020292,-0.6205569139159598,-0.6124188707690104,0.8209366606615904,-1.9435632825378655,-1.9121346157004777
1781518984884968960,3.191620111465454,-0.04008564352989197,-0.19348779320716858,-0.3008195757865906,-0.6322596669197083,-0.7338152527809143,0.24852101504802704,0.1184658408164978,0.10844910144805908,-0.05973924696445465,0.02716283139601938,-0.4886987083022315,-0.6208333776012009,-0.6123737387387133,0.8239210590112939,-1.945312549267905,-1.9125173888928662
1781518984895004160,3.201655149459839,0.20487377047538757,-0.20059069991111755,-0.33138254284858704,-0.6294200420379639,-0.7356205582618713,0.2503853142261505,0.09018969535827637,0.16178327798843384,-0.06720352172851562,0.025781612680040842,-0.48829506571634307,-0.6219007875331701,-0.6116720041068742,0.8265822862188679,-1.949407491272824,-1.9096179643981512
1781518984905038080,3.2116892337799072,0.2921575605869293,-0.19659170508384705,-0.3612877130508423,-0.6263546943664551,-0.7371392846107483,0.25358521938323975,0.08385896682739258,0.1629815697669983,-0.042373061180114746,0.024735455555999358,-0.4877947826714802,-0.6235774712416672,-0.6104060463039871,0.8288270456992971,-1.9554843037124339,-1.9040979638386437
1781518984915073280,3.221724271774292,0.19062453508377075,-0.1596808284521103,-0.3721400797367096,-0.6231721043586731,-0.738795280456543,0.2565898001194,0.02405095100402832,0.0968121886253357,-0.02828773856163025,0.023657418510388637,-0.48717256099596734,-0.6252661768163156,-0.6092171503201385,0.8312809781501486,-1.9613889706106065,-1.8985745356077388
1781518984925108224,3.2317593097686768,0.02037264220416546,-0.12338326871395111,-0.45317795872688293,-0.6198136210441589,-0.74106365442276,0.2581779360771179,-0.014601051807403564,0.10382610559463501,-0.052428483963012695,0.022233486223658616,-0.4863076070705324,-0.6265731219905316,-0.6086187339298619,0.8346531266381765,-1.9654805493172236,-1.8948985124227935
1781518984935142144,3.241793155670166,-0.06586024910211563,-0.17700614035129547,-0.6171042919158936,-0.615464448928833,-0.7444408535957336,0.25886592268943787,0.03848379850387573,0.24886590242385864,-0.11787471175193787,0.020076889331271424,-0.4850798891876471,-0.6277981050527273,-0.6084111001189253,0.8396970545704657,-1.9689364126045756,-1.892217679816387
1781518984945177088,3.251828193664551,-0.026106975972652435,-0.24988965690135956,-0.7855087518692017,-0.6096510291099548,-0.7488888502120972,0.2597903907299042,0.13044875860214233,0.38591277599334717,-0.17994117736816406,0.01713221947366603,-0.48352729362737035,-0.6293620148056088,-0.6081210833808541,0.8463837427308567,-1.9736234130457284,-1.8888224620001552
1781518984955212032,3.2618632316589355,-0.07631155848503113,-0.38326331973075867,-0.9577969312667847,-0.6022868752479553,-0.7542798519134521,0.26136666536331177,0.19283252954483032,0.39975714683532715,-0.236983060836792,0.013419747992263652,-0.4817097011681294,-0.6313787242940356,-0.6075661495835613,0.8545565400279487,-1.9802291645695693,-1.8841159556730074
1781518984965247232,3.2718982696533203,-0.020195024088025093,-0.6772398352622986,-1.0447113513946533,-0.5931865572929382,-0.7605377435684204,0.26403066515922546,0.25088614225387573,0.3313537836074829,-0.17961907386779785,0.008488590501813211,-0.48010985685344454,-0.6336480493820468,-0.6065580381846477,0.8641408806122968,-1.989572616970929,-1.8787973862228704
1781518984975280896,3.2819321155548096,0.11925554275512695,-0.7676108479499817,-1.0219753980636597,-0.5832563638687134,-0.7665342688560486,0.2687700092792511,0.22063124179840088,0.07305282354354858,0.02015519142150879,0.003080834818883022,-0.47906440941547856,-0.636303625070322,-0.6046532315731905,0.8734269761421661,-2.002602906006009,-1.8715011384905567
1781518984985316096,3.2919671535491943,0.2527174651622772,-0.5870895385742188,-0.9543901681900024,-0.5737424492835999,-0.7717310190200806,0.2743188440799713,-0.02833878993988037,-0.22303515672683716,0.1367834508419037,-0.0016511048940323874,-0.47799760540632535,-0.6392790506702463,-0.6023602250497676,0.8815585809984695,-2.0167887658696975,-1.8620897441377002
1781518984995351040,3.302002191543579,0.40550753474235535,-0.2788821756839752,-0.9520689845085144,-0.5651781558990479,-0.7762627601623535,0.2792665660381317,-0.26489996910095215,-0.18055486679077148,0.0938260555267334,-0.005160254311563066,-0.47628253349508287,-0.6424859827169881,-0.6002833377437709,0.8887156766656756,-2.0297299461697755,-1.8510489385237183
1781518985005386240,3.312037229537964,0.5855364203453064,-0.06020442768931389,-1.0989817380905151,-0.5567981004714966,-0.7805665135383606,0.2840631306171417,-0.23226439952850342,0.2396119236946106,-0.044194936752319336,-0.007513217577423959,-0.47346795462066454,-0.6464206529335875,-0.5982574772223055,0.8955716213832309,-2.0425488581550457,-1.8365514342877112
1781518985015420160,3.3220713138580322,0.6654538512229919,-0.1595560610294342,-1.3364825248718262,-0.5469999313354492,-0.7854475378990173,0.28959164023399353,0.01918315887451172,0.6297468543052673,-0.18688476085662842,-0.00992933897221197,-0.46981461992427226,-0.6512065998089289,-0.5959073970584547,0.9034189116383744,-2.0577004657724722,-1.818358313959727
1781518985025455104,3.332106113433838,0.4255464971065521,-0.5458883047103882,-1.5615168809890747,-0.5345131754875183,-0.7916417121887207,0.29597166180610657,0.2800118327140808,0.7066655158996582,-0.2995269298553467,-0.01403458928746939,-0.46610688519956844,-0.6563003938062635,-0.5931418563205925,0.9134913179889781,-2.0764925647926358,-1.7988716616543654
1781518985035490048,3.3421411514282227,-0.04035142436623573,-1.0039916038513184,-1.669674277305603,-0.5191050171852112,-0.7998139262199402,0.3013762831687927,0.40773117542266846,0.49706435203552246,-0.24607840180397034,-0.02112635726391973,-0.4630614353372407,-0.6605015116839684,-0.5906483917124796,0.9269851384890972,-2.0968057968836677,-1.78327575804112
1781518985045524992,3.3521761894226074,0.09758220613002777,-1.0143009424209595,-1.5730407238006592,-0.5028660297393799,-0.8080035448074341,0.3070118725299835,0.3040439486503601,-0.02781200408935547,0.07103994488716125,-0.029291105920842022,-0.46076742168546064,-0.664228365667508,-0.5879083359115285,0.9407556802682384,-2.1189182715240986,-1.768777617936653
