time,seconds_elapsed,rotationRateX,rotationRateY,rotationRateZ,gravityX,gravityY,gravityZ,accelerationX,accelerationY,accelerationZ,quaternionW,quaternionX,quaternionY,quaternionZ,pitch,roll,yaw
1781552625323277568,0.10030031204223633,-0.040725767612457275,-0.010830902494490147,0.006451188120990992,0.11663451045751572,-0.03904589265584946,-0.9924070835113525,0.012500621378421783,0.007246572524309158,0.010473489761352539,-0.33672947596623,0.04840372967910702,-0.03812531109115125,-0.9395833761406376,0.039055820218386564,0.11699020857289129,2.4510608574513757
1781552625333312512,0.1103353500366211,-0.021041009575128555,-0.0026227738708257675,-0.005967930890619755,0.11656581610441208,-0.038784779608249664,-0.9924253821372986,0.01769626885652542,0.035855088382959366,-0.009665071964263916,-0.33672147535297575,0.04841562683437562,-0.03798989740852914,-0.9395911319107847,0.03879450913281303,0.11691979221530303,2.451097891684148
1781552625343347456,0.12037038803100586,-0.027428600937128067,-0.0015401989221572876,-0.01693109981715679,0.11656417697668076,-0.03853714466094971,-0.9924352169036865,0.005475617945194244,0.018578648567199707,-0.027340173721313477,-0.33676379638396775,0.048454916404344836,-0.03787489426794642,-0.9395784515724126,0.038546690856661146,0.116917014944451,2.451023894736353
1781552625353382656,0.13040542602539062,-0.037352606654167175,0.0028805150650441647,-0.031692735850811005,0.11656166613101959,-0.03818126767873764,-0.9924492835998535,-0.0008237510919570923,0.0027351006865501404,-0.034757137298583984,-0.3368674376089962,0.04850959561240845,-0.03771179823140809,-0.9395451613979731,0.038190551690775475,0.11691287824864781,2.4508269710086
1781552625363416576,0.14043951034545898,-0.03231070935726166,0.003587318118661642,-0.040662527084350586,0.11661846190690994,-0.03776102140545845,-0.992458701133728,0.0029188916087150574,0.01314859464764595,-0.03244364261627197,-0.33703956455877554,0.04860047273524533,-0.037532007257297086,-0.9394859231082467,0.037770000268446645,0.11696823019510669,2.450485803427398
1781552625373451520,0.15047430992126465,-0.02028893306851387,0.00909873005002737,-0.023976227268576622,0.11668531596660614,-0.03745611384510994,-0.9924623966217041,-0.00409071147441864,0.023311220109462738,-0.0159146785736084,-0.3371789663673409,0.048677993196280876,-0.03740672420781934,-0.939436798733431,0.0374648793966533,0.11703424314575869,2.450206168147771
1781552625383486464,0.16050934791564941,-0.007121998351067305,0.03673221915960312,-0.021842768415808678,0.11694355309009552,-0.037317100912332535,-0.9924372434616089,-0.01368732750415802,0.016565147787332535,-0.004495739936828613,-0.33727403335786316,0.048819715061432574,-0.0373901678016708,-0.9393959566617678,0.03732576701079401,0.1172938290047072,2.4500024921983137
1781552625393521664,0.17054438591003418,-0.031277935951948166,0.03329940512776375,-0.023811643943190575,0.11733214557170868,-0.037108056247234344,-0.9923992156982422,-0.02422301471233368,-0.008942969143390656,-0.0066394805908203125,-0.3373822756298454,0.04903435096313541,-0.037363561164117036,-0.9393469861115968,0.03711657694412831,0.11768447315360858,2.4497702299750004
1781552625403556608,0.18057942390441895,-0.0545148141682148,0.038946907967329025,-0.02474801056087017,0.11770360171794891,-0.03665829449892044,-0.9923719167709351,-0.011639758944511414,-0.02219485491514206,0.010133147239685059,-0.3374615504673572,0.04928274045098819,-0.037218945884081485,-0.9393113290259211,0.0366665104309856,0.11805680910076854,2.449616341140725
1781552625413590784,0.1906135082244873,-0.0527893528342247,0.06001410633325577,-0.02589450217783451,0.11821644008159637,-0.03609560802578926,-0.9923315644264221,0.0033198148012161255,-0.02661801502108574,0.02182680368423462,-0.33756346799864423,0.04961617573544171,-0.03704647089979018,-0.939263907907811,0.03610345208151276,0.1185711627915721,2.449415903621557
1781552625423625472,0.20064830780029297,-0.06460899114608765,0.07157035917043686,-0.0016496150055900216,0.1188749372959137,-0.0354849137365818,-0.9922749400138855,-0.006478697061538696,-0.030829783529043198,0.017802894115447998,-0.3376003437653915,0.050029164917466264,-0.03687287719813318,-0.9392356251428379,0.035492364382619095,0.11923215921232264,2.4493517623886283
1781552625433660416,0.21068334579467773,-0.07927075773477554,0.08494769036769867,-0.01328363362699747,0.11966997385025024,-0.03478159010410309,-0.9922043085098267,-0.004603445529937744,-0.02375112473964691,0.01495516300201416,-0.33759667625598994,0.050523963412474705,-0.03667680195672648,-0.9392181069025861,0.03478860547344808,0.1200304387021218,2.4493748525355477
1781552625443695616,0.2207183837890625,-0.10325998067855835,0.0672302097082138,-0.002690644469112158,0.12043958902359009,-0.033850569278001785,-0.9921433329582214,0.012174546718597412,-0.016961202025413513,0.010728538036346436,-0.33761326087016635,0.05104450243738565,-0.03637003006312977,-0.9391959534693807,0.033857036300833886,0.1208022525791407,2.4493714678249225
1781552625453730560,0.23075342178344727,-0.0921705812215805,0.062273669987916946,0.01535919588059187,0.12106724828481674,-0.032850753515958786,-0.9921005964279175,0.021343030035495758,0.015104785561561584,0.0073441267013549805,-0.3375461872128288,0.05151284140228626,-0.03600194881353768,-0.9392086066949811,0.032856665424975375,0.12143083365865359,2.449556602587793
1781552625463765504,0.24078845977783203,-0.05819769948720932,0.06841438263654709,0.030571704730391502,0.12172800302505493,-0.032130952924489975,-0.9920433163642883,0.012564599514007568,0.032878633588552475,-0.00832289457321167,-0.3374164699837621,0.05195182985448281,-0.03576815116937411,-0.9392400109743959,0.03213648254155109,0.1220940010551333,2.449855665218556
1781552625473799424,0.2508223056793213,-0.04861511290073395,0.07279767841100693,0.044605497270822525,0.12241455912590027,-0.0316639319062233,-0.9919738173484802,0.014243155717849731,0.0369587317109108,-0.016677916049957275,-0.3372171796060171,0.052362901590658456,-0.03565408696380443,-0.9392930502761779,0.031669225673284306,0.12278425623532385,2.4502850118566553
1781552625483834624,0.26085734367370605,-0.061062730848789215,0.06048855185508728,0.054463986307382584,0.12307653576135635,-0.031164415180683136,-0.9919077157974243,0.025559328496456146,0.035528428852558136,-0.022405028343200684,-0.3369562428914614,0.0527701441359635,-0.035516855994934614,-0.9393690970704909,0.031169461677466603,0.12344966850447688,2.450848998941381
1781552625493869568,0.2708923816680908,-0.06698772311210632,0.04051683843135834,0.0706525444984436,0.1235494464635849,-0.03060145303606987,-0.9918664693832397,0.0398416668176651,0.02915186993777752,-0.008179306983947754,-0.3366298640425944,0.05310108755865803,-0.035313484139383504,-0.9394750933111297,0.030606231973687493,0.12392428018129249,2.451563887054748
1781552625503904512,0.2809274196624756,-0.04665076732635498,0.030209874734282494,0.07379001379013062,0.1238657534122467,-0.030100420117378235,-0.9918423295021057,0.0439198836684227,0.016962606459856033,0.005514264106750488,-0.33625709287225825,0.05334913437299646,-0.03510979023155161,-0.9396021541147832,0.0301049665955051,0.12424128952113873,2.4523793704646315
1781552625513939712,0.29096245765686035,-0.013783097267150879,0.0178806371986866,0.06934227049350739,0.12409212440252304,-0.02986278012394905,-0.9918212294578552,0.03911588340997696,0.008576769381761551,0.009735047817230225,-0.3359064818091451,0.053509316971392426,-0.03501622227098741,-0.9397220615577716,0.029867220660481645,0.12446863036188943,2.4531334438277166
1781552625523973376,0.3009963035583496,0.019177516922354698,0.004215957596898079,0.0731671005487442,0.12421058863401413,-0.029988963156938553,-0.9918025732040405,0.04142355918884277,0.016225537285208702,0.015972554683685303,-0.3355765142552435,0.053556438125552816,-0.035077183804586645,-0.9398349923844374,0.029993460759211076,0.12458854546598626,2.453822661757146
1781552625534008576,0.3110313415527344,0.059108950197696686,0.008511370047926903,0.07893311232328415,0.12425132095813751,-0.0304799173027277,-0.991782546043396,0.029221579432487488,0.0213093850761652,0.024695754051208496,-0.3352208652664177,0.053506509772369065,-0.035295735737437266,-0.939956519843629,0.030484638261518787,0.12463147583582586,2.4545444617151975
1781552625544043520,0.32106637954711914,0.04523361474275589,0.004054303281009197,0.06382153928279877,0.124313123524189,-0.03110162913799286,-0.991755485534668,0.021270982921123505,0.006824895739555359,0.01932811737060547,-0.3348996336932498,0.0534434807610357,-0.035581644862415995,-0.9400638146572831,0.03110664568566503,0.12469619482479948,2.455183230784115
1781552625554078464,0.3311014175415039,0.019705355167388916,-0.008951377123594284,0.05859854444861412,0.12426358461380005,-0.031502071768045425,-0.9917490482330322,0.02132052183151245,-0.011069949716329575,0.015842676162719727,-0.33462566120070947,0.05336325272775021,-0.035746852448839954,-0.9401596754848873,0.03150728360830304,0.1246478157724223,2.455740702994041
1781552625564113664,0.34113645553588867,-0.001000989112071693,-0.015100881457328796,0.05738867074251175,0.12412041425704956,-0.031656112521886826,-0.991762101650238,0.01566535234451294,-0.026128917932510376,0.009813249111175537,-0.334348343975438,0.05328021593778244,-0.035779621103279896,-0.9402617452350017,0.03166140356865261,0.12450406221183866,2.4563255032195817
1781552625574147584,0.35117030143737793,-0.02667013369500637,-0.023931924253702164,0.040156420320272446,0.12391240894794464,-0.0315893329679966,-0.991790235042572,-0.003581598401069641,-0.032573871314525604,0.008300244808197021,-0.3341202633275294,0.053201607799208545,-0.035699891158059126,-0.9403502793222281,0.03159459095002293,0.12429406894343337,2.456823105400299
1781552625584182528,0.3612053394317627,-0.059791602194309235,-0.02643982321023941,0.035217054188251495,0.12362726032733917,-0.03119080513715744,-0.9918383955955505,-0.020065858960151672,-0.02606016956269741,0.016801774501800537,-0.33394094137921343,0.05314010816170395,-0.03545311436979266,-0.9404268464239257,0.03119586522594264,0.12400500666212232,2.457242531264272
1781552625594217472,0.37124037742614746,-0.07916529476642609,-0.01620050147175789,0.03983044996857643,0.12339100986719131,-0.030537297949194908,-0.991888165473938,-0.030358172953128815,-0.023906059563159943,0.02441990375518799,-0.333747475083228,0.05314484215565529,-0.035093354739680824,-0.9405087148200284,0.030542046296715374,0.12376430467647426,2.4577070517285295
1781552625604252672,0.3812754154205322,-0.07300221174955368,0.013165643438696861,0.03289371356368065,0.12337157130241394,-0.029797563329339027,-0.9919130802154541,-0.04044005274772644,-0.03839396685361862,0.015167474746704102,-0.3335440232370933,0.053266865406529036,-0.034728958803092576,-0.9405875577935681,0.029801975184629785,0.12374193101026497,2.4581904044473912
1781552625614287616,0.391310453414917,-0.052034348249435425,0.016301248222589493,0.02122986689209938,0.1235271543264389,-0.0292283296585083,-0.9919106364250183,-0.030646905303001404,-0.02661884017288685,-0.0064261555671691895,-0.3334004297944941,0.053440936407073134,-0.03447808982743352,-0.9406378534252916,0.029232493682395434,0.1238966872861334,2.458528368761185
1781552625624321536,0.40134429931640625,0.003490964649245143,0.008579946123063564,0.0014883877011016011,0.12365606427192688,-0.028966479003429413,-0.9919022917747498,-0.002714894711971283,0.014165453612804413,-0.024149954319000244,-0.3333302969295612,0.05354829011281339,-0.03437213555696159,-0.9406604034578075,0.02897053119892115,0.12402569440694364,2.4586902254077345
1781552625634356480,0.411379337310791,0.0579555369913578,0.007734925020486116,-0.0178898386657238,0.12372850626707077,-0.029293416067957878,-0.9918836355209351,0.0031788423657417297,0.03168904781341553,-0.03323233127593994,-0.33337896990396615,0.05352619690428625,-0.03454167294018555,-0.9406381803695687,0.029297607074989383,0.12409991812236693,2.458561977658692
1781552625644391424,0.4214143753051758,0.08900773525238037,0.006556476466357708,-0.0302724726498127,0.1238124743103981,-0.030007226392626762,-0.991851806640625,-0.004290379583835602,0.022850852459669113,-0.03961181640625,-0.33351848980478344,0.0534415316249045,-0.03490116926521267,-0.9405802836704837,0.0300117306129735,0.1241872187852962,2.458214000196227
1781552625654426624,0.43144941329956055,0.09524592012166977,0.008712970651686192,-0.04446232691407204,0.12390975654125214,-0.030875343829393387,-0.9918130040168762,-0.010811612010002136,0.006537571549415588,-0.03226536512374878,-0.33372260464639336,0.05333483600193093,-0.03533949471691978,-0.9404976582491337,0.030880250887237125,0.1242886036446444,2.457717634371954
1781552625664461568,0.4414844512939453,0.08281215280294418,0.008561703376471996,-0.051123425364494324,0.12401401996612549,-0.03170180320739746,-0.9917739033699036,-0.008886456489562988,-0.006658788770437241,-0.01332247257232666,-0.3339717409152775,0.05323652349607985,-0.035761846129340746,-0.9403987916024614,0.03170711738516584,0.12439696519989245,2.457127593698378
1781552625674495488,0.45151829719543457,0.08084860444068909,0.0044761477038264275,-0.06631595641374588,0.12409714609384537,-0.03243812918663025,-0.9917396903038025,-0.0014775246381759644,-0.008760593831539154,-0.0029044151306152344,-0.3342709539299249,0.05314116010531735,-0.03614082164318898,-0.940283315565,0.032443822078014856,0.1244837426411048,2.4564376709816655
1781552625684530432,0.46155333518981934,0.07698994874954224,-0.0072180586867034435,-0.06364134699106216,0.12410733848810196,-0.03316350281238556,-0.9917144775390625,0.006050132215023041,-0.012689158320426941,0.00616455078125,-0.33460171734601607,0.05301164915543391,-0.03650397545230317,-0.9401589620973858,0.03316958363285844,0.12449700177957031,2.4556841403235747
1781552625694565632,0.4715883731842041,0.05556827783584595,-0.005147983320057392,-0.06748402118682861,0.12406043708324432,-0.033758826553821564,-0.9917002320289612,0.009743884205818176,-0.027306843549013138,0.003953039646148682,-0.33492748867320526,0.05287689210893172,-0.03679563633220992,-0.940039150715486,0.03376524363624097,0.12445220267701174,2.4549521166254227
1781552625704600576,0.48162341117858887,0.02641625516116619,-0.014477035962045193,-0.060102272778749466,0.12401290237903595,-0.03408938646316528,-0.9916948676109314,0.02192215621471405,-0.025114718824625015,-0.0050855278968811035,-0.3352408976882626,0.05278659885691154,-0.03696133203107141,-0.9399260653019349,0.034095991117494145,0.12440567170870895,2.454264620121815
1781552625714635520,0.49165844917297363,0.023378387093544006,-0.04002340883016586,-0.06746671348810196,0.1237548366189003,-0.03422084078192711,-0.991722583770752,0.0494324192404747,-0.007435653358697891,0.0011219978332519531,-0.33554673639133736,0.052630376389657174,-0.03699667376377288,-0.9398242384624862,0.03422752209114004,0.12414600826073827,2.4536149339037023
1781552625724669440,0.5016922950744629,0.05637308582663536,-0.03700418397784233,-0.08972887694835663,0.12340463697910309,-0.03452625870704651,-0.9917556047439575,0.038933612406253815,0.013408098369836807,0.012202441692352295,-0.33593635088336,0.05239797307148519,-0.037103055436913,-0.9396938628211656,0.03453312249653228,0.12379420536691804,2.4527788318963357
1781552625734704384,0.5117273330688477,0.09844144433736801,-0.028677942231297493,-0.08086454123258591,0.12310817837715149,-0.035209622234106064,-0.991768479347229,0.007430762052536011,0.036247219890356064,0.034447312355041504,-0.3363750851822394,0.052125263609995344,-0.0373996192489507,-0.9395403515908374,0.03521690192250171,0.12349824735004541,2.451810190671838
1781552625744739584,0.5217623710632324,0.14592640101909637,-0.02390129677951336,-0.07950739562511444,0.12285947054624557,-0.03632815182209015,-0.9917589426040649,-0.007457256317138672,0.03771670535206795,0.04342526197433472,-0.3367990309101463,0.05180203297327854,-0.03790875372385294,-0.9393859596145757,0.036336148316722675,0.12325244019882091,2.4508412630672574
1781552625754774528,0.5317974090576172,0.13715341687202454,-0.008038978092372417,-0.0746212974190712,0.12274911999702454,-0.03769827261567116,-0.991721510887146,-0.016547948122024536,0.011376861482858658,0.034232497215270996,-0.3372274764031431,0.05150107658877157,-0.03856032363061197,-0.9392222616792364,0.037707207489256774,0.12314745791166569,2.44983960415439
1781552625764809728,0.541832447052002,0.10129475593566895,0.008187130093574524,-0.05402866750955582,0.12275408208370209,-0.038770709186792374,-0.9916794896125793,-0.007809624075889587,0.0024090148508548737,0.024806320667266846,-0.3375385110334646,0.05130929246465946,-0.039084490235435226,-0.9390992939119329,0.03878042972885369,0.12315754786740825,2.4491031653386695
1781552625774844672,0.5518674850463867,0.08162092417478561,0.018830852583050728,-0.04667088761925697,0.12293417006731033,-0.039623890072107315,-0.9916234612464905,0.00267617404460907,0.0003630295395851135,0.007996201515197754,-0.3378198023952988,0.05123829878788856,-0.03953346283796722,-0.9389831673408107,0.039634264290097164,0.12334330472944692,2.448437478042319
1781552625784878592,0.561901330947876,0.08907005190849304,0.007699105888605118,-0.014842914417386055,0.12306630611419678,-0.040421534329652786,-0.9915748834609985,0.023540139198303223,0.011445093899965286,-0.008486151695251465,-0.33796616165195803,0.051159519819613995,-0.03994062298766812,-0.9389176127984004,0.04043255125046146,0.12348052349610854,2.4480649447873533
1781552625794913536,0.5719363689422607,0.09338223934173584,0.01066160574555397,-0.030971817672252655,0.12314725667238235,-0.04132763296365738,-0.9915274977684021,0.021567098796367645,-0.005318485200405121,-0.0444069504737854,-0.33809625774600693,0.05103875786005346,-0.040389306172981004,-0.9388581557244144,0.04133940641054411,0.12356676736095401,2.4477213806575993
1781552625804948480,0.5819714069366455,0.0957881435751915,0.00571105582639575,-0.03489252179861069,0.12323325872421265,-0.042232971638441086,-0.991478681564331,0.0030789971351623535,-0.005527041852474213,-0.06320881843566895,-0.3382770713484681,0.05091818322937068,-0.040841236232131796,-0.9387800950356455,0.04224553617047812,0.12365821878170949,2.447269480815737
1781552625814983680,0.5920064449310303,0.10656222701072693,-0.013096986338496208,-0.032411787658929825,0.12321880459785461,-0.043154697865247726,-0.9914407730102539,0.0017201602458953857,0.016909580677747726,-0.0673971176147461,-0.3384678427213721,0.050746755219885475,-0.04128416386111587,-0.9387011839299203,0.043168103396666824,0.12364853506185601,2.446799146431599
1781552625825018624,0.602041482925415,0.13655607402324677,0.012165492400527,-0.04139116778969765,0.12324465811252594,-0.04436822980642319,-0.991383969783783,-0.003966711461544037,0.014949284493923187,-0.07625818252563477,-0.3386666367430762,0.05054432724909391,-0.04187214108551726,-0.9386143372136934,0.04438279895439312,0.12368122538823824,2.4462892948134662
1781552625835052544,0.6120753288269043,0.08863355964422226,-0.003629449289292097,-0.040647879242897034,0.12330420315265656,-0.04546387866139412,-0.9913269281387329,-0.03243812173604965,-0.028953231871128082,-0.043371498584747314,-0.338900089696514,0.05037601833220402,-0.04241208889815432,-0.9385148572115208,0.0454795534691847,0.12374742650592682,2.445711996252785
1781552625845087488,0.6221103668212891,0.017829157412052155,-0.008341379463672638,-0.0433264896273613,0.12330462038516998,-0.04594999551773071,-0.9913044571876526,-0.04511858522891998,-0.07827180624008179,-0.014966905117034912,-0.3391066052509595,0.050284293181542816,-0.042652677277136744,-0.93843428177368,0.045966182420106666,0.12375061314647685,2.4452375903765775
1781552625855122688,0.6321454048156738,-0.02529274672269821,-0.0385056734085083,-0.03755808249115944,0.12305916845798492,-0.04585174098610878,-0.9913395047187805,-0.04328622668981552,-0.10788055509328842,-0.003014683723449707,-0.33930453375057684,0.05017606991159361,-0.042574625572608535,-0.9383720416947409,0.04586782216454527,0.12350245394368985,2.444833861891536
1781552625865157632,0.6421804428100586,-0.06697814166545868,-0.010799745097756386,-0.023749325424432755,0.12282402068376541,-0.045308712869882584,-0.9913936257362366,-0.03305656462907791,-0.12322461605072021,-0.015365958213806152,-0.33945986819320734,0.05015031307132182,-0.04228614829173953,-0.938330307472333,0.04532422828499017,0.12326217891654019,2.4445517568399366
1781552625875192576,0.6522154808044434,-0.024598460644483566,0.03109857067465782,0.01238897256553173,0.12294981628656387,-0.044844869524240494,-0.9913991689682007,-0.04512999206781387,-0.1357429027557373,-0.016062378883361816,-0.3394705151905733,0.0502881327750965,-0.04208952228273383,-0.9383278796171978,0.04485991230147355,0.1233864733521569,2.444555853278199
1781552625885226496,0.6622493267059326,-0.014914141967892647,0.0471624955534935,0.05210495740175247,0.12328165024518967,-0.04469751566648483,-0.991364598274231,-0.03485696762800217,-0.15070652961730957,0.014191746711730957,-0.3393169050218554,0.05047679968009198,-0.04206891663383059,-0.938374261482068,0.04471241095342258,0.12372036779075828,2.4448786571420755
1781552625895261440,0.6722843647003174,0.018683500587940216,0.08891034126281738,0.10329996794462204,0.12390633672475815,-0.0447954498231411,-0.9912822842597961,0.0018260851502418518,-0.1777387261390686,0.06278496980667114,-0.33894255254538147,0.050772048813659,-0.042202506813015635,-0.9384876758762751,0.044810444301107484,0.12435106920141276,2.4456413920660944
1781552625905296640,0.6823194026947021,0.1177765280008316,0.12602920830249786,0.19614656269550323,0.12495072185993195,-0.04552054405212402,-0.9911181330680847,0.010257408022880554,-0.23940682411193848,0.09605282545089722,-0.3382497079283361,0.05117384312605036,-0.04268677016877562,-0.938693858976952,0.04553627839903515,0.1254088446624905,2.4470185365014587
1781552625915331584,0.6923544406890869,0.34980788826942444,0.20669583976268768,0.2731931507587433,0.12646326422691345,-0.04819125309586525,-0.9908000230789185,0.03930822014808655,-0.31579190492630005,0.06533920764923096,-0.33715389008075597,0.051487619805670744,-0.044147743886740566,-0.9390033159248568,0.04820992590729356,0.12695109209842853,2.4490901741806534
1781552625925366528,0.7023894786834717,0.2984280586242676,0.26087144017219543,0.40579113364219666,0.12860651314258575,-0.052064910531044006,-0.9903280138969421,0.12252262234687805,-0.3516368567943573,0.007539987564086914,-0.33563520484268045,0.0519215509059657,-0.04626160582493309,-0.9394216853698489,0.052088461951403035,0.1291398212207052,2.451935383038658
1781552625935400448,0.7124233245849609,-0.044394005089998245,0.22911618649959564,0.6986112594604492,0.13091018795967102,-0.05407655984163284,-0.9899182915687561,0.21351118385791779,-0.39296019077301025,-0.015025496482849121,-0.33311474629653137,0.05280080442082551,-0.04746496294739968,-0.9402094477978113,0.05410295059283871,0.13148051057261273,2.4570319182317526
1781552625945435648,0.7224583625793457,-0.2713315486907959,0.12630298733711243,1.0517557859420776,0.1322370320558548,-0.053761642426252365,-0.989759087562561,0.2452348917722702,-0.5955455899238586,-0.10071027278900146,-0.3287948398999304,0.053699605092659086,-0.04729490786488578,-0.9416864687266947,0.05378757518374742,0.1328187055700035,2.4661702340561917
1781552625955470592,0.7324934005737305,-0.4678563177585602,-0.11931011080741882,0.855312168598175,0.1321188062429428,-0.05130705609917641,-0.9899051785469055,0.274833083152771,-0.8456655740737915,-0.3427974581718445,-0.32413928439261575,0.05427496396132229,-0.04584378091560232,-0.943337901904448,0.05132959319375079,0.13268199938184838,2.476241970309341
1781552625965505536,0.7425284385681152,0.18083618581295013,-0.43664783239364624,1.2313406467437744,0.12859031558036804,-0.05057232081890106,-0.9904074668884277,0.39843299984931946,-0.5578108429908752,-0.30704736709594727,-0.3193787924895393,0.05294297719581918,-0.04464642199202176,-0.9450930608770773,0.050593900779891975,0.12911350411583877,2.486550911869138
1781552625975540736,0.7525634765625,1.501065731048584,-0.4084812104701996,1.5849636793136597,0.12331154197454453,-0.060481198132038116,-0.9905232191085815,0.4406227767467499,-0.056889407336711884,-0.33601486682891846,-0.3129032058677003,0.049176361922983504,-0.04816705227481021,-0.9472873770531527,0.06051813257393157,0.12385410726908538,2.499775955733375
1781552625985575424,0.7625982761383057,2.8512842655181885,-0.22723418474197388,1.7646008729934692,0.11912442743778229,-0.08432459831237793,-0.9892920255661011,0.2240152209997177,0.01787257194519043,-0.4339867830276489,-0.30560085636884743,0.04389521114594467,-0.05854222250322871,-0.949344086557836,0.08442485199776767,0.11983684326062537,2.513660660375255
1781552625995609600,0.772632360458374,3.912540912628174,-0.19930894672870636,2.2409698963165283,0.1148398146033287,-0.12036167830228806,-0.9860653281211853,0.1312691867351532,-0.13816797733306885,-0.3191409111022949,-0.2968312184325863,0.03701646807547001,-0.07481379474070798,-0.9512748710342369,0.12065420222636411,0.11594037234696104,2.5296592895928733
1781552626005644544,0.7826673984527588,4.719429969787598,-0.07010328024625778,2.4870314598083496,0.11008845269680023,-0.1658243089914322,-0.9799912571907043,0.14242924749851227,-0.3218618631362915,-0.19990986585617065,-0.2861698615729246,0.029017413336643077,-0.09572026539350983,-0.9529440895774467,0.16659382912384538,0.11186716959653448,2.5487777235479143
1781552626015678464,0.792701244354248,5.517956733703613,0.07969393581151962,2.458582639694214,0.10539481788873672,-0.21847252547740936,-0.9701348543167114,0.09319831430912018,-0.34889501333236694,-0.0440862774848938,-0.2749378628750116,0.02052903168136412,-0.12046210050130042,-0.9536648620766393,0.22024891181709372,0.10821493990635725,2.568245637372107
1781552626025713408,0.8027362823486328,6.233962059020996,0.4170946180820465,2.4511356353759766,0.10164281725883484,-0.2780798077583313,-0.9551650881767273,0.10850122570991516,-0.2362481951713562,0.040293872356414795,-0.26356625811423673,0.012054303132217037,-0.14923856118778062,-0.9529508836205606,0.28179450594298705,0.10601490561491603,2.5868746902963533
1781552626035748352,0.8127710819244385,6.537431240081787,0.9092747569084167,2.5521154403686523,0.09999213367700577,-0.34147247672080994,-0.9345576763153076,0.06872428953647614,-0.13037502765655518,0.06579858064651489,-0.2512795497985264,0.004793657940032963,-0.18082634710728426,-0.9508613675283009,0.3484830999368358,0.10658857377900885,2.606094939549485
1781552626045782272,0.8228051662445068,6.6060357093811035,1.2729402780532837,2.51196026802063,0.10065001994371414,-0.40499845147132874,-0.9087606072425842,-0.04706116020679474,-0.16404756903648376,0.03514915704727173,-0.23817469016902265,-0.0005762708693192325,-0.2135869108653597,-0.9474455837415598,0.41697714319654233,0.11030570214464674,2.625667762884235
1781552626055817472,0.8328402042388916,6.392897605895996,1.5573906898498535,2.4746856689453125,0.10247474908828735,-0.4660605490207672,-0.8787983655929565,-0.07616860419511795,-0.2148171365261078,0.13717544078826904,-0.2246403733989555,-0.004300267617941218,-0.24613479956670528,-0.9428340109316986,0.4848329274664034,0.11608356017193777,2.6450576562926718
1781552626065852416,0.8428752422332764,6.020737171173096,1.7842837572097778,2.473097801208496,0.10471029579639435,-0.5224824547767639,-0.8461961150169373,-0.023625090718269348,-0.19519942998886108,0.20564740896224976,-0.21061042524934814,-0.006436780627178353,-0.2772372968971593,-0.9374120032795884,0.5497598099486113,0.12311650822435102,2.664826170983013
1781552626075887360,0.8529102802276611,5.484736919403076,1.892568826675415,2.5280354022979736,0.1063428670167923,-0.5730543732643127,-0.8125883340835571,0.0109819695353508,-0.19798743724822998,0.1993681788444519,-0.19599746867891515,-0.007308981567325315,-0.30602681417855254,-0.9316002450224211,0.610228084145886,0.13012975838588323,2.685828742444571
1781552626085922304,0.8629450798034668,4.92567253112793,1.969681739807129,2.5828750133514404,0.10645435750484467,-0.6175035834312439,-0.7793310284614563,0.038549914956092834,-0.2144055962562561,0.13621878623962402,-0.18079707839994882,-0.00735936097711701,-0.3320848382771026,-0.9257310738818442,0.6655649588665044,0.1357569138118419,2.708858300397738
1781552626095956224,0.8729791641235352,4.086091041564941,2.1028683185577393,2.584019422531128,0.10541655123233795,-0.6548458337783813,-0.7483744025230408,0.03851960599422455,-0.21177709102630615,0.09827375411987305,-0.1651298520996267,-0.006361120582556807,-0.354643934867264,-0.9202822086988551,0.713978608678538,0.1399399994851755,2.734236704567495
1781552626105991424,0.8830142021179199,3.2692947387695312,2.235814094543457,2.364401340484619,0.10480621457099915,-0.6846089363098145,-0.7213364243507385,0.021643370389938354,-0.20172828435897827,0.08846288919448853,-0.14961171165509451,-0.0037570671326741705,-0.37325284386426993,-0.9155787604040561,0.7540670844492843,0.1442848462124822,2.760425087435765
1781552626116026368,0.8930492401123047,2.5894949436187744,2.347891092300415,2.199347972869873,0.10521382838487625,-0.7077279686927795,-0.698606550693512,0.11376505345106125,-0.18974816799163818,0.13229191303253174,-0.13479890749765785,0.0003054096176610031,-0.3881966341347176,-0.9116646392906101,0.786277016616654,0.14948184197650777,2.7859093144128573
1781552626126061312,0.9030842781066895,2.1890625953674316,2.468437433242798,2.0556130409240723,0.10653098672628403,-0.7264136672019958,-0.6789509057998657,0.22569862008094788,-0.04116445779800415,0.11835825443267822,-0.12032536285441943,0.005572185382976582,-0.4006163857452671,-0.9082936377380956,0.8130891486142474,0.15563634130143003,2.811061948248467
1781552626136096256,0.9131190776824951,2.025895118713379,2.518724203109741,1.8597731590270996,0.10888749361038208,-0.7426502108573914,-0.6607677936553955,0.2613975405693054,0.14255261421203613,0.09626895189285278,-0.1063929522873131,0.011761308075601065,-0.41167676634190653,-0.9050217490541,0.8370191582980456,0.16332153336559654,2.834776994885467
1781552626146130432,0.9231531620025635,1.7735668420791626,2.4517440795898438,1.6081899404525757,0.11212746053934097,-0.7571381330490112,-0.6435598134994507,0.2920931279659271,0.17086493968963623,0.014180541038513184,-0.09345942995157269,0.018461471501131997,-0.4217573571946603,-0.9016901407894724,0.858920942629574,0.17249849782177012,2.855877890269894
1781552626156165376,0.9331881999969482,1.3556100130081177,2.3108572959899902,1.357327938079834,0.11605429649353027,-0.7688546180725098,-0.6288036108016968,0.3444559574127197,0.20620203018188477,-0.09458506107330322,-0.08184882929970282,0.025399492645626184,-0.4300617092567565,-0.8987227335595792,0.8770479674399597,0.18250984347570934,2.874169986693588
1781552626166200320,0.943223237991333,1.1934075355529785,1.8631707429885864,1.1310255527496338,0.11957070976495743,-0.7782653570175171,-0.6164461970329285,0.4098024368286133,0.34807437658309937,-0.29264193773269653,-0.07176108945291566,0.03173836826206848,-0.43677177866256955,-0.896143639969644,0.8918985927234327,0.19158869964945408,2.8899690789642474
1781552626176235520,0.9532582759857178,0.9477429986000061,1.5704106092453003,1.1443849802017212,0.12127193808555603,-0.7850614190101624,-0.6074303984642029,0.44400516152381897,0.5704007744789124,-0.5755377411842346,-0.06304192788899624,0.03667939014309678,-0.44151943797112375,-0.8942823492487656,0.9027952485797855,0.19705654936418993,2.9050704922391155
1781552626186270208,0.9632930755615234,-0.12872326374053955,1.3336188793182373,0.04427899420261383,0.12436380982398987,-0.788974940776825,-0.6017077565193176,0.35251912474632263,0.36786288022994995,-0.3494640588760376,-0.056636201566067836,0.04144705486410431,-0.44432899990121144,-0.8931104552506124,0.9091388880764505,0.20381484942602493,2.915065053563131
1781552626196304384,0.9733271598815918,0.007082503754645586,1.122393250465393,-0.6579590439796448,0.135461688041687,-0.786923348903656,-0.6019982099533081,0.2203885167837143,1.0161256790161133,-0.2614356279373169,-0.05589897983853932,0.04807205061164667,-0.443497443706986,-0.8932381975590684,0.9058069776673124,0.22133357362179407,2.908548759080703
1781552626206339328,0.9833621978759766,1.4021695852279663,1.010326623916626,-0.48996150493621826,0.14601878821849823,-0.7907131910324097,-0.594517707824707,0.2868577837944031,2.0533323287963867,-0.42422008514404297,-0.056205657024926296,0.05373292843304213,-0.4470502469451057,-0.8911228396477896,0.9119730969418496,0.2408415287854704,2.897055562325429
1781552626216374272,0.9933972358703613,2.5201592445373535,0.972694993019104,-0.917292594909668,0.1575016975402832,-0.8013080358505249,-0.5771469473838806,0.0748286098241806,1.883842945098877,-0.5544295310974121,-0.05765117905859369,0.05920355761442011,-0.4559840555480816,-0.8861432385085936,0.9294785068708216,0.2664100637052646,2.8774959148713832
1781552626226409472,1.003432273864746,2.7422213554382324,0.9219852089881897,-0.8770748972892761,0.1704995036125183,-0.8150444030761719,-0.5537441372871399,-0.11657494306564331,1.0792350769042969,-0.4463016390800476,-0.06043573657722749,0.0647901786255088,-0.4678997430561959,-0.8793290792172324,0.9528058498251818,0.29869143945668186,2.8493655311327033
1781552626236444160,1.0134670734405518,2.059385299682617,0.735905647277832,-0.7046655416488647,0.18151888251304626,-0.8270505666732788,-0.532013475894928,-0.14444002509117126,0.3064969778060913,-0.020888686180114746,-0.06271429898377033,0.06957662541009998,-0.4786985939938773,-0.8729683669364412,0.9738403284615899,0.3288068205518822,2.822939734786915
1781552626246478336,1.0235011577606201,0.7017377614974976,0.6851109266281128,-0.41730353236198425,0.18995943665504456,-0.8332897424697876,-0.5191758275032043,-0.25496190786361694,-0.3524706959724426,0.12743699550628662,-0.06404974032097734,0.07355187645494055,-0.48477026274757384,-0.8691866616890601,0.9850319166743946,0.3507569334862334,2.804871475972296
1781552626256513280,1.0335361957550049,0.01857830584049225,0.7412682771682739,0.012343965470790863,0.1953495740890503,-0.8344264626502991,-0.5153359770774841,-0.3964451551437378,-0.486237108707428,0.12306296825408936,-0.06332090053365726,0.07704771214647319,-0.48620536711893736,-0.8681351157995739,0.9870912533600262,0.36233607715136884,2.7995268813971865
1781552626266548480,1.0435712337493896,0.14807690680027008,0.8136892318725586,0.3865535259246826,0.19764383137226105,-0.8350682258605957,-0.5134181380271912,-0.43163734674453735,-0.2892451286315918,-0.0023595094680786133,-0.06052977855319587,0.07992848119613538,-0.48672618790399264,-0.8677818529069112,0.9882567403369845,0.3674712766721999,2.8027627687912244
1781552626276583424,1.0536062717437744,0.3004531264305115,0.7484092712402344,0.6304700374603271,0.1974281519651413,-0.8374084234237671,-0.5096755623817444,-0.40780109167099,-0.15821224451065063,-0.24264377355575562,-0.05647842875331314,0.08205076496902838,-0.48829284785546495,-0.8669762650644881,0.9925243934661175,0.3695629742377057,2.8097627146738584
1781552626286618112,1.06364107131958,-0.1306857466697693,0.5786583423614502,0.94572514295578,0.19422820210456848,-0.8396212458610535,-0.5072590112686157,-0.3394460678100586,-0.18546432256698608,-0.37857478857040405,-0.05148079750106663,0.08299300131417375,-0.48936965493076684,-0.8665906573133607,0.9965855537273162,0.36567645575997654,2.8223875396651206
1781552626296652288,1.0736751556396484,-1.1026407480239868,0.35531726479530334,1.151787519454956,0.18770423531532288,-0.8385735154151917,-0.5114310383796692,-0.2527371942996979,-0.26231759786605835,-0.2859780788421631,-0.045471950007819985,0.08258391911131488,-0.4873031821998416,-0.8681289481136529,0.9946594632011653,0.3517541918464986,2.8445852087192414
1781552626306687232,1.0837101936340332,-2.1886708736419678,0.1525939702987671,1.2595880031585693,0.17882034182548523,-0.8322179317474365,-0.5248205661773682,-0.20265457034111023,-0.257610559463501,-0.11740660667419434,-0.03890049675029746,0.08106543628706991,-0.4806434331358462,-0.8722941235568443,0.9830959706427258,0.32838969755159986,2.8755137358292413
1781552626316722432,1.093745231628418,-3.015178680419922,0.020790938287973404,1.3223488330841064,0.16856583952903748,-0.8203869462013245,-0.5463980436325073,-0.18893632292747498,-0.13031190633773804,-0.027393460273742676,-0.03199676334615022,0.07881215970690879,-0.4696696798254483,-0.8787350526724136,0.9620874092507536,0.2992399925463763,2.911763023026077
1781552626326757376,1.1037802696228027,-3.4482157230377197,-0.04525225982069969,1.4042389392852783,0.1573488563299179,-0.8043068647384644,-0.5730024576187134,-0.1946413367986679,-0.011260151863098145,0.01691114902496338,-0.0247255739338822,0.07603515444597232,-0.4557602774559997,-0.8865043171320902,0.9345080998675662,0.26799816092629053,2.950009572107007
1781552626336792320,1.1138150691986084,-3.629392147064209,-0.05234479159116745,1.4475147724151611,0.14563830196857452,-0.7855556011199951,-0.6014082431793213,-0.17734608054161072,0.024126768112182617,0.07575821876525879,-0.01712223271490507,0.07296443369794679,-0.4404225955051166,-0.8946569238532343,0.9035935296568952,0.23758835453477878,2.9876093452915704
1781552626346827264,1.1238501071929932,-3.736415147781372,-0.04297152906656265,1.43220055103302,0.13416844606399536,-0.7647754549980164,-0.6301724910736084,-0.14732152223587036,0.03734320402145386,0.1277158260345459,-0.009411404105388496,0.06988581615176157,-0.4242991008766401,-0.9027722281172282,0.8706927265330671,0.2097752526833243,3.022894060522676
1781552626356861440,1.1338841915130615,-3.532867670059204,-0.05323095619678497,1.4350155591964722,0.12300678342580795,-0.7429822087287903,-0.657910943031311,-0.09084125608205795,0.08792239427566528,0.17526018619537354,-0.0017278851747967463,0.06677679416314804,-0.4081487292667049,-0.9104683253694384,0.8375150559103567,0.1848317447231303,3.055343345270475
1781552626366896384,1.1439192295074463,-3.1618294715881348,-0.004672209732234478,1.387442708015442,0.11236532777547836,-0.7221226692199707,-0.6825780868530273,-0.021651826798915863,0.1501774787902832,0.17751216888427734,0.0057974283012558235,0.06374022451527683,-0.3932532648815356,-0.9171997885866813,0.8068659258717027,0.1631556943905265,3.0844651716495335
1781552626376931328,1.153954267501831,-2.8574252128601074,0.09760808944702148,1.3108667135238647,0.10301467031240463,-0.7027906179428101,-0.7038986682891846,0.0015843212604522705,0.13238656520843506,0.20968174934387207,0.013045442369938324,0.061178749722269804,-0.3798786871958241,-0.9229188469072708,0.7793126512988772,0.1453171141964207,3.110098361212596
1781552626386966528,1.1639893054962158,-3.2342655658721924,0.1661277562379837,1.317731499671936,0.09493827074766159,-0.6825886368751526,-0.7246098518371582,0.003908172249794006,-0.05758470296859741,0.2276768684387207,0.02028327697768921,0.05913461344358334,-0.36633067814749787,-0.9283821763419173,0.7512989773780857,0.13027776500526828,3.1338416733980607
1781552626397001216,1.1740241050720215,-4.153045654296875,0.09897402673959732,1.4692161083221436,0.0866476371884346,-0.6567479372024536,-0.7491157054901123,0.0402139276266098,-0.3200129270553589,0.2305305004119873,0.02807581768747646,0.05684767914322996,-0.3495861687508731,-0.9347564799263267,0.7164982027165758,0.11515483841493823,-3.1246954088937944
1781552626407035392,1.1840581893920898,-5.13008451461792,-0.04316314309835434,1.6744022369384766,0.07676468789577484,-0.6222769021987915,-0.7790241837501526,0.12263716012239456,-0.5826486349105835,0.2712269425392151,0.03683360980908647,0.05354916923222558,-0.32805545775293526,-0.9424200480763207,0.6716480225555088,0.09822244552297132,-3.097772579831312
1781552626417070336,1.1940932273864746,-5.5934929847717285,-0.20751094818115234,1.811189889907837,0.06524103879928589,-0.5802674293518066,-0.8118086457252502,0.1852014660835266,-0.7116332054138184,0.24166405200958252,0.046335733070141195,0.04907210339009146,-0.3027995950581493,-0.9506615393502705,0.6190570333351504,0.0801926989310824,-3.0698472968817776
1781552626427105536,1.2041282653808594,-5.4184980392456055,-0.29091450572013855,1.8522369861602783,0.052814893424510956,-0.5355355143547058,-0.8428596258163452,0.25010257959365845,-0.5498831868171692,0.21392285823822021,0.05602427542538745,0.04374407027543019,-0.27686938768619995,-0.9582750862597356,0.5651417516011631,0.06257973331076232,-3.0429730928257195
1781552626437140480,1.2141633033752441,-5.103647232055664,-0.20842041075229645,1.9237183332443237,0.04090623930096626,-0.49097463488578796,-0.870212972164154,0.32228344678878784,-0.16779306530952454,0.31117671728134155,0.06590823353793263,0.038404174512153645,-0.2518305706962735,-0.9647604122241028,0.5132081589962105,0.04697258028816882,-3.0175005028216306
1781552626447175168,1.2241981029510498,-4.562013626098633,-0.03555808588862419,1.8930405378341675,0.030813295394182205,-0.4491180181503296,-0.8929409384727478,0.3053683340549469,0.03870239853858948,0.2918057441711426,0.07590689236539833,0.03379767747393884,-0.22888258956707944,-0.9699013722669669,0.465777966320982,0.03449396438053431,-2.9935685785382598
1781552626457209344,1.2342321872711182,-4.6835713386535645,0.14019523561000824,1.9054991006851196,0.02316710725426674,-0.4081616699695587,-0.9126156568527222,0.16738465428352356,0.028706103563308716,0.30034148693084717,0.08584226770714519,0.03011865688443373,-0.20684544472991015,-0.9741349412593372,0.42043943609839535,0.02537994317625796,-2.971219308522562
1781552626467244288,1.244267225265503,-4.874577045440674,0.13623084127902985,2.056990385055542,0.016773169860243797,-0.36409586668014526,-0.931210458278656,0.09954457730054855,-0.07192400097846985,0.4660767912864685,0.09648639697337473,0.026684217017855564,-0.1835285727309175,-0.9779037293389276,0.3726618670321689,0.018010274641655118,-2.9482915380985752
1781552626477279488,1.2543022632598877,-5.02427864074707,0.1436472237110138,1.7842483520507812,0.011424132622778416,-0.31799009442329407,-0.9480252265930176,0.12830059230327606,-0.18133851885795593,0.4379086494445801,0.10671410637294342,0.023173537246520343,-0.15953176244962494,-0.981134451763165,0.32360879749658766,0.01204986909828228,-2.9268793105511
1781552626487314432,1.2643373012542725,-5.282553672790527,-0.04264942184090614,1.6518487930297852,0.00704902783036232,-0.26829957962036133,-0.9633097648620605,0.24403434991836548,-0.007182598114013672,0.35558271408081055,0.11572027957801774,0.019346906883419498,-0.13405531701111312,-0.9840039397221159,0.2716274576775536,0.007317378378285066,-2.908465135002035
1781552626497349376,1.2743721008300781,-4.839275360107422,-0.20054185390472412,1.4593170881271362,0.0019788017962127924,-0.21887990832328796,-0.9757497906684875,0.4324541687965393,0.21546193957328796,0.30727750062942505,0.12380743369965883,0.014703484669507659,-0.10912793641311976,-0.9861778295676138,0.22066639151897738,0.002027977843798297,-2.8920387106361476
1781552626507383296,1.2844061851501465,-3.9271602630615234,-0.2099052518606186,1.2685370445251465,-0.00276937079615891,-0.17564646899700165,-0.9844493865966797,0.3956526815891266,0.31967419385910034,0.13471800088882446,0.13071847159848987,0.010192001507688668,-0.08758662289048379,-0.9874904418752021,0.17656241055942618,-0.00281310899906675,-2.878125162495958
1781552626517418496,1.2944412231445312,-3.227717399597168,0.016995668411254883,1.0623202323913574,-0.005614625755697489,-0.14068754017353058,-0.9900380969047546,0.28732240200042725,0.3535171449184418,-0.13679289817810059,0.13662153196125756,0.006870773680245844,-0.07024051090935123,-0.9881060877502638,0.14115583160683698,-0.005671060003814086,-2.8664018878182267
1781552626527453440,1.304476261138916,-2.9906270503997803,0.010460537858307362,0.9940900206565857,-0.006543118041008711,-0.10965432971715927,-0.993948221206665,0.1825685054063797,0.28931131958961487,-0.054620444774627686,0.14174083898876225,0.00455149595213558,-0.05481934793529301,-0.9883742375654208,0.1098752743352632,-0.006582861399927272,-2.8563567969771926
1781552626537488384,1.3145112991333008,-3.13295841217041,-0.06783147156238556,0.8905937671661377,-0.007758057676255703,-0.07928438484668732,-0.9968218207359314,0.13498583436012268,-0.007080353796482086,0.03179502487182617,0.14653554797271096,0.001978093576391261,-0.039814096117524185,-0.9884019432296536,0.07936768161823958,-0.007782635463860416,-2.846917829748782
1781552626547523328,1.3245460987091064,-3.2620632648468018,-0.10200488567352295,0.7862380146980286,-0.009114332497119904,-0.04700333997607231,-0.9988531470298767,0.0763903334736824,-0.11246626079082489,-0.011919558048248291,0.15060171756254845,-0.00096502889713393,-0.0239268432039335,-0.9883044394059493,0.04702066545307406,-0.009124543589584573,-2.838936875351206
1781552626557558272,1.3345811367034912,-3.4710512161254883,-0.1247006207704544,0.803607165813446,-0.01048190612345934,-0.013375128619372845,-0.9998555779457092,0.06626804172992706,0.004814948886632919,-0.087516188621521,0.1544992567285326,-0.004144908381132205,-0.007417280298025489,-0.9879564162447704,0.013375527615500088,-0.010483035949671727,-2.8312700893633895
1781552626567592448,1.3446152210235596,-3.9223406314849854,-0.19672633707523346,0.857624888420105,-0.011993011459708214,0.023841492831707,-0.9996438026428223,0.06686361879110336,0.00031317025423049927,-0.08321142196655273,0.15846195945299718,-0.007810576007576175,0.010820763137180781,-0.987274848844597,-0.023843752167247597,-0.011996709565400322,-2.823441587811994
1781552626577627392,1.3546502590179443,-3.8125452995300293,-0.22865882515907288,0.8759570121765137,-0.013779766857624054,0.06304416805505753,-0.9979156255722046,0.14369310438632965,-0.08913669735193253,-0.12302553653717041,0.16264777175008,-0.011933933080633246,0.029996327357090305,-0.9861559719085806,-0.0630860070525893,-0.013807672085263274,-2.815109317702183
1781552626587662336,1.364685297012329,-3.3853063583374023,-0.2277863770723343,0.7869552373886108,-0.01538360770791769,0.09948449581861496,-0.9949201941490173,0.21193206310272217,0.07348913699388504,-0.15095382928848267,0.16650330423091383,-0.0158971448367247,0.0478245407308347,-0.9847521795798472,-0.09964933334196142,-0.015460920726185136,-2.8073691779048393
1781552626597697280,1.3747200965881348,-2.7971153259277344,-0.07531122863292694,0.8235702514648438,-0.015927599743008614,0.13022123277187347,-0.9913570284843445,0.20390062034130096,0.30708038806915283,-0.10889321565628052,0.17024459272269374,-0.018996887006550618,0.0629333664568973,-0.9832066164388288,-0.13059211564754541,-0.016065079222122323,-2.799738314153092
1781552626607732224,1.3847551345825195,-2.7629380226135254,0.024081939831376076,0.7450642585754395,-0.015063733793795109,0.15742553770542145,-0.9874159693717957,0.027820082381367683,0.20599304139614105,-0.08118754625320435,0.17385004146135508,-0.021210747954941423,0.07643377670221185,-0.9815722733545348,-0.1580831320538359,-0.015254528757486521,-2.792209006538237
1781552626617766400,1.394789218902588,-3.247628688812256,0.07605472207069397,0.7824438214302063,-0.013290141709148884,0.18726514279842377,-0.9822195172309875,-0.06633022427558899,0.001959100365638733,0.08277493715286255,0.17718371504337155,-0.023307222175348905,0.09136205395029498,-0.9796507962964517,-0.18837728928642894,-0.013529898699729558,-2.785011121614501
1781552626627801344,1.4048242568969727,-3.521313190460205,-0.06149248406291008,0.8930390477180481,-0.011315357871353626,0.2207762449979782,-0.9752588272094727,0.02166081592440605,-0.10139147937297821,0.24181461334228516,0.18094073555310028,-0.025821736014123717,0.10818417903023751,-0.9771846413407121,-0.22261028190916005,-0.011601894426603854,-2.776706082029411
1781552626637836544,1.4148592948913574,-3.4431936740875244,-0.19652101397514343,0.6225356459617615,-0.010694197379052639,0.2550434172153473,-0.9668704867362976,0.06788413971662521,-0.1810688078403473,0.08465307950973511,0.18432001770322234,-0.029198702052011156,0.12534833511278085,-0.974403101820251,-0.2578926117349459,-0.011060179581223364,-2.769120813655904
1781552626647871232,1.424894094467163,-2.963078260421753,-0.5316411852836609,0.3193012475967407,-0.01287219487130642,0.2861669361591339,-0.9580932855606079,0.02961108461022377,0.02613469958305359,-0.2401946783065796,0.1863951444206809,-0.033629001818176976,0.14079217733616634,-0.971752771275476,-0.2902240811379198,-0.013434412359843464,-2.764532912965973
1781552626657906176,1.4349291324615479,-2.443732976913452,-0.4271077513694763,0.11935216933488846,-0.017322877421975136,0.31211555004119873,-0.9498862028121948,0.06157336384057999,0.5938445329666138,-0.4728890657424927,0.187192513793428,-0.038576601386154506,0.15352116652963493,-0.9694853956999486,-0.31741902185813275,-0.018234770879511166,-2.763036870595495
1781552626667940352,1.4449632167816162,-1.4693045616149902,-0.1417713463306427,0.11661524325609207,-0.01946701668202877,0.33105117082595825,-0.9434120059013367,-0.09944472461938858,0.8807713389396667,-0.35059434175491333,0.18767190490870758,-0.04166262675643949,0.16296696931678095,-0.9677217362641765,-0.3374173380643709,-0.020631764199420397,-2.761999201152281
1781552626677975296,1.454998254776001,-0.6605187058448792,0.07025303691625595,0.06983122229576111,-0.019529566168785095,0.34078434109687805,-0.9399386644363403,-0.3102433681488037,0.6179101467132568,-0.16284453868865967,0.1878472666750258,-0.04273144819125427,0.1679425640024363,-0.96678995485709,-0.34775104936674295,-0.02077450181248478,-2.761424222461546
1781552626688010496,1.4650332927703857,-0.07005808502435684,0.25995850563049316,0.3344399929046631,-0.017369838431477547,0.34418901801109314,-0.9387397170066833,-0.2618965208530426,0.5072513818740845,-0.05916982889175415,0.1885445011323707,-0.042130557783726805,0.16986809434437203,-0.9663440672542061,-0.3513748934789653,-0.018501249194875082,-2.759496352593354
1781552626698045184,1.4750680923461914,-0.0958782285451889,0.4650915563106537,0.4291883409023285,-0.012433241121470928,0.3444223701953888,-0.9387324452400208,-0.2179134339094162,0.14219564199447632,-0.07664835453033447,0.19021449287849232,-0.03998738149066679,0.1703959574002053,-0.9660147757699398,-0.3516234548959238,-0.013243938118554982,-2.7551070000426385
1781552626708080384,1.4851031303405762,-0.7227048277854919,0.31602591276168823,0.41853728890419006,-0.007157903630286455,0.34844139218330383,-0.9373032450675964,-0.17744292318820953,-0.34447410702705383,0.18194741010665894,0.19178223877452233,-0.038060456782595016,0.17291554016224256,-0.9653347448379002,-0.3559077781576201,-0.007636551800082319,-2.7507349846487594
1781552626718114304,1.4951372146606445,-0.9895008206367493,0.17324772477149963,0.42337945103645325,-0.003463294357061386,0.3565896451473236,-0.9342547059059143,-0.004700155928730965,-0.3888009488582611,0.2677660584449768,0.19347836611538996,-0.037395131230278586,0.17740985347536348,-0.9642061561245062,-0.3646150140807002,-0.003706996033011088,-2.746214370359608
1781552626728149504,1.5051722526550293,-1.190651535987854,0.19999438524246216,0.43191033601760864,-0.000207451987080276,0.3668544590473175,-0.9302783012390137,0.04213860630989075,-0.1462886929512024,0.18485593795776367,0.19512447246049677,-0.03718739749358044,0.18296976954585834,-0.96284247254284,-0.3756254820945952,-0.00022299990690534787,-2.7417415096680533
1781552626738184448,1.515207290649414,-1.250102162361145,0.07369410246610641,0.5096799731254578,0.0028997897170484066,0.3782545030117035,-0.9256970882415771,0.07810912281274796,-0.02527293562889099,0.10356879234313965,0.197080338290968,-0.03726395067623484,0.18911066151429703,-0.9612533738411915,-0.3879099790271759,0.0031325367124520743,-2.73653350239838
1781552626748219136,1.5252420902252197,-1.0907468795776367,-0.007017788477241993,0.325106143951416,0.0048668114468455315,0.3891715407371521,-0.9211524724960327,0.1888130009174347,-0.1426200270652771,-0.09303820133209229,0.19889017041931858,-0.037858382343153196,0.1949115643158949,-0.959697329144768,-0.39973205605771617,0.005283345186247903,-2.731822816043685
1781552626758254336,1.5352771282196045,-0.8758317828178406,-0.12487185746431351,0.16527599096298218,0.005264226347208023,0.3982706367969513,-0.9172528386116028,0.22732549905776978,-0.1663217842578888,0.03503549098968506,0.1999029668631352,-0.038894119893602856,0.19965173133407793,-0.958470337281574,-0.40963071784776367,0.005739059351106282,-2.7291665321204386
1781552626768289280,1.5453121662139893,-0.37766358256340027,-0.25594863295555115,-0.035358309745788574,0.003683660179376602,0.40432867407798767,-0.9146063327789307,0.1588987410068512,-0.04455694556236267,0.10515809059143066,0.2003090367070536,-0.040458896924948,0.2026324411579546,-0.9576948954438153,-0.41624471244909067,0.00402756899503058,-2.728371913653961
1781552626778323456,1.5553462505340576,0.26557955145835876,-0.18130290508270264,-0.11795465648174286,0.0011966641759499907,0.4047934114933014,-0.9144073724746704,0.052560050040483475,0.1809457242488861,-0.09258115291595459,0.2000971181664288,-0.041711065269096716,0.2026240314336894,-0.9576871843862291,-0.4167528854412866,0.0013086765893615248,-2.7293664874456143
1781552626788358400,1.5653812885284424,0.91846764087677,0.02459087036550045,-0.16654455661773682,-3.239577199565247e-05,0.39937543869018555,-0.9167874455451965,0.004777877125889063,0.41906023025512695,-0.34973782300949097,0.19966909334551183,-0.0416185875474225,0.19968516078851248,-0.9583975633416077,-0.41083549033377087,-3.533618572141712e-05,-2.7308033283660595
1781552626798393344,1.575416088104248,1.3658565282821655,0.09385675936937332,-0.278122216463089,-0.0003031035594176501,0.3885959982872009,-0.9214082360267639,-0.022966545075178146,0.3525843918323517,-0.4081968665122986,0.1987429849044465,-0.04034625811544955,0.19408265227773802,-0.95979451920314,-0.39910735132377184,-0.00032895685339643987,-2.7332939899769637
1781552626808428288,1.5854511260986328,1.4361964464187622,0.10163585841655731,-0.36181363463401794,-0.0006338302628137171,0.37538719177246094,-0.9268679022789001,-0.026481034234166145,0.16790199279785156,-0.22387367486953735,0.19737541562518485,-0.03876842017417477,0.18725135496801162,-0.9614972441232078,-0.3848144788885752,-0.0006838409248173411,-2.736792800475113
1781552626818463232,1.5954861640930176,1.3128087520599365,0.17463882267475128,-0.34952741861343384,-0.0006959452875889838,0.36256054043769836,-0.9319599866867065,-0.03796983137726784,0.026385992765426636,-0.09867966175079346,0.1957875062537389,-0.037089340091337616,0.18067761625137546,-0.9631444633981425,-0.37101391897667607,-0.0007467543429137631,-2.7406389861276788
1781552626828497408,1.605520248413086,1.207493782043457,0.18889765441417694,-0.39992189407348633,-0.00024232262512668967,0.35072770714759827,-0.9364774823188782,-0.02398863062262535,-0.022511154413223267,-0.06741350889205933,0.1940585583639404,-0.035267887070209544,0.1746924381522678,-0.9646657865172944,-0.35834805916972706,-0.0002587596977273339,-2.744605429541489
1781552626838532352,1.6155552864074707,1.0045497417449951,0.17957539856433868,-0.39423710107803345,0.00011256530706305057,0.3402675688266754,-0.9403286576271057,0.008859608322381973,0.026324838399887085,-0.07663911581039429,0.1921311559672132,-0.03363721406283499,0.16942316701485396,-0.9660486808872543,-0.3472014298378979,0.00011970846873854905,-2.7489281339930574
1781552626848567296,1.6255900859832764,0.8113608956336975,0.2316013127565384,-0.3781720995903015,0.0007338829454965889,0.33168885111808777,-0.9433885812759399,0.006239385809749365,0.07474425435066223,-0.08180367946624756,0.1902398548970701,-0.03210403652309491,0.1651516074443007,-0.9672140867529015,-0.33809321533409215,0.0007779220843199294,-2.7530411389582685
1781552626858602240,1.6356251239776611,0.6853302717208862,0.2463293969631195,-0.2760888934135437,0.001960029359906912,0.32461461424827576,-0.9458443522453308,-0.04230426996946335,0.03401270508766174,-0.03679114580154419,0.18853654950679063,-0.030477289103979305,0.1617064304661571,-0.9681818375926107,-0.33060425905149354,0.0020722506427937673,-2.756595640007942
1781552626868637440,1.645660161972046,0.4121599495410919,0.22645501792430878,-0.11414100974798203,0.0035398188047111034,0.3192731738090515,-0.9476560950279236,-0.07705666124820709,-0.044233500957489014,0.038903653621673584,0.1874771528357414,-0.028971668022047047,0.1591621222364032,-0.9688552303320599,-0.324962407283549,0.0037353237059859377,-2.7586974336597954
1781552626878672384,1.6556951999664307,0.0752921849489212,0.24226127564907074,0.025531938299536705,0.005646275356411934,0.31701695919036865,-0.9484030604362488,-0.07473807036876678,-0.10670506954193115,0.03505772352218628,0.18713120268700567,-0.027638982469474865,0.15822312636111632,-0.9691147781184279,-0.3225825660738492,0.005953384879448812,-2.7591292292616765
1781552626888706560,1.665729284286499,-0.12227495014667511,0.18114252388477325,0.09360526502132416,0.007945947349071503,0.3173254728317261,-0.9482833743095398,-0.0441703125834465,-0.15364447236061096,0.09319615364074707,0.18725022120271653,-0.026546013518452663,0.15859889142682856,-0.9690609082610551,-0.3229078545795683,0.00837909963243158,-2.7584756438315576
1781552626898741248,1.6757640838623047,-0.15055319666862488,0.05592455714941025,0.1304575651884079,0.009435100480914116,0.3186838924884796,-0.9478141069412231,0.01497895922511816,-0.11967876553535461,0.16541969776153564,0.18769365532741064,-0.02601568257697491,0.15942439747773512,-0.9688539879013156,-0.32434065069659834,0.009954260699714862,-2.7572498305325155
1781552626908776192,1.6857991218566895,0.057177893817424774,-0.04005257040262222,0.08181758224964142,0.009881692938506603,0.3192445635795593,-0.9476208686828613,0.08893422782421112,0.010574162006378174,0.11969423294067383,0.18822531213504456,-0.025938057143651345,0.15973977469674666,-0.9687010166487927,-0.3249322292254616,0.010427519791718434,-2.75605245625293
1781552626918811392,1.6958341598510742,0.4763477146625519,0.004237528890371323,0.07072152197360992,0.009850512258708477,0.31698569655418396,-0.9483791589736938,0.13728998601436615,0.11622655391693115,0.08587616682052612,0.18859477056004909,-0.025784726416500238,0.15857353916466074,-0.9688248641447433,-0.3225495978895374,0.010386308059390151,-2.7553848923395616
1781552626928846336,1.705869197845459,0.7864465117454529,0.01101926900446415,0.03917344659566879,0.01022436935454607,0.3105723261833191,-0.9504947662353516,0.1139669120311737,0.07524615526199341,0.08312416076660156,0.18902884518641802,-0.025017646289119965,0.15532783041586282,-0.9692860514218504,-0.3157950589666275,0.010756477248242797,-2.754677483310401
1781552626938880512,1.7159032821655273,0.9870312809944153,-0.0016344748437404633,-0.05338844284415245,0.010181748308241367,0.30233702063560486,-0.9531466960906982,0.08819166570901871,0.03904786705970764,0.019583463668823242,0.18903236067378418,-0.024204790633927095,0.15113165073113055,-0.9699690767353129,-0.30714347707961415,0.010681840759748724,-2.7549942962651737
1781552626948915200,1.725938081741333,1.2610470056533813,0.051488664001226425,-0.09684058278799057,0.010212880559265614,0.2914533317089081,-0.9565305113792419,0.05347730219364166,-0.02460765838623047,0.0029935836791992188,0.1888215354090293,-0.02305978218625907,0.14561244237609225,-0.9708818724319028,-0.2957457750427405,0.010676598956131147,-2.755828873026116
1781552626958950400,1.7359731197357178,1.3392773866653442,0.1478816568851471,-0.13167952001094818,0.010761694051325321,0.2787962853908539,-0.9602899551391602,-0.016834691166877747,-0.14325246214866638,0.010796546936035156,0.18828393226294757,-0.021442231223498115,0.13926681933749405,-0.971953774360012,-0.2825404595550518,0.011206243423091882,-2.75730502574008
1781552626968985344,1.7460081577301025,0.9887913465499878,0.1741657257080078,-0.13164621591567993,0.012154866941273212,0.26735925674438477,-0.9635202288627625,-0.006310749799013138,-0.09223413467407227,0.03694558143615723,0.1876649187737857,-0.01953045151223838,0.1336354458981986,-0.972903865828859,-0.2706514670708195,0.01261439168419251,-2.7587725596366606
1781552626979020288,1.7560431957244873,0.8389198184013367,0.014582311734557152,-0.16137215495109558,0.0128627959638834,0.2588420510292053,-0.9658340215682983,0.03216588497161865,0.0005726218223571777,0.06321561336517334,0.18699336802038657,-0.018250871011191338,0.12942141507304417,-0.9736274177117611,-0.2618232146376496,0.013317024772212145,-2.7603433574084058
1781552626989055488,1.766078233718872,0.8425342440605164,-0.039981864392757416,-0.242704838514328,0.012000024318695068,0.2506605088710785,-0.9680007100105286,0.04685312509536743,0.05242478847503662,-0.014878928661346436,0.18604827371936328,-0.017755355367330188,0.12523740178099857,-0.9743646261560324,-0.2533624713402695,0.012396075745950861,-2.7626696459829923
1781552626999089152,1.7761120796203613,0.7842102646827698,0.024995405226945877,-0.1263720989227295,0.011543179862201214,0.2426590621471405,-0.9700429439544678,-0.03629293665289879,0.0926680713891983,-0.003040492534637451,0.18522979191488415,-0.01710245722383344,0.12118592355615106,-0.9750443126413687,-0.24510589926385606,0.01189909647026907,-2.7646598077280227
1781552627009124352,1.786147117614746,0.5680800676345825,0.12874683737754822,-0.0333646684885025,0.011993197724223137,0.23607704043388367,-0.971660315990448,-0.1790159046649933,-0.05912087857723236,0.08542990684509277,0.18483429534991325,-0.016197194251967792,0.11793001313088097,-0.9755339074081909,-0.23832679510447605,0.012342367023373112,-2.765614358912166
1781552627019160576,1.7961833477020264,0.41149601340293884,0.2517710328102112,0.0562317930161953,0.013997292146086693,0.23134514689445496,-0.9727710485458374,-0.19710275530815125,-0.14163872599601746,0.019600272178649902,0.18483351089358177,-0.014751590170302668,0.11574483636078364,-0.9758187501140619,-0.23346010442359597,0.014388099355411174,-2.765513315396521
1781552627029195520,1.8062183856964111,0.13611984252929688,0.20158801972866058,0.09180576354265213,0.01644362322986126,0.22853174805641174,-0.9733975529670715,-0.04622878134250641,-0.11645595729351044,0.07979714870452881,0.18508112704713614,-0.013301451488352099,0.11456126026774469,-0.9759322412355246,-0.23056925419740534,0.016891412153382704,-2.764797113804456
1781552627039230464,1.816253423690796,-0.13528290390968323,0.14972548186779022,0.09492485970258713,0.0183425210416317,0.22862660884857178,-0.9733414053916931,0.0762772262096405,-0.14236867427825928,0.20460361242294312,0.18545894780199426,-0.012416181577451588,0.11478305540444993,-0.9758462087275885,-0.23066668625745257,0.018842670707203142,-2.763790600800881
1781552627049264640,1.8262875080108643,-0.27628156542778015,0.18012866377830505,0.06539946049451828,0.020118871703743935,0.2306755930185318,-0.9728227257728577,0.09596998989582062,-0.170525461435318,0.17585617303848267,0.18573123178631523,-0.01176712759204484,0.11597493788110061,-0.9756614382943477,-0.2327719467277772,0.020677974917741513,-2.7629477032351644
1781552627059299584,1.836322546005249,-0.3785235285758972,0.23118531703948975,0.054479435086250305,0.022273724898695946,0.23380877077579498,-0.9720274209976196,0.0768473744392395,-0.13876177370548248,0.17437422275543213,0.18587177418059553,-0.011020114084885155,0.11774903955221068,-0.9754309271068425,-0.23599319402650445,0.02291069915657908,-2.762284361269742
1781552627069334528,1.8463573455810547,-0.5743861794471741,0.25386932492256165,0.053156908601522446,0.024823343381285667,0.2383846491575241,-0.9708535075187683,0.01709255389869213,-0.1647762507200241,0.1862465739250183,0.18596019098378969,-0.01021105022886104,0.12028704045934432,-0.9751131664425045,-0.24070221052006685,0.025563007232648243,-2.7616140239993068
1781552627079369472,1.8563923835754395,-0.8305801749229431,0.2458014190196991,-0.0018498847493901849,0.027236348018050194,0.2450728863477707,-0.9691219925880432,-0.015532860532402992,-0.18856960535049438,0.1526089906692505,0.18590585580454233,-0.00965596676837282,0.12387800354397233,-0.9746794063528089,-0.2475948636505171,0.028096752578319437,-2.761152980646843
1781552627089404672,1.8664274215698242,-1.1378613710403442,0.2425433099269867,0.01652699150145054,0.02967345528304577,0.25473836064338684,-0.9665546417236328,-0.02390563301742077,-0.18419697880744934,0.11435127258300781,0.18570048604756662,-0.00935713527487723,0.12897724435665825,-0.9740598480440633,-0.25757712678217054,0.03069059557628777,-2.7608472518119123
1781552627099439616,1.876462459564209,-1.269404411315918,0.16218547523021698,0.008919939398765564,0.0316578634083271,0.26645752787590027,-0.963326632976532,-0.0495564229786396,-0.15194031596183777,0.19092673063278198,0.18559705068316906,-0.00949546238041163,0.13507971444168396,-0.973250739261,-0.2697158013202847,0.03285123856004299,-2.760263699427122
1781552627109473792,1.8864965438842773,-1.4696989059448242,0.05973021686077118,0.06831535696983337,0.032803818583488464,0.27960988879203796,-0.9595531225204468,-0.06425218284130096,-0.09499379992485046,0.09956777095794678,0.18561589392987807,-0.01020927901964883,0.14184217027729246,-0.9722774173182355,-0.28338776543401895,0.03417324973407045,-2.7594403718041036
1781552627119508480,1.896531343460083,-1.5248039960861206,-0.02811574935913086,0.05316809192299843,0.03310730308294296,0.294025182723999,-0.9552240967750549,-0.06977418065071106,-0.03136041760444641,-0.016104578971862793,0.18585133669136034,-0.011504491019869343,0.1491830872393162,-0.971118608317831,-0.29843547125901204,0.03464533006889308,-2.758199353754345
1781552627129543424,1.9065663814544678,-1.50363028049469,-0.062208209186792374,0.08807920664548874,0.03290548175573349,0.30858516693115234,-0.9506273865699768,-0.0649489313364029,0.048272132873535156,-0.0745190978050232,0.18610017679507057,-0.013079460673272099,0.15657340389126684,-0.9698868769435068,-0.31370524057722965,0.034600674642910785,-2.756971801754668
1781552627139578624,1.9166014194488525,-1.352936863899231,-0.1052202582359314,0.08524587005376816,0.03241680935025215,0.3222168982028961,-0.9461106657981873,-0.01991986110806465,0.11827382445335388,-0.026026785373687744,0.1865413868567129,-0.014750787789776168,0.16348416741556934,-0.9686370120399483,-0.328070350085428,0.03424983218296738,-2.755418729672233
1781552627149613568,1.9266364574432373,-1.0292946100234985,-0.11539886146783829,0.03457949683070183,0.03152409568428993,0.33355000615119934,-0.9422051906585693,-0.00027409568428993225,0.13289591670036316,0.018209218978881836,0.1868124463417117,-0.016377946622972255,0.16920156560141267,-0.9675761666938671,-0.3400667423245017,0.03344530532274648,-2.7543982198789445
1781552627159647744,1.9366705417633057,-0.714409589767456,-0.13688378036022186,-0.006298162508755922,0.03042822889983654,0.34175798296928406,-0.9392952919006348,0.04565209150314331,0.14548566937446594,-0.030873775482177734,0.18693424888927276,-0.017773594447318804,0.17331031967764568,-0.9668004993364743,-0.34878689135373225,0.03238341843896848,-2.7538935689786475
1781552627169682432,1.9467053413391113,-0.4531112015247345,-0.14289826154708862,-0.07541145384311676,0.028924494981765747,0.34715843200683594,-0.9373603463172913,0.06598517298698425,0.14309120178222656,-0.13585132360458374,0.1868003256065213,-0.019045924926889193,0.17594626245353598,-0.9663259375649527,-0.3545393953096059,0.030847604240309412,-2.7541568222537998
1781552627179717632,1.956740379333496,-0.20965220034122467,-0.10403820872306824,-0.09952957183122635,0.02743019349873066,0.35035839676856995,-0.9362139701843262,0.04584250599145889,0.12029895186424255,-0.21197938919067383,0.1864556408707505,-0.02005259164085704,0.17745680356122695,-0.9660958342734627,-0.3579537252227699,0.029290685649146355,-2.754983251647722
1781552627189752576,1.9667754173278809,-0.04755251482129097,-0.04454292729496956,-0.14032866060733795,0.026287071406841278,0.35148775577545166,-0.935823380947113,0.017658237367868423,0.08769068121910095,-0.20150572061538696,0.18592440675561472,-0.020639428137233407,0.1779391402374909,-0.9660971999908237,-0.35915978788068376,0.028082394065953666,-2.7562453417323507
1781552627199787520,1.9768104553222656,0.14910249412059784,0.003636586479842663,-0.12822486460208893,0.025639407336711884,0.35116592049598694,-0.9359621405601501,0.007395872846245766,0.09805282950401306,-0.20078712701797485,0.18528764638905929,-0.020812637439039394,0.17772382776216625,-0.9662555330863353,-0.35881603023507186,0.027386787861960967,-2.757708493653238
1781552627209822720,1.9868454933166504,0.3197743594646454,0.03055155649781227,-0.13802209496498108,0.025325113907456398,0.34884577989578247,-0.936837911605835,0.017796223983168602,0.11612004041671753,-0.25523972511291504,0.18464761222079706,-0.020618234399162643,0.1765104508488598,-0.966604434015611,-0.35633923738559664,0.027025963489379,-2.7592194357131516
1781552627219856384,1.9968793392181396,0.38706445693969727,0.08336963504552841,-0.03990379348397255,0.025553468614816666,0.34559860825538635,-0.9380344748497009,0.026463743299245834,0.16830214858055115,-0.23585468530654907,0.18417881315625145,-0.020093374657462283,0.1748686139620046,-0.9670033004203152,-0.35287661802080933,0.027234767467767387,-2.7603181337243896
1781552627229891584,2.0069143772125244,0.34121039509773254,0.09744710475206375,0.01304863765835762,0.026406941935420036,0.34195977449417114,-0.9393435120582581,0.054434116929769516,0.10866275429725647,-0.13452428579330444,0.18409321895536804,-0.019288750905674147,0.1730786025704228,-0.9673579093157367,-0.3490015997374418,0.02810472425011879,-2.7605246557412912
1781552627239926528,2.016949415206909,0.03966068476438522,0.02169228531420231,0.042493611574172974,0.02710266411304474,0.340101033449173,-0.9399982690811157,0.10726623237133026,-0.0030496418476104736,0.016353249549865723,0.18418066201420605,-0.018772139925162395,0.17218732455706148,-0.9675105443383654,-0.3470243345413517,0.028824688983897413,-2.7603106489319478
1781552627249961728,2.026984453201294,-0.3462020754814148,-0.06407242268323898,0.11472146958112717,0.02713218703866005,0.34149929881095886,-0.9394903182983398,0.17019447684288025,-0.04814910888671875,0.10813051462173462,0.18455806393545632,-0.018964406466857486,0.17290224371506,-0.9673073495692159,-0.3485116262568233,0.028871662640019533,-2.7594501333990205
1781552627259996672,2.0370194911956787,-0.7312911152839661,-0.11712472140789032,0.2169269472360611,0.02682781219482422,0.3465641438961029,-0.9376425743103027,0.14967060089111328,-0.0988834798336029,0.18846654891967773,0.1853824914902043,-0.01977311582613649,0.1754643688199656,-0.9666719051653969,-0.3539057421896264,0.028604178807949878,-2.7575301450011755
1781552627270030592,2.047053337097168,-0.9372320175170898,-0.160877525806427,0.2492220252752304,0.026350919157266617,0.35449883341789246,-0.9346851110458374,0.06851297616958618,-0.21019646525382996,0.2480853796005249,0.18658941672462098,-0.02103666419373824,0.17948513948390954,-0.9656743797014098,-0.3623780443686787,0.02818483154487751,-2.754689502874028
1781552627280065536,2.0570883750915527,-1.0988258123397827,-0.22025522589683533,0.23211787641048431,0.02542370930314064,0.3639940321445465,-0.9310542345046997,-0.030718501657247543,-0.213008314371109,0.2002803087234497,0.18778792342340586,-0.022698725859215254,0.18427600048067902,-0.9645014157139854,-0.3725525031735414,0.027299582630787574,-2.7518600053629028
1781552627290100480,2.0671234130859375,-0.8829512000083923,-0.14666543900966644,0.29853978753089905,0.024585017934441566,0.37334224581718445,-0.9273678660392761,-0.11969304829835892,-0.03806087374687195,0.11140412092208862,0.1891394558396726,-0.024350026812090225,0.1890056625535515,-0.9632810474646261,-0.382609168752946,0.026504326201877985,-2.7486938331305955
1781552627300135680,2.0771584510803223,-0.5307931900024414,-0.020976213738322258,0.2921031713485718,0.02493949420750141,0.3798845410346985,-0.9246976375579834,-0.19473929703235626,0.020017772912979126,-0.07450884580612183,0.19057199038652461,-0.02514470193456343,0.1924029987617489,-0.962305107329144,-0.38967146383859025,0.02696389464018264,-2.74525665425228
1781552627310170624,2.087193489074707,-0.2070966362953186,0.028677625581622124,0.2308720499277115,0.026064353063702583,0.3831467628479004,-0.9233196973800659,-0.22545094788074493,-0.03768777847290039,-0.15161621570587158,0.19177854924950571,-0.025171609192191028,0.19418175918820624,-0.9617072601897667,-0.3932006410189969,0.028221464744386346,-2.7423059677970545
1781552627320205568,2.097228527069092,0.050200410187244415,0.014036096632480621,0.1756141185760498,0.027001354843378067,0.38387569785118103,-0.9229899048805237,-0.16622254252433777,-0.02453121542930603,-0.16584676504135132,0.19273687368084536,-0.024975219362121583,0.19463115037798254,-0.9614298861191768,-0.3939899293032099,0.029245883770863505,-2.7400623166527245
1781552627330239488,2.107262372970581,0.4021134376525879,0.034580785781145096,0.04576690122485161,0.027699612081050873,0.38176989555358887,-0.9238422513008118,-0.10622134059667587,0.03313183784484863,-0.22778433561325073,0.19329406093484172,-0.024513229998487106,0.19359232718879119,-0.9615396019335113,-0.391710485796082,0.029974074121024787,-2.738882354639388
1781552627340274688,2.117297410964966,0.7414212226867676,0.018864275887608528,-0.06786485761404037,0.027911435812711716,0.37647372484207153,-0.9260067343711853,-0.049243226647377014,0.09242886304855347,-0.2612033486366272,0.19327126281349163,-0.023835728448750412,0.19086249209567246,-0.9621068203583863,-0.3859870321055081,0.030132597059188262,-2.739213889065547
1781552627350309632,2.1273324489593506,1.2646007537841797,-0.007282373961061239,-0.2077476531267166,0.027422908693552017,0.3672410249710083,-0.929721474647522,0.0025911349803209305,0.1380537748336792,-0.260647177696228,0.1927354058517546,-0.022991489054287946,0.18603938393042999,-0.9631790859645486,-0.3760410500994954,0.029487283686709997,-2.74099188800697
1781552627360344576,2.1373674869537354,1.6403847932815552,0.011496640741825104,-0.2847665250301361,0.026458682492375374,0.35362592339515686,-0.9350126385688782,-0.019073428586125374,0.19076189398765564,-0.23439043760299683,0.19166152047299692,-0.02183451368849258,0.17893275467918932,-0.9647653631637179,-0.36144466254446145,0.028290123927046957,-2.74420728078438
1781552627370379776,2.14740252494812,1.9848772287368774,0.10608866065740585,-0.26287615299224854,0.026055188849568367,0.3366060256958008,-0.9412850141525269,-0.061058852821588516,0.2611875534057617,-0.18566811084747314,0.19048513329219335,-0.020055234439359484,0.1701624856055878,-0.966621930748631,-0.3433102668058857,0.027673378674064688,-2.747655577606381
1781552627380413440,2.1574363708496094,2.0340795516967773,0.1606363207101822,-0.28157898783683777,0.026470791548490524,0.3173582851886749,-0.9479361772537231,-0.08410323411226273,0.13372203707695007,-0.14106833934783936,0.18925848906595505,-0.017671848148068794,0.16037333793642844,-0.9685811735830635,-0.3229424644644473,0.027917401196684788,-2.7511123149850256
1781552627390448640,2.167471408843994,1.7614425420761108,0.16216124594211578,-0.2654002904891968,0.027142668142914772,0.29927170276641846,-0.95378178358078,-0.03715243935585022,0.0035847127437591553,-0.026946306228637695,0.18793331251487014,-0.015306384782473762,0.15124422484022493,-0.9703463283703033,-0.30392929619246195,0.02845026420771201,-2.7546194019426546
1781552627400483584,2.177506446838379,1.5135490894317627,0.14537760615348816,-0.19745106995105743,0.027953045442700386,0.28362566232681274,-0.9585275650024414,0.059052567929029465,-0.015315115451812744,0.1271371841430664,0.18680270552431938,-0.013182177441299191,0.1433961106042106,-0.9717862524725921,-0.2875729409571178,0.029154221396398214,-2.757551985934939
1781552627410518528,2.1875414848327637,1.1502031087875366,0.13525892794132233,-0.12079118937253952,0.028824415057897568,0.2707132399082184,-0.9622284173965454,0.11274662613868713,-0.07082310318946838,0.3042236566543579,0.1860109609717364,-0.011371080404122528,0.13695436840277253,-0.9728895981835036,-0.27413387229259834,0.029946942338165933,-2.7596329404565902
1781552627420553728,2.1975765228271484,0.6409977078437805,0.14264985918998718,-0.04891832917928696,0.029928576201200485,0.2620539367198944,-0.9645890593528748,0.11507569253444672,-0.1591791808605194,0.33481305837631226,0.18554656160975339,-0.009918209854868933,0.13269178642796092,-0.9735845958134157,-0.26514990560998053,0.03101733189146855,-2.7608109722910017
1781552627430588416,2.207611322402954,0.033102650195360184,0.11964734643697739,0.0345749668776989,0.031209327280521393,0.2586928606033325,-0.9654552936553955,0.08906044065952301,-0.2111159861087799,0.2968915104866028,0.1854374426665766,-0.00894389967269762,0.13111959133697013,-0.9738277966475836,-0.2616687673436969,0.032314766336224064,-2.761003253359714
1781552627440622592,2.2176454067230225,-0.2964544892311096,0.1024760827422142,0.08501763641834259,0.032359782606363297,0.26037830114364624,-0.9649642109870911,0.0700572058558464,-0.21367117762565613,0.25039517879486084,0.18567944835732053,-0.00856993716044931,0.13207739927204543,-0.9736555494739912,-0.2634140054368663,0.0335221350529729,-2.760269835540601
1781552627450657536,2.2276804447174072,-0.3745298385620117,0.07285694032907486,0.039673324674367905,0.033504668623209,0.2635420560836792,-0.9640658497810364,0.0852697417140007,-0.12393942475318909,0.04913365840911865,0.1859085543738915,-0.008340815930157335,0.1337815108381008,-0.9733811805704043,-0.2666922477621664,0.03473952308927972,-2.759492669924815
1781552627460692736,2.237715482711792,-0.26778873801231384,0.05125044658780098,0.09251869469881058,0.03416605293750763,0.2668125629425049,-0.9631426334381104,0.13435201346874237,0.12921404838562012,0.03447747230529785,0.18614726664302314,-0.008363886905718938,0.13549439671450986,-0.9730983446874323,-0.2700841900741226,0.035458646339158066,-2.7587544567725244
1781552627470727680,2.2477505207061768,-0.08534542471170425,0.06182452663779259,0.09698774665594101,0.03505874425172806,0.26835885643959045,-0.9626808762550354,0.14247725903987885,0.13252002000808716,0.0851479172706604,0.1865915933104135,-0.008134302374829127,0.13635765342087358,-0.9728946785494063,-0.27168899082622655,0.036401740084641185,-2.7576382518250977
1781552627480762368,2.2577853202819824,-0.24528104066848755,-0.06918861716985703,0.025403840467333794,0.03528321161866188,0.2696707248687744,-0.9623059630393982,0.10975158214569092,-0.09622406959533691,0.1568555235862732,0.18689794674595733,-0.008194204502047771,0.1370396624505911,-0.9727394582519058,-0.27305108134492667,0.036648855813188,-2.7569124503108213
1781552627490797568,2.267820358276367,-0.4242987334728241,-0.19578330218791962,0.011069908738136292,0.03398336470127106,0.2731803059577942,-0.9613624215126038,0.09586893022060394,-0.11648780107498169,0.09338146448135376,0.16012820462395091,-0.005370367073694638,0.13888830519954773,-0.9772615584657904,-0.2766975373682211,0.03533445793116065,-2.8118506900844134
1781552627500831488,2.2778544425964355,-0.26154178380966187,-0.16841985285282135,-0.020787090063095093,0.03219948709011078,0.27647075057029724,-0.9604827761650085,0.0037502236664295197,-0.01670512557029724,-0.062283337116241455,0.13830246418586023,-0.0034018993397005944,0.14052420099793084,-0.9803641529492357,-0.28011977883647565,0.03351172265110377,-2.856572235341175
1781552627510866688,2.2878894805908203,-0.15697914361953735,-0.08470606058835983,-0.04701763018965721,0.03081396035850048,0.2785419523715973,-0.9599296450614929,-0.11553075909614563,0.05464896559715271,-0.16340714693069458,0.1202699799664089,-0.0016441826712530832,0.14153616664419888,-0.9825985118734202,-0.2822756376678473,0.03208921052500527,-2.893444721639086
1781552627520901632,2.297924518585205,0.18695665895938873,0.018899163231253624,-0.08045388013124466,0.03035244159400463,0.2785717248916626,-0.9599356651306152,-0.13978847861289978,0.08409914374351501,-0.2598671317100525,0.10483889556628251,0.00034325885009902626,0.1415345745423615,-0.9843661406610583,-0.28230663139921325,0.031608713801663926,-2.924892778521573
1781552627530936576,2.3079593181610107,0.5198877453804016,0.034426458179950714,-0.1241917759180069,0.030350957065820694,0.27510562539100647,-0.9609348177909851,-0.1078808605670929,0.02439388632774353,-0.2366817593574524,0.09127831482251345,0.0024549211015027377,0.1397374788505665,-0.9859694675946469,-0.27869955253672135,0.031574327771686346,-2.952535547123682
1781552627540971520,2.3179943561553955,0.676753044128418,0.009483689442276955,-0.16791927814483643,0.030189648270606995,0.2692190110683441,-0.9626057147979736,-0.041328564286231995,0.006461530923843384,-0.15780138969421387,0.07922585722360712,0.004321388333310612,0.13666923766911296,-0.9874341455733968,-0.2725820116204371,0.03135214736877229,-2.9771675322570177
1781552627551005696,2.328028440475464,0.6973027586936951,-0.047078922390937805,-0.17468583583831787,0.029563475400209427,0.262663334608078,-0.9644345641136169,-0.012870362028479576,0.01451253890991211,-0.07532984018325806,0.06849887146535993,0.005720337366750437,0.13322916174665975,-0.9886987460574865,-0.2657814265445074,0.030644092011768653,-2.9991532645294208
1781552627561040640,2.3380634784698486,0.7427208423614502,-0.07507460564374924,-0.1848657727241516,0.028446394950151443,0.2556946873664856,-0.9663389921188354,-0.052128035575151443,-0.049639999866485596,-0.06256115436553955,0.058936070719979146,0.006655254630814302,0.12956162908900187,-0.9897959293370603,-0.25856619882133935,0.029428784853972302,-3.018819514923379
1781552627571075584,2.3480985164642334,0.7277520298957825,-0.05275039002299309,-0.20090945065021515,0.027366574853658676,0.24867314100265503,-0.9682008028030396,-0.09326928853988647,-0.03465336561203003,-0.08595263957977295,0.05026998895658188,0.007424277998686208,0.12587491007237625,-0.9907438154413505,-0.2513101225721853,0.028257869551402512,-3.0366305313738815
1781552627581110784,2.358133554458618,0.9090925455093384,-0.04431935399770737,-0.20006603002548218,0.026363717392086983,0.2408093810081482,-0.970214307308197,-0.07603107392787933,0.0947619080543518,-0.06410270929336548,0.04236161831956675,0.008091376628176066,0.12176771873471236,-0.9916212313688018,-0.24319968798114228,0.027166401200893454,-3.052885451705217
1781552627591145472,2.368168354034424,0.9758979082107544,0.053767528384923935,-0.1816374808549881,0.02594398707151413,0.23156648874282837,-0.9724730849266052,-0.06683753430843353,0.10075467824935913,-0.060180723667144775,0.035379348259133366,0.008900400956241455,0.11697968360167393,-0.9924640789873643,-0.2336876304148699,0.026672033060937957,-3.0671959572797047
1781552627601180672,2.3782033920288086,0.828438401222229,0.11364658176898956,-0.15252673625946045,0.02643284574151039,0.222706139087677,-0.9745271801948547,-0.06868443638086319,-0.0644114762544632,0.02309596538543701,0.029054465633602013,0.010018670593596415,0.11241005984727974,-0.9931865265451677,-0.2245894478624152,0.02711711498659006,-3.0800436077008624
1781552627611214592,2.388237476348877,0.4783986210823059,0.07414204627275467,-0.16665853559970856,0.02709198370575905,0.2162371724843979,-0.9759649038314819,-0.01663971319794655,-0.1925097554922104,0.14408624172210693,0.023296971016425513,0.011074910047829218,0.10906369839941198,-0.9937000230499353,-0.21795880772873252,0.02775205182596908,-3.091675274633672
1781552627621249792,2.3982725143432617,0.23812903463840485,-0.0016825455240905285,-0.1578085869550705,0.027033215388655663,0.2128635048866272,-0.9767078757286072,0.04877244681119919,-0.1783786565065384,0.19498491287231445,0.01798423081193791,0.01165713755363859,0.10728540752357918,-0.9939972239888204,-0.2145046994453413,0.027670827440086514,-3.1024315421492363
1781552627631284736,2.4083075523376465,0.026267383247613907,0.022860081866383553,-0.16972462832927704,0.02676370181143284,0.21160471439361572,-0.9769887924194336,0.06582663208246231,-0.10209240019321442,0.12617403268814087,0.013019965191358049,0.012064773610789427,0.10658344965746815,-0.994145318332225,-0.21321655791377825,0.027387222553235585,-3.112469870730918
1781552627641319424,2.418342351913452,0.026746487244963646,0.015130124986171722,-0.1503240317106247,0.026642238721251488,0.21168118715286255,-0.9769755601882935,0.06831321120262146,0.01729220151901245,0.12587082386016846,0.008556313053573877,0.012481816701042415,0.1065664928199551,-0.9941904535988048,-0.21329480432089323,0.027263360492191312,-3.1214616381598455
1781552627651354624,2.428377389907837,0.08507157862186432,0.0069385068491101265,-0.1495133638381958,0.026483697816729546,0.21099908649921417,-0.9771274328231812,0.0846613198518753,0.05882208049297333,0.13793981075286865,0.004264281500373929,0.012863016554372874,0.10616416956251283,-0.9942562824262634,-0.21259694041612184,0.027096993725777316,-3.130123433097936
1781552627661389568,2.4384124279022217,0.015900230035185814,0.033036552369594574,-0.12380588799715042,0.02634299360215664,0.21043957769870758,-0.9772518873214722,0.09621559828519821,0.03943835198879242,0.13705718517303467,0.00042856149209176257,0.013201435845963769,0.10582903254859923,-0.9942965815261052,-0.21202458228341753,0.0269496701898532,-3.137862694368661
1781552627671423744,2.44844651222229,-0.1587517410516739,-0.03819075599312782,-0.21681837737560272,0.02609446458518505,0.21117128431797028,-0.977100670337677,0.1371288001537323,-0.031819477677345276,0.0536234974861145,-0.0034363186667286222,0.013489523117640232,0.106149353438308,-0.9942527586081457,-0.21277311145649988,0.026699668005856308,3.13753173495613
1781552627681458688,2.458481550216675,-0.2407083958387375,-0.14437271654605865,-0.2739224135875702,0.024588651955127716,0.21327988803386688,-0.976681649684906,0.17015928030014038,-0.04848496615886688,0.028347909450531006,-0.007292326103997721,0.013153122794462752,0.10717349653254668,-0.9941266581449576,-0.2149308743068072,0.025170390288128695,3.1296376488089566
1781552627691493632,2.4685163497924805,-0.3747878968715668,-0.13863812386989594,-0.29845571517944336,0.022554853931069374,0.21630875766277313,-0.9760644435882568,0.09618904441595078,-0.05375687777996063,0.011037588119506836,-0.01110734057671419,0.012560671366067337,0.10867385273365261,-0.9939360667407453,-0.2180321221525565,0.02310384357153031,3.1217722000049153
1781552627701528576,2.4785513877868652,-0.4418739974498749,-0.11053486168384552,-0.26440346240997314,0.020728444680571556,0.2203960418701172,-0.9751902222633362,0.026100778952240944,-0.008329391479492188,0.03694254159927368,-0.014572602503659332,0.012054031536255299,0.110723093334631,-0.9936713327113146,-0.22222048059166036,0.021252595770336138,3.114635160447267
1781552627711563520,2.48858642578125,-0.5395954847335815,-0.13304735720157623,-0.2680450677871704,0.018983403220772743,0.22530466318130493,-0.9741033911705017,0.037580929696559906,0.012900277972221375,0.07397222518920898,-0.01580648329664609,0.011356541332757274,0.11322246594736814,-0.9933790635538454,-0.22725573348310713,0.019485611089028795,3.111995428961804
1781552627721597696,2.4986205101013184,-0.6907053589820862,-0.17139022052288055,-0.25865450501441956,0.01692209579050541,0.23121875524520874,-0.9727545976638794,0.08769216388463974,0.01389843225479126,0.1061469316482544,-0.018995879586786165,0.010744147354532926,0.11622072886698484,-0.9929836735209802,-0.23333020455157144,0.017394303754338602,3.1053757344289146
1781552627731632640,2.508655548095703,-0.894916296005249,-0.20843826234340668,-0.2581722140312195,0.014399643987417221,0.23903007805347443,-0.9709053635597229,0.10554969310760498,0.01156499981880188,0.12244045734405518,-0.022009976554841566,0.009920341240587086,0.1202035455648726,-0.9924557040344844,-0.24136685469717575,0.014830063328614638,3.0990438638812554
1781552627741667584,2.518690347671509,-1.0771574974060059,-0.2146490067243576,-0.2249402105808258,0.011718777939677238,0.24875383079051971,-0.9684958457946777,0.07113644480705261,-0.026799485087394714,0.08431005477905273,-0.024733423002285045,0.009029753739753,0.12518202756481522,-0.9917843917708199,-0.2513934354801374,0.012099386625052364,3.0932553135017744
1781552627751702528,2.5287253856658936,-1.082168459892273,-0.22069837152957916,-0.20382055640220642,0.009075208567082882,0.25936761498451233,-0.9657360315322876,0.05902476608753204,-0.02220025658607483,0.0332561731338501,-0.027211040263336164,0.00816559634437102,0.13063424512029276,-0.9910235265434437,-0.26236734650912247,0.009396917296170409,3.087931278321874
1781552627761737472,2.5387604236602783,-1.0318843126296997,-0.2546933591365814,-0.19534184038639069,0.0063161891885101795,0.26958268880844116,-0.9629565477371216,0.0825510025024414,-0.025991380214691162,0.030186772346496582,-0.029450215822352167,0.007230890834505556,0.1359023408514667,-0.9902580662404135,-0.2729596419536281,0.006559069489850661,3.083031088156901
1781552627771772672,2.548795461654663,-1.1494554281234741,-0.2697170674800873,-0.25215959548950195,0.0031608729623258114,0.28000572323799133,-0.9599931240081787,0.06925734132528305,-0.07471397519111633,0.02217268943786621,-0.031714433927179445,0.006126406786857622,0.1413007510252393,-0.9894396546547297,-0.2838000713387609,0.0032925876715336534,3.077979130928965
1781552627781806592,2.5588295459747314,-1.1457818746566772,-0.3108513057231903,-0.3088787794113159,-0.00041011726716533303,0.291220486164093,-0.9566558599472046,0.04441646486520767,-0.05652505159378052,-0.01616823673248291,-0.034095381684828056,0.004867420176152967,0.147133860586411,-0.9885167772650822,-0.2955023808466495,-0.0004286988102501179,3.072573272730967
1781552627791841536,2.568864345550537,-1.1200605630874634,-0.3271027207374573,-0.3886721730232239,-0.00450120959430933,0.30195581912994385,-0.9533113241195679,0.009338246658444405,-0.04663050174713135,-0.03738081455230713,-0.03669884325053514,0.00339737768987752,0.15275081035555757,-0.9875773215414948,-0.3067435858648829,-0.004721622773504216,3.066575996170874
1781552627801876480,2.578899383544922,-1.1845449209213257,-0.3914805054664612,-0.4843531548976898,-0.009287030436098576,0.31302767992019653,-0.9496986269950867,-0.038930743932724,-0.03263217210769653,0.00463026762008667,-0.03962555281499853,0.0016627100295118031,0.1585810071634231,-0.9865490939104372,-0.3183792443519152,-0.00977861186456128,3.059734222702106
1781552627811911680,2.5889344215393066,-0.9584571719169617,-0.4030764400959015,-0.5486496090888977,-0.01475895568728447,0.3233264684677124,-0.9461723566055298,-0.04763423278927803,0.0416790246963501,0.036489129066467285,-0.04277965825152107,-0.0003666164984818098,0.1640538803270015,-0.9855232512309349,-0.3292426597374767,-0.015597326127610878,3.0522398345613433
1781552627821946624,2.5989694595336914,-0.6065739393234253,-0.4486204981803894,-0.6272626519203186,-0.020763764157891273,0.33063650131225586,-0.9435297250747681,-0.04199562966823578,0.06778573989868164,-0.023892760276794434,-0.046174675767099965,-0.0026647556123295035,0.16801197313178073,-0.9846994008273401,-0.3369779162923048,-0.022002922907852118,3.044134130023065
1781552627831981568,2.609004497528076,-0.37507951259613037,-0.4015973210334778,-0.6932325959205627,-0.02693955786526203,0.335078626871109,-0.9418049454689026,-0.04643996059894562,0.01715525984764099,-0.2277202010154724,-0.04988304079813279,-0.0050447643089462126,0.17050535390703345,-0.9840803128604202,-0.3416886808771668,-0.028596381711257435,3.03536536934998
1781552627842015488,2.6190383434295654,-0.10741984099149704,-0.39992526173591614,-0.630448579788208,-0.03301587328314781,0.3371706008911133,-0.9408644437789917,-0.07428392767906189,0.02286049723625183,-0.16609960794448853,-0.052872835118022286,-0.007548215329901315,0.17178705287874677,-0.98368525292186,-0.3439098786209342,-0.0350766053814274,3.0281041364415486
1781552627852050432,2.62907338142395,0.1870165765285492,-0.32469815015792847,-0.5612769722938538,-0.038388997316360474,0.33644378185272217,-0.9409207701683044,-0.05470487102866173,-0.05815395712852478,-0.16894251108169556,-0.0554211986839776,-0.009846738599050227,0.17158862938028294,-0.9835593555972585,-0.3431379552653641,-0.04077678023540575,3.021950094628559
1781552627862085632,2.639108419418335,0.059772346168756485,-0.33333876729011536,-0.6728631854057312,-0.04350966960191727,0.33499038219451904,-0.9412164092063904,0.03424758464097977,-0.10464370250701904,-0.08222109079360962,-0.05818463872149265,-0.012002458793185785,0.17101967726635295,-0.9834748371154161,-0.3415950212622103,-0.046194174703032276,3.0154369540896613
1781552627872120576,2.6491434574127197,0.11854937672615051,-0.5664297938346863,-0.6635743379592896,-0.04990619421005249,0.33390337228775024,-0.941285252571106,0.2158913016319275,0.11433881521224976,0.10051071643829346,-0.06113502686704854,-0.014763536123048664,0.17070271550688054,-0.9833133402224107,-0.340441596089903,-0.052969607966768514,3.008300839965975
1781552627882155776,2.6591784954071045,0.10403701663017273,-0.6779422163963318,-0.6351328492164612,-0.058160699903964996,0.3322875201702118,-0.9413831830024719,0.2710360586643219,0.17016911506652832,0.0828322172164917,-0.06376834434582371,-0.018539611447140742,0.17019013401378785,-0.9831709548486274,-0.3387278661264741,-0.06170374559796129,3.001499616880662
1781552627892190720,2.6692135334014893,-0.3116890788078308,-0.5784345269203186,-0.6109848618507385,-0.06618201732635498,0.33276668190956116,-0.9406839609146118,0.14587867259979248,-0.03558650612831116,0.028330445289611816,-0.06632990472195444,-0.022143158915049907,0.17078557660780322,-0.9828235719444754,-0.3392359398897853,-0.07023947438523398,2.9947844835873694
1781552627902224640,2.6792473793029785,-0.5867317914962769,-0.6863653659820557,-0.5485292077064514,-0.07391250878572464,0.33682504296302795,-0.9386616945266724,0.17069901525974274,-0.14508312940597534,0.08592432737350464,-0.06870510527584445,-0.02550793900591414,0.17325843015834663,-0.9821458189673643,-0.3435428539285456,-0.07858029256868025,2.988273039571737
1781552627912259584,2.6892824172973633,-0.8718215823173523,-0.8286628723144531,-0.5179420113563538,-0.08287204056978226,0.34316882491111755,-0.9356107115745544,0.31833040714263916,-0.18342456221580505,0.04107946157455444,-0.07074475235762812,-0.02946803481766205,0.1769923404656941,-0.9812239347668315,-0.3502885230072701,-0.08834478824861264,2.9820016317575737
1781552627922294528,2.699317455291748,-1.0571452379226685,-0.9628455638885498,-0.5323875546455383,-0.0931125283241272,0.3519052267074585,-0.9313929080963135,0.3797336220741272,-0.1301950216293335,-0.0016820430755615234,-0.07266504759409369,-0.03400646075293138,0.1820634513157941,-0.9800082950115808,-0.3596057438605023,-0.09964019922027088,2.97544307707891
1781552627932329728,2.709352493286133,-1.0092564821243286,-1.040065050125122,-0.5501092672348022,-0.10442936420440674,0.3609972894191742,-0.9267013669013977,0.32874882221221924,-0.0639391839504242,-0.008784472942352295,-0.07457885181585776,-0.03907133010202514,0.18741061160327674,-0.9786668058819805,-0.3693370856923351,-0.11221592824581202,2.968494750004927
1781552627942364672,2.7193875312805176,-0.9482293128967285,-0.9399131536483765,-0.5573978424072266,-0.11575600504875183,0.36950257420539856,-0.9219915270805359,0.21394631266593933,0.02687498927116394,-0.13475584983825684,-0.07654641230405432,-0.04414457332822937,0.19249799773293672,-0.9773108937660239,-0.37847364180088594,-0.12489646138260097,2.961313596977252
1781552627952399616,2.7294223308563232,-0.6833033561706543,-0.8487733602523804,-0.5926908254623413,-0.12611253559589386,0.3763876259326935,-0.9178387522697449,0.15119798481464386,0.07067963480949402,-0.18251830339431763,-0.07866251344565378,-0.048746689220955604,0.19673428267187867,-0.9760797371565948,-0.3858940812680745,-0.1365466113532963,2.9540416623344257
1781552627962433536,2.7394564151763916,-0.4783284068107605,-0.7860415577888489,-0.6283548474311829,-0.13588322699069977,0.3809802234172821,-0.9145435094833374,0.19478215277194977,0.0981457531452179,-0.1081463098526001,-0.08098925290522431,-0.053086777109470636,0.1997749794053925,-0.9750448490446081,-0.39085623204736714,-0.14750128702685864,2.946599422645263
1781552627972468736,2.7494914531707764,-0.35936659574508667,-0.7173820734024048,-0.7073100805282593,-0.14540323615074158,0.38363784551620483,-0.9119648337364197,0.2991355359554291,0.13702255487442017,-0.11592823266983032,-0.08360867904434276,-0.05730800018395538,0.20182509599431078,-0.9741621742682334,-0.39373236400961603,-0.15810871810494126,2.938761833535231
1781552627982503680,2.759526491165161,-0.3147594630718231,-0.6780378222465515,-0.7885386347770691,-0.15451711416244507,0.3854336440563202,-0.9097062349319458,0.34453481435775757,0.04471161961555481,-0.0992964506149292,-0.08662918091150802,-0.06126834260528917,0.2034529104040661,-0.9733183150183952,-0.39567772172186694,-0.16824812626727023,2.930248809870246
1781552627992538624,2.769561529159546,-0.6330143809318542,-0.6925930976867676,-0.8891597986221313,-0.16393961012363434,0.38847264647483826,-0.90675950050354,0.38513100147247314,-0.03658971190452576,0.007330179214477539,-0.09023119052293505,-0.06520760871061634,0.20583538852461436,-0.9722336192596985,-0.3989734793641945,-0.1788650341442644,2.9202516874754147
1781552628002573568,2.7795963287353516,-0.7524281144142151,-0.73380047082901,-0.9140033721923828,-0.17393676936626434,0.3930272161960602,-0.9029261469841003,0.47493162751197815,-0.0036381781101226807,0.11006420850753784,-0.09408543348336622,-0.06931108018880308,0.2091241500978881,-0.9708814901621156,-0.40392142107741885,-0.19030559892205004,2.9093029360776255
1781552628012607488,2.78963041305542,-0.9832815527915955,-0.9185215830802917,-0.9539685845375061,-0.185181125998497,0.3993036448955536,-0.8979223370552063,0.4775090217590332,-0.06983587145805359,0.2364233136177063,-0.09810732564088123,-0.0739238569442604,0.21348087608452618,-0.9691935842670732,-0.4107571886395685,-0.20338148595073005,2.8973206620839336
1781552628022642944,2.799665689468384,-0.9688141942024231,-0.9139410257339478,-0.9454347491264343,-0.19723813235759735,0.40615373849868774,-0.8922646641731262,0.43117064237594604,-0.12813860177993774,0.09885340929031372,-0.10208353689874061,-0.07891660971353694,0.21826550265392888,-0.9673217123032113,-0.41824105102684506,-0.2175548392144106,2.8849618567769557
1781552628032677888,2.8097007274627686,-1.0717835426330566,-0.9889768958091736,-0.9745055437088013,-0.2095930129289627,0.4132349193096161,-0.8861758708953857,0.3089430034160614,-0.1345331370830536,-0.07796597480773926,-0.10611917963544189,-0.08401678667486506,0.22327838665402894,-0.9653117360577907,-0.42600361836141054,-0.2322462580257347,2.8721597868970252
1781552628042712832,2.8197357654571533,-0.9940553903579712,-1.049849510192871,-0.9276424646377563,-0.22268982231616974,0.42057159543037415,-0.8795048594474792,0.21464844048023224,-0.010552674531936646,-0.03876906633377075,-0.11003626422045992,-0.0894937871598256,0.22855727840513065,-0.9631430738873138,-0.43407525233393396,-0.24798728603266432,2.859132945493267
1781552628052748032,2.829770803451538,-0.6987731456756592,-1.031863808631897,-0.8896652460098267,-0.23575837910175323,0.4259365200996399,-0.8734964728355408,0.22460420429706573,0.1742832064628601,-0.06279808282852173,-0.11357907258350283,-0.09513038199008966,0.23281317826700132,-0.9611701353583885,-0.43999673053996996,-0.2636204163592247,2.8470719352342595
1781552628062782976,2.839805841445923,-0.6604582071304321,-0.996961772441864,-0.8769561052322388,-0.24835631251335144,0.4296308755874634,-0.868179976940155,0.23633238673210144,0.09785020351409912,-0.05183345079421997,-0.11698272326656182,-0.10063700780513986,0.23618256757774436,-0.9593774201092182,-0.4440839488244269,-0.27862430140990874,2.8356260261990958
1781552628072816896,2.849839687347412,-0.8346172571182251,-0.9608650207519531,-0.869541585445404,-0.2606891691684723,0.4339258074760437,-0.8624091744422913,0.2696155905723572,-0.008098810911178589,-0.02824634313583374,-0.12038343060308286,-0.10597007552512816,0.23992867432269283,-0.9574509683955075,-0.4488456358568443,-0.2935473706930408,2.8239715851528175
1781552628082851840,2.859874725341797,-0.969124972820282,-0.9409946799278259,-0.8464772701263428,-0.2725478410720825,0.43942883610725403,-0.8559322357177734,0.33613121509552,0.01947924494743347,0.04034996032714844,-0.12386552612834623,-0.11096229085095195,0.2443793209691614,-0.9553132971538526,-0.45496271815187433,-0.3082710751839208,2.8118115382991333
1781552628092887040,2.8699097633361816,-1.1273258924484253,-1.0251097679138184,-0.8331915736198425,-0.28469130396842957,0.44589731097221375,-0.8486026525497437,0.40689894556999207,-0.010152071714401245,0.16566503047943115,-0.12721895384902046,-0.1160716852404365,0.2494514808319641,-0.9529515287252937,-0.46217649006296807,-0.32368350878637286,2.7993679924387913
1781552628102921984,2.8799448013305664,-1.2914834022521973,-1.2514885663986206,-0.852205753326416,-0.2982198894023895,0.4538232684135437,-0.8397079110145569,0.394396036863327,-0.0282556414604187,0.16740566492080688,-0.1305549338775478,-0.12181748799107518,0.2555514699797824,-0.9501628090423665,-0.4710512060551312,-0.34125291572156996,2.785846604453369
1781552628112956928,2.889979839324951,-1.030081033706665,-1.0375815629959106,-0.7886744737625122,-0.3118633031845093,0.46105873584747314,-0.8307623863220215,0.2662090063095093,0.03820887207984924,-0.07060480117797852,-0.1336920326868675,-0.12771164198062004,0.2613590173130256,-0.9473688448345968,-0.47918793137231963,-0.35911613165274064,2.772581325832448
1781552628122992128,2.900014877319336,-0.8003790974617004,-1.0658888816833496,-0.741112232208252,-0.3239111304283142,0.46631425619125366,-0.8231844902038574,0.11350768804550171,0.03399091958999634,-0.14793062210083008,-0.13651517215102932,-0.1329679868668128,0.2659460082287495,-0.944963505470108,-0.4851196971377,-0.3748778098756975,2.7608563013064833
1781552628133025792,2.910048723220825,-0.6314055323600769,-1.0588611364364624,-0.7469877004623413,-0.3361622989177704,0.4696264863014221,-0.8163613677024841,0.15479633212089539,0.0007409453392028809,-0.04035860300064087,-0.13906382468721099,-0.13852992935144934,0.2694972466377675,-0.9427842045950918,-0.48886766580680235,-0.39062117097301113,2.750090767693564
1781552628143060992,2.92008376121521,-0.5547371506690979,-1.0963994264602661,-0.7679899334907532,-0.3485035002231598,0.4718696177005768,-0.8098669052124023,0.1849902868270874,0.009865611791610718,-0.039940834045410156,-0.14160509597053678,-0.14421590963916436,0.2725221624348352,-0.9406813492745303,-0.4914101204749807,-0.4063697265996959,2.739526885690394
1781552628153095936,2.9301187992095947,-0.4611068069934845,-0.9866446852684021,-0.8093206286430359,-0.360757052898407,0.4731961190700531,-0.803703784942627,0.11742514371871948,0.0346163809299469,-0.09294843673706055,-0.1442491884421741,-0.1498930406158184,0.2751002965111901,-0.9386395322398152,-0.492915275884873,-0.4219122960360047,2.72898031674953
1781552628163130880,2.9401538372039795,-0.34881356358528137,-0.7978765964508057,-0.8042347431182861,-0.37170061469078064,0.4735269546508789,-0.798505425453186,0.00562700629234314,0.051390647888183594,-0.10406720638275146,-0.1471698835841944,-0.1548619923122772,0.277065088095025,-0.9367997402827561,-0.49329085309275983,-0.43566495358157764,2.718601305006573
1781552628173166080,2.9501888751983643,-0.36255067586898804,-0.6740391254425049,-0.7852144837379456,-0.3812984228134155,0.47331222891807556,-0.7940950989723206,0.026943564414978027,0.05760207772254944,-0.03142058849334717,-0.15013914379269908,-0.15913792368571836,0.27861722580611903,-0.9351501887074414,-0.4930470815384551,-0.44765584607194864,2.708764457487173
1781552628183200768,2.96022367477417,-0.41776999831199646,-0.719310998916626,-0.7829009890556335,-0.3904896080493927,0.4732608497142792,-0.7896467447280884,0.1132526695728302,0.037008315324783325,-0.02057969570159912,-0.15320241880766075,-0.16316223230681043,0.2802761414343232,-0.9334625152436327,-0.4929887408981327,-0.45924740738732095,2.698756549626704
1781552628193234944,2.9702577590942383,-0.203105628490448,-0.6416721343994141,-0.7319821715354919,-0.3996041715145111,0.4730393886566162,-0.7852070927619934,0.1438668668270111,0.07604813575744629,-0.08336895704269409,-0.1559947385331385,-0.16724298962889003,0.2818265938285003,-0.9318095804509569,-0.49273736321913086,-0.4707546496094982,2.689373818048038
1781552628203269888,2.980292797088623,0.014049598947167397,-0.6004027128219604,-0.7296779751777649,-0.40776583552360535,0.4705830514431,-0.782482385635376,0.12001559138298035,0.06658735871315002,-0.09221243858337402,-0.1586356390583374,-0.17101357463111866,0.28198080646375734,-0.9306320425887729,-0.4899514522957214,-0.48039911873955793,2.6816082238766765
1781552628213305088,2.990327835083008,0.14779913425445557,-0.6759933233261108,-0.6950901746749878,-0.4161440432071686,0.4670104682445526,-0.7802085876464844,0.19063439965248108,0.10772708058357239,0.024333953857421875,-0.16093446395743805,-0.17509195581295994,0.28149337423713106,-0.9296259970434624,-0.48590687505143976,-0.48999005464001316,2.6749808322925204
1781552628223340032,3.0003628730773926,0.10503383725881577,-0.6422890424728394,-0.6708958745002747,-0.42451196908950806,0.46305784583091736,-0.778053343296051,0.14167505502700806,0.013779312372207642,0.028984129428863525,-0.1647062261861521,-0.17875841308370422,0.2811027426150256,-0.9283849223352638,-0.48144212053349966,-0.4994648225205215,2.6653634082854594
1781552628233374720,3.0103976726531982,-0.07829710841178894,-0.6325655579566956,-0.5757358074188232,-0.4324769377708435,0.4602260887622833,-0.7753422856330872,0.058056801557540894,-0.08376124501228333,0.08988696336746216,-0.1682201842114902,-0.18221674454241465,0.28129328655072117,-0.9270238466945319,-0.4782498561714652,-0.5088031333889463,2.6559556203102703
1781552628243409920,3.020432710647583,-0.335657000541687,-0.5731619000434875,-0.5367988348007202,-0.4396456778049469,0.45934537053108215,-0.771824836730957,0.0310610830783844,-0.16878750920295715,0.09637928009033203,-0.17180789393874346,-0.1850837070422426,0.2825448847517517,-0.9254158715526386,-0.47725806211945876,-0.5177805228670853,2.645791868411288
1781552628253443840,3.0304667949676514,-0.4550398588180542,-0.5325915813446045,-0.5112026333808899,-0.44639772176742554,0.46017107367515564,-0.767444908618927,0.05916017293930054,-0.08971819281578064,0.1669657826423645,-0.17380580676211965,-0.18808381942040722,0.28443280805969867,-0.9238582293167789,-0.4781878618537107,-0.5268306013323851,2.6383943875133906
1781552628263479040,3.040501832962036,-0.47829219698905945,-0.46297091245651245,-0.40546098351478577,-0.4523658752441406,0.46172988414764404,-0.763001024723053,0.055042266845703125,0.04229843616485596,0.17311155796051025,-0.17571664401803444,-0.19062961280077986,0.286635352644913,-0.9222928785274199,-0.47994444444489653,-0.5351656340571669,2.6310971196612596
1781552628273513984,3.050536870956421,-0.6324772238731384,-0.43677818775177,-0.3718385696411133,-0.4574771821498871,0.4642265737056732,-0.7584248781204224,0.06459388136863708,-0.007271617650985718,0.03293049335479736,-0.17738744382577032,-0.19270973745805142,0.2892239689995884,-0.9207313434365151,-0.4827611877489978,-0.5427645654909107,2.6241538424751867
1781552628283548928,3.0605716705322266,-0.7711442708969116,-0.4491836130619049,-0.26010406017303467,-0.4623561203479767,0.468192458152771,-0.753009021282196,0.04603534936904907,-0.10466709733009338,0.04162907600402832,-0.17893966380513704,-0.1945842833197939,0.29263022919398785,-0.9189586335971132,-0.4872440725377071,-0.5506583552346527,2.6167576742982575
1781552628293583872,3.0706067085266113,-0.6532285809516907,-0.4376329481601715,-0.19716797769069672,-0.4667911231517792,0.472401887178421,-0.7476245760917664,0.047998398542404175,-0.07898452877998352,0.017659366130828857,-0.1799753299575093,-0.19635922722089127,0.29602494385330014,-0.9172901193061415,-0.492013918127597,-0.5581430517253199,2.610454786416457
1781552628303618816,3.080641746520996,-0.6559553742408752,-0.4177250266075134,-0.17116034030914307,-0.47084933519363403,0.47646740078926086,-0.7424821257591248,0.04709753394126892,-0.018032371997833252,-0.055323660373687744,-0.1808445245029443,-0.19799222361407323,0.2992624704819304,-0.9157162457759435,-0.4966323024486066,-0.5651562007866574,2.604661657106422
1781552628313652992,3.0906758308410645,-0.5060817003250122,-0.45067471265792847,-0.1430797129869461,-0.47478175163269043,0.48002392053604126,-0.7376714944839478,0.05025175213813782,0.042803168296813965,0.04715031385421753,-0.18148718919177717,-0.19967108694610516,0.30215180153370114,-0.9142745771696373,-0.5006819933226389,-0.5718786422007685,2.599608855124852
1781552628323687936,3.100710868835449,-0.47372087836265564,-0.39492931962013245,-0.12496116012334824,-0.47855475544929504,0.4829418659210205,-0.7333160638809204,-0.02265065908432007,-0.012833863496780396,0.060083091259002686,-0.181941526221355,-0.20137684855651475,0.30461340517860325,-0.9129924893317841,-0.504011255252961,-0.5781938215272269,2.595319911116252
1781552628333722880,3.110745668411255,-0.4843556880950928,-0.3162534236907959,-0.08840182423591614,-0.48174431920051575,0.48591774702072144,-0.7292504906654358,-0.14969485998153687,-0.04123088717460632,0.037676453590393066,-0.18237387971962005,-0.2027653171508886,0.3070195014592121,-0.9117921668776819,-0.5074129223283667,-0.5837922180278202,2.591258413548504
1781552628343757824,3.1207807064056396,-0.3832567632198334,-0.24694982171058655,-0.010689714923501015,-0.4840441942214966,0.48887911438941956,-0.7257398366928101,-0.17431148886680603,0.05614954233169556,0.010957181453704834,-0.18263171872838851,-0.20372232417385608,0.30923661618393933,-0.91077739023986,-0.5108043948936555,-0.5882101791900957,2.5879532351912546
1781552628353793024,3.1308157444000244,-0.3808383345603943,-0.2127937227487564,0.011910934932529926,-0.48562872409820557,0.49153125286102295,-0.7228844165802002,-0.12937676906585693,0.01789867877960205,-0.039398908615112305,-0.18260695597138576,-0.2044038846726091,0.3110897886654181,-0.909998380470957,-0.5138472193648232,-0.5915432624166692,2.5857466232607944
1781552628363827968,3.140850782394409,-0.4108548164367676,-0.1905512660741806,0.06467188149690628,-0.486898273229599,0.49460986256599426,-0.7199243903160095,-0.0857488214969635,-0.11916735768318176,-0.0059667229652404785,-0.18257353754903008,-0.2048817286134275,0.3131473850631747,-0.9091914230610177,-0.5173858916831304,-0.5946549974706659,2.583434369917603
1781552628373862144,3.1508848667144775,-0.35235610604286194,-0.17581360042095184,0.08606692403554916,-0.48782607913017273,0.49767568707466125,-0.7171781659126282,-0.05521896481513977,-0.14344289898872375,0.07444751262664795,-0.1822660852142793,-0.20526671578034017,0.31508169978846684,-0.9084976959550131,-0.5209169494573972,-0.5973148214081168,2.5818689168450035
1781552628383896832,3.160919666290283,-0.24558597803115845,-0.14824362099170685,0.08432814478874207,-0.48853006958961487,0.5003138184547424,-0.7148597836494446,-0.058466970920562744,-0.05265152454376221,0.00447160005569458,-0.18198656461223575,-0.20555247681242786,0.31673064547361046,-0.9079156519381156,-0.5239612079096851,-0.5994930754386338,2.5805809799223853
1781552628393931776,3.170954704284668,-0.20875045657157898,-0.11508460342884064,0.09843011200428009,-0.4890727698802948,0.5022618770599365,-0.7131205201148987,-0.0453357994556427,-0.03252005577087402,0.012406408786773682,-0.18155831276662307,-0.20585512812467,0.3179047197539527,-0.9075224224521755,-0.5262125717248191,-0.6011461032022037,2.580095941518256
1781552628403966976,3.1809897422790527,-0.3670836389064789,-0.06386628746986389,0.09320152550935745,-0.4892002046108246,0.5047450661659241,-0.711277425289154,-0.09157982468605042,-0.05940210819244385,0.06352663040161133,-0.18126511603640832,-0.20583902474938234,0.3193612205078512,-0.907073128268274,-0.5290866588485663,-0.6024753676648192,2.579185663774729
1781552628414001920,3.1910247802734375,-0.4248816967010498,-0.04291999712586403,0.08269242942333221,-0.4892267882823944,0.5079072117805481,-0.7090045809745789,-0.12039235234260559,-0.0758393406867981,0.015004336833953857,-0.18119423166392,-0.20563722647570873,0.3212647576110541,-0.9064607123255917,-0.5327535493341818,-0.6039959920866488,2.577409851346746
1781552628424036864,3.2010598182678223,-0.5005047917366028,0.04350530728697777,0.14227107167243958,-0.4885711371898651,0.5118336081504822,-0.7066289782524109,-0.201690673828125,-0.18486839532852173,0.052973031997680664,-0.18115346933307452,-0.20498529717009906,0.3235220781983264,-0.9058133466235109,-0.5373178447451101,-0.6049383181247201,2.5754212462111403
1781552628434070784,3.2110936641693115,-0.4953489303588867,0.1236661896109581,0.10400544106960297,-0.48730984330177307,0.5159335732460022,-0.7045152187347412,-0.21184787154197693,-0.2048221230506897,0.07351851463317871,-0.18126432605019216,-0.20392673804487096,0.3258163109422211,-0.9052076524675964,-0.5420970880774486,-0.6051305288624128,2.573276807880549
1781552628444105984,3.2211287021636963,-0.14500316977500916,0.09193968772888184,0.16668561100959778,-0.4858361482620239,0.5189563035964966,-0.7033118605613708,-0.08534610271453857,0.07934081554412842,0.09286880493164062,-0.1811771475108568,-0.2029026846538812,0.3273752603696404,-0.9048927082023465,-0.5456295260542733,-0.6045134878482362,2.5723366148969165
1781552628454140928,3.231163740158081,0.027894575148820877,0.07662970572710037,0.14384260773658752,-0.48440876603126526,0.5200130343437195,-0.703515887260437,-0.07932719588279724,0.16379433870315552,-0.06560337543487549,-0.1806345516832305,-0.20222029954541512,0.3276415999469487,-0.9050574670305803,-0.5468661782286742,-0.6030028120664976,2.573608094869187
1781552628464175872,3.241198778152466,0.039254285395145416,0.0862015038728714,0.1981218308210373,-0.4829847514629364,0.5205439925193787,-0.7041020393371582,-0.2113206684589386,-0.008306443691253662,-0.0992732048034668,-0.17997601217591122,-0.20162237545305545,0.3275628340540838,-0.9053505205222159,-0.5474879320263538,-0.6012398334277199,2.5754632807257747
1781552628474211072,3.2512338161468506,0.026932109147310257,0.1210779920220375,0.2531121075153351,-0.4810643196105957,0.5213364958763123,-0.7048299908638,-0.2172388732433319,-0.16347217559814453,0.03483182191848755,-0.17903557140810855,-0.20082966935756336,0.32749420660097067,-0.9057378929713432,-0.5484163997757031,-0.5989014658637013,2.578032033588408
1781552628484246016,3.2612688541412354,-0.057257071137428284,0.07828685641288757,0.25438830256462097,-0.4789656698703766,0.5228423476219177,-0.7051437497138977,-0.1352311074733734,-0.16719049215316772,0.14258277416229248,-0.17809936165482948,-0.19988306296559805,0.32783360779414805,-0.906009094086058,-0.5501819864404469,-0.5966604697932881,2.5802388207015743
1781552628494279936,3.2713027000427246,0.14528590440750122,0.06382802128791809,0.21531492471694946,-0.4772917926311493,0.5236279368400574,-0.705695629119873,-0.08374336361885071,0.009880363941192627,0.10388898849487305,-0.1770641872720905,-0.19926441147590004,0.32778937527028734,-0.9063642325205654,-0.5511038258905292,-0.5946712177372228,2.582894028972767
1781552628504314880,3.2813377380371094,0.28904175758361816,0.02193756401538849,0.25224044919013977,-0.4756913483142853,0.523052453994751,-0.707201361656189,-0.16995376348495483,0.13087815046310425,-0.0016303658485412598,-0.17592002517066713,-0.19882696313606457,0.326905404188557,-0.9070020684155502,-0.550428475525279,-0.5921260149021556,2.5865913636286417
1781552628514349824,3.291372776031494,0.7794692516326904,0.30551308393478394,0.4583052098751068,-0.4723958373069763,0.521019458770752,-0.7109013795852661,-0.2808847725391388,-0.03037315607070923,-0.05374699831008911,-0.17413232571815018,-0.19777993084562467,0.324703550413874,-0.9083658468227662,-0.5480449141332204,-0.5865029111700608,2.593440560083559
1781552628524385024,3.301407814025879,-0.2829573154449463,0.29468679428100586,0.33768558502197266,-0.4679855704307556,0.5219857692718506,-0.7131061553955078,-0.2796035408973694,-0.3449380397796631,0.11218452453613281,-0.17272068143999988,-0.19575804113509343,0.3242309657449873,-0.9092418053064377,-0.5491774084901248,-0.5807658333990795,2.598176165438292
1781552628534419968,3.3114428520202637,0.29190170764923096,0.17799881100654602,0.420448362827301,-0.46435001492500305,0.522797703742981,-0.7148857712745667,0.04656437039375305,0.10278213024139404,-0.08000552654266357,-0.17099481920780882,-0.194292390104969,0.32373996963981055,-0.9100570212799223,-0.5501295635425187,-0.5760548291881782,2.6032991215598957
1781552628544454912,3.3214776515960693,-0.30771538615226746,0.40012693405151367,0.29970279335975647,-0.4605206847190857,0.5251539349555969,-0.7156354188919067,-0.2450762391090393,-0.11923962831497192,0.03283512592315674,-0.17029513414557157,-0.19224603146864291,0.32438209514644023,-0.9103940863764263,-0.5528960119897888,-0.5718013904876503,2.6053421041787317
1781552628554488832,3.3315117359161377,0.10766663402318954,0.5116822719573975,0.4277699291706085,-0.45475131273269653,0.5270555019378662,-0.7179232239723206,-0.3280855715274811,-0.208818256855011,0.12951380014419556,-0.1690520723219881,-0.18935300783206793,0.3243205680273394,-0.911253521359368,-0.555132000128473,-0.5646356164524232,2.60981478452467
1781552628564524032,3.3415467739105225,0.30740106105804443,0.4856550097465515,0.27507519721984863,-0.44955092668533325,0.5282734632492065,-0.7202993631362915,-0.20193833112716675,-0.06898385286331177,0.013939499855041504,-0.16853809413470242,-0.18657007041137708,0.3241017122650956,-0.912000370661567,-0.556565808772423,-0.5579639269009924,2.612802295843432
1781552628574558976,3.3515818119049072,1.0518759489059448,0.5894110202789307,0.33088892698287964,-0.4444024860858917,0.5238251686096191,-0.7267143130302429,-0.09263059496879578,0.19754934310913086,-0.04927140474319458,-0.16696485718282159,-0.18459560755684065,0.320261319760074,-0.9140459170347253,-0.5513353074109391,-0.5488492260816666,2.6213093958966107
1781552628584593920,3.361616849899292,0.5344967842102051,0.6171022653579712,0.3755679726600647,-0.438080370426178,0.5181717872619629,-0.7345635890960693,-0.4367823004722595,-0.1530900001525879,0.022130727767944336,-0.16539651082259926,-0.18205486504311533,0.3155538684029715,-0.9164746872672224,-0.5447119935225495,-0.5377548397810907,2.630878410962764
1781552628594629120,3.3716518878936768,0.6554365754127502,0.4023180603981018,0.37565186619758606,-0.4322138726711273,0.5166763663291931,-0.7390783429145813,-0.2605198919773102,-0.004698216915130615,-0.2359887957572937,-0.16416736408350946,-0.1793587743918149,0.31351436643621994,-0.9179261293714358,-0.5429644266510402,-0.5291689071095571,2.6370952306748703
1781552628604663808,3.3816866874694824,-0.20423640310764313,0.6017174124717712,0.14941953122615814,-0.42719390988349915,0.5155747532844543,-0.7427570819854736,-0.18768951296806335,-0.12906962633132935,-0.27826952934265137,-0.16342067691614054,-0.17693885859623842,0.31195207772334393,-0.9190605832970905,-0.5416783251630367,-0.5219441326541111,2.64161049000009
1781552628614697984,3.391720771789551,0.21621787548065186,0.5882418155670166,0.2874724864959717,-0.421587735414505,0.5170615315437317,-0.7449235916137695,-0.3747837245464325,-0.3040488362312317,0.36603260040283203,-0.16342214311984418,-0.17376897774240163,0.31199766971551207,-0.919649418950807,-0.5434144049990776,-0.51500456540401,2.6433893767109162
1781552628624732928,3.4017558097839355,0.2057196944952011,0.5705258250236511,0.025723684579133987,-0.4167861044406891,0.5163784623146057,-0.7480927109718323,-0.2333603799343109,-0.05759245157241821,0.121917724609375,-0.16347229017539627,-0.17118010506812525,0.31088748596461624,-0.9205016171197203,-0.5426165415448212,-0.5083020659675861,2.6458094014825613
1781552628634768128,3.4117908477783203,0.582762598991394,0.5714888572692871,0.05926646664738655,-0.41231855750083923,0.5118516087532043,-0.7536585927009583,-0.28500810265541077,0.022495925426483154,0.021068930625915527,-0.1634572170710079,-0.16907391945278663,0.30754625488192006,-0.9220146409301324,-0.5373387480474913,-0.5006057625028688,2.650122882016495
