time,seconds_elapsed,rotationRateX,rotationRateY,rotationRateZ,gravityX,gravityY,gravityZ,accelerationX,accelerationY,accelerationZ,quaternionW,quaternionX,quaternionY,quaternionZ,pitch,roll,yaw
1781116290375021056,0.07481598854064941,2.0707390308380127,0.756191611289978,-0.5084952712059021,0.5866830945014954,-0.11742326617240906,-0.8012582659721375,-0.05199986696243286,0.18888017535209656,0.013645291328430176,0.8575277565947445,-0.07651141088113367,0.30580530521415034,0.4065406670722431,0.11769479971999051,0.6320128986327241,0.8468807675747158
1781116290385054720,0.08484983444213867,2.3528671264648438,0.8669178485870361,-0.6510135531425476,0.5939105153083801,-0.13178163766860962,-0.7936648726463318,-0.09706908464431763,0.18259340524673462,-0.005575239658355713,0.8582596306982159,-0.06948164945152169,0.31359186613516155,0.4002786106405251,0.13216608419735626,0.6424211716936435,0.8287571409980443
1781116290395089920,0.09488487243652344,2.4766507148742676,0.9025349617004395,-0.7320772409439087,0.6019175052642822,-0.14681415259838104,-0.7849465012550354,-0.16565346717834473,0.09513263404369354,-0.06386947631835938,0.8586119667961586,-0.06225205198065846,0.3219494447882924,0.39402905414769734,0.14734675420882212,0.6541831960778579,0.810412454519811
1781116290405123840,0.1049189567565918,2.4948999881744385,0.9591109156608582,-0.7632879018783569,0.610331654548645,-0.16175781190395355,-0.7754545211791992,-0.22516930103302002,-0.005844727158546448,-0.08327960968017578,0.8592894692265175,-0.0545607555690081,0.3305992462888848,0.38645699122652644,0.16247166707979277,0.666802682609335,0.78889783906686
1781116290415159040,0.11495399475097656,2.4578073024749756,1.06790030002594,-0.770616888999939,0.6194992661476135,-0.17615553736686707,-0.7649770975112915,-0.272285521030426,-0.06804612278938293,-0.1243966817855835,0.8596876922947617,-0.04712552284625624,0.3395447449363037,0.3787159230832022,0.17707954118359007,0.6807044652663399,0.7670438455136219
1781116290425192960,0.12498784065246582,2.4965298175811768,1.066239356994629,-0.7071247696876526,0.629024088382721,-0.19034366309642792,-0.7537227272987366,-0.3179737329483032,-0.07683771848678589,-0.18277019262313843,0.8597753579608728,-0.03975584032153072,0.3486518660911016,0.371008837614464,0.19151219814172277,0.6954596519903037,0.745157467145637
1781116290435227904,0.13502287864685059,2.4805679321289062,0.9844828248023987,-0.6139375567436218,0.638069212436676,-0.20491193234920502,-0.7422121167182922,-0.328224241733551,-0.04571369290351868,-0.15279215574264526,0.8596150521328356,-0.032042181047631825,0.3575852852322622,0.3635493701592665,0.2063737252355166,0.7100903572915152,0.7234676873127268
1781116290445262080,0.14505696296691895,2.2629871368408203,0.8191950917243958,-0.5390105843544006,0.6460167765617371,-0.21881581842899323,-0.7312878966331482,-0.25806206464767456,-0.013590782880783081,-0.09175586700439453,0.8593421800214113,-0.024457090243655635,0.3657292703278082,0.3566160295115224,0.22060071717274687,0.723565477986175,0.7029433337563769
1781116290455297024,0.1550920009613037,1.9252374172210693,0.5780796408653259,-0.40201571583747864,0.6521772742271423,-0.2310224026441574,-0.722006618976593,-0.15965402126312256,-0.023646801710128784,-0.06170004606246948,0.8591192986957576,-0.017523084192233317,0.37241056339976114,0.35059591179661503,0.23312838103555675,0.7346266689193723,0.6848682874509731
1781116290465330944,0.16512584686279297,1.454443335533142,0.41121959686279297,-0.1709582507610321,0.6563985347747803,-0.24134790897369385,-0.7147672176361084,-0.10474753379821777,-0.08824193477630615,-0.0327761173248291,0.8588274555803748,-0.011614673611559437,0.3774671889321382,0.3461200347586146,0.24375458347657183,0.7428551597563775,0.6708604495859679
1781116290475365888,0.17516088485717773,0.8874158263206482,0.29264500737190247,0.06181187555193901,0.6590406894683838,-0.24941326677799225,-0.7095480561256409,-0.10577225685119629,-0.16973040997982025,-0.029007911682128906,0.8583020199616299,-0.007255689087673691,0.3810161937769476,0.3436447219309778,0.25207432285042086,0.7485102201819641,0.6622114648690219
1781116290485400064,0.1851949691772461,0.2802366614341736,0.11057133972644806,0.22888502478599548,0.660149872303009,-0.25454750657081604,-0.706687867641449,-0.12157571315765381,-0.23748737573623657,-0.028617918491363525,0.8576644792672568,-0.004814958830997964,0.382926736034938,0.3431553708143061,0.2573797551195095,0.7513633890745056,0.6592030182417444
1781116290495435008,0.19523000717163086,-0.308499276638031,-0.1712920367717743,0.33496084809303284,0.6592156291007996,-0.2563125491142273,-0.7069219350814819,-0.10045403242111206,-0.2747848629951477,-0.007860779762268066,0.8572264248275072,-0.004293041651298832,0.382780088721195,0.3444180819432586,0.25920537216689427,0.7504917569181616,0.6614939255527287
1781116290505468928,0.20526385307312012,-0.7623093724250793,-0.40151432156562805,0.37389492988586426,0.6562089323997498,-0.2547839283943176,-0.7102640271186829,-0.0005387663841247559,-0.22890442609786987,0.04585063457489014,0.8571564877523813,-0.0054496386731592615,0.3805762459083552,0.3470084102294965,0.257624252360011,0.7458606542593919,0.6680710182298781
1781116290515503872,0.21529889106750488,-0.8755307793617249,-0.46366849541664124,0.36794784665107727,0.6521033048629761,-0.251211553812027,-0.7152999639511108,0.09614193439483643,-0.06528624892234802,0.07722318172454834,0.8573130208903539,-0.007591868197696478,0.3772166108428947,0.35023478617059794,0.25393173405895114,0.7392144587901675,0.6768421037326297
1781116290525538048,0.22533297538757324,-0.6379749178886414,-0.45418232679367065,0.3867763876914978,0.6478133797645569,-0.2480878084897995,-0.7202709913253784,0.08273166418075562,0.075007364153862,0.04070556163787842,0.8574983955098432,-0.009386728789580554,0.3738668251823005,0.3533156750814837,0.2507058554794313,0.7324847771256111,0.6850798778086382
1781116290535572992,0.235368013381958,-0.2904190719127655,-0.3455466628074646,0.5008465051651001,0.6438084244728088,-0.24754419922828674,-0.7240390181541443,0.08498179912567139,0.22570887207984924,0.013162612915039062,0.8574488247977988,-0.009859449470870333,0.3713263703546022,0.3560912485965177,0.25014473787633235,0.7268106587917076,0.6916823085609156
1781116290545606912,0.24540185928344727,-0.17780360579490662,-0.31723752617836,0.575427770614624,0.6400871276855469,-0.24951757490634918,-0.7266563177108765,0.10325998067855835,0.33699625730514526,0.01874011754989624,0.8570635456164013,-0.009173840229915737,0.36957771158441466,0.3588456482926563,0.2521820448449132,0.7221429373384897,0.6973656323697678
1781116290555641856,0.25543689727783203,-0.2589365243911743,-0.37851792573928833,0.5429342985153198,0.6361503601074219,-0.2516125440597534,-0.7293859720230103,0.11369705200195312,0.3340252935886383,0.08726567029953003,0.8566653623392946,-0.008407349405090539,0.3677449306612493,0.36168698972213764,0.25434604228501384,0.7172263113775825,0.7032209173348277
1781116290565676032,0.2654709815979004,-0.48717421293258667,-0.4578143358230591,0.40467068552970886,0.6318623423576355,-0.2519851624965668,-0.7329757213592529,0.09442543983459473,0.22905123233795166,0.1971634030342102,0.856552530988352,-0.008325524628228533,0.36529826257567144,0.36442503111466384,0.2547310671071756,0.7114487417881987,0.7094294255559621
1781116290575710720,0.27550578117370605,-0.6804739236831665,-0.5009642243385315,0.2284701019525528,0.6274726986885071,-0.2496080994606018,-0.7375457882881165,0.06306380033493042,0.1434679627418518,0.28606879711151123,0.8568257086718627,-0.00941274889203047,0.36213049599010977,0.36690953360967166,0.2522755157464143,0.7049337184200568,0.7159676065602001
1781116290585743104,0.2855381965637207,-0.691787838935852,-0.41290998458862305,-0.015113000757992268,0.6237477660179138,-0.24507862329483032,-0.7422096729278564,0.037064552307128906,0.15148121118545532,0.32164692878723145,0.8574257481636026,-0.011380642337630661,0.3588392992020195,0.3686813795356135,0.2476007890939648,0.6988901614252802,0.7215457489790398
1781116290595778304,0.29557323455810547,-0.45952582359313965,-0.4011175036430359,-0.10004546493291855,0.6208177208900452,-0.24028225243091583,-0.7462237477302551,0.015382230281829834,0.24171656370162964,0.31267571449279785,0.8582552124908782,-0.013258061131428885,0.3559667994466084,0.36947244262918544,0.24265660470310124,0.693918850172591,0.7249099158985233
1781116290605811968,0.3056070804595947,-0.0703652873635292,-0.25328436493873596,-0.14629897475242615,0.6186072826385498,-0.23752938210964203,-0.7489358186721802,0.009993791580200195,0.34843024611473083,0.2975198030471802,0.8590559518882135,-0.014003556193741874,0.35402823773337894,0.36944659216651665,0.23982164054050126,0.6903838788663298,0.7257004907652032
1781116290615847168,0.3156421184539795,0.25356459617614746,-0.09979096055030823,-0.2112516164779663,0.6177088022232056,-0.2371724545955658,-0.7497899532318115,-0.008104979991912842,0.3889058828353882,0.2372625470161438,0.8597123416781082,-0.01355786885828053,0.3534419295694138,0.3684964447287054,0.23945422035978758,0.6891109093016154,0.7235859740388465
1781116290625881088,0.32567620277404785,0.38585764169692993,-0.0075715468265116215,-0.22832992672920227,0.6178656816482544,-0.23830637335777283,-0.749301016330719,-0.024588704109191895,0.3383735120296478,0.192874014377594,0.8602321460136462,-0.012419810318969476,0.3538293953841384,0.36694833067102123,0.24062160786528036,0.6895557003224768,0.7196202550268387
1781116290635916288,0.3357112407684326,0.35342273116111755,0.0034420890733599663,-0.2680254280567169,0.6184662580490112,-0.2396191507577896,-0.7483863830566406,-0.0072144269943237305,0.21795165538787842,0.14781570434570312,0.8607006777018593,-0.011231818268418296,0.35451468398854497,0.3652226926086548,0.24197355143283317,0.6906323299521748,0.7151926511456027
1781116290645950976,0.3457460403442383,0.2600344717502594,-0.02754565328359604,-0.32347428798675537,0.6190958023071289,-0.24007421731948853,-0.7477197647094727,0.017210960388183594,0.09514622390270233,0.11878299713134766,0.8612808287798202,-0.010416156936934087,0.3550093446459125,0.3633942148064492,0.24244229758655642,0.6915696815127457,0.7108071291895341
1781116290655985152,0.35578012466430664,0.1701200157403946,-0.03198740631341934,-0.3593715727329254,0.6196820735931396,-0.23953168094158173,-0.7474079728126526,0.03475213050842285,0.012007877230644226,0.08134663105010986,0.8619729827396674,-0.010052625533064626,0.35523927977189634,0.3615335933299605,0.24188346353650514,0.6922395260613176,0.706675349982297
1781116290666020096,0.3658151626586914,0.10920633375644684,-0.044524237513542175,-0.3597204387187958,0.6202824115753174,-0.23831678926944733,-0.7472984194755554,0.03528094291687012,-0.025553464889526367,0.01698225736618042,0.86270025734946,-0.010033355828382927,0.35531693309064555,0.3597187740185972,0.2406323308259911,0.6927874097984329,0.7028748040678917
1781116290676054272,0.37584924697875977,0.0145290931686759,-0.060969121754169464,-0.3433225750923157,0.6207266449928284,-0.23662008345127106,-0.7474686503410339,0.049347877502441406,-0.026655077934265137,-0.02294754981994629,0.8634305358256502,-0.010280856563819142,0.3551900409301707,0.35808111305157425,0.23888566114317766,0.6930272958648424,0.6996451829033218
1781116290686088192,0.385883092880249,-0.0388164184987545,-0.07672598212957382,-0.3497871160507202,0.6209866404533386,-0.2343558520078659,-0.7479658722877502,0.07713347673416138,-0.013599485158920288,-0.057133615016937256,0.8641747861477975,-0.010834306611993983,0.35482344894492973,0.35662991879953865,0.23655590847835126,0.6929063166590076,0.6970353419105243
1781116290696123136,0.3959181308746338,-0.046236783266067505,-0.0833938717842102,-0.4125943183898926,0.6212713718414307,-0.23168136179447174,-0.7485623955726624,0.10288017988204956,-0.033318012952804565,-0.07529014348983765,0.8649894466919561,-0.011548182290186908,0.3543803820835097,0.35506970467801674,0.23380571824498148,0.6927398613207728,0.6943126916452711
1781116290706158080,0.40595316886901855,-0.10083398222923279,-0.009730039164423943,-0.5270196795463562,0.6219230890274048,-0.22822776436805725,-0.7490819096565247,0.11783826351165771,-0.08579811453819275,-0.09843701124191284,0.8659083958640484,-0.012596891227212336,0.3539779050278572,0.353190498372616,0.23025700961516737,0.6929141186621351,0.6911215138723333
1781116290716192256,0.4159872531890869,-0.33988943696022034,0.13088926672935486,-0.7689108848571777,0.6237033605575562,-0.22285646200180054,-0.7492190599441528,0.10932892560958862,-0.16003233194351196,-0.13513457775115967,0.8669274231684189,-0.01462488426687529,0.35380304876503804,0.35077975487153373,0.22474365065608323,0.6942293326951966,0.6873703358966782
1781116290726226944,0.4260220527648926,-0.5199140906333923,0.5551944375038147,-1.2464393377304077,0.6286882162094116,-0.2125491201877594,-0.7480467557907104,0.1005139946937561,-0.2595730423927307,-0.20355230569839478,0.8680371298724653,-0.019317705676982856,0.35440576221262304,0.3471812718319981,0.21418294625597978,0.6989175782472725,0.6826347340646711
1781116290736261120,0.43605613708496094,0.00720673194155097,0.16802038252353668,-1.0971521139144897,0.6339277625083923,-0.20324547588825226,-0.7462083697319031,0.13952505588531494,-0.35162514448165894,-0.2920148968696594,0.869424302814011,-0.023090298756896298,0.35547526895298404,0.3423529381816416,0.2046714431775003,0.7042222047963069,0.6748190216204029
1781116290746296064,0.4460911750793457,0.40270692110061646,0.10234816372394562,-0.8105217218399048,0.636686384677887,-0.19848883152008057,-0.7451393604278564,0.18696779012680054,-0.35975396633148193,-0.25759196281433105,0.8708850157799017,-0.02419907804580928,0.3561526782539604,0.33782992371514753,0.19981583689136198,0.7070734737089884,0.6661383317489782
1781116290756330240,0.45612525939941406,0.6391141414642334,0.08401869237422943,-0.5839335918426514,0.6388832926750183,-0.19833113253116608,-0.7432987093925476,0.05049353837966919,-0.3184077739715576,-0.3278530240058899,0.8719127257031812,-0.023132723628320622,0.35751298355050576,0.3337928612022021,0.1996549338458506,0.7099975142439244,0.65700674371499
1781116290766364928,0.4661600589752197,0.20829589664936066,-0.10880961269140244,-0.35894492268562317,0.6395947933197021,-0.19864217936992645,-0.7426034212112427,-0.06774115562438965,-0.25910621881484985,-0.2670859098434448,0.872787820800827,-0.021987939096106156,0.3580709655929165,0.3309732119660226,0.1999723014471404,0.711010450501768,0.6504601359732144
1781116290776399104,0.4761941432952881,-0.26252779364585876,-0.5477864742279053,-0.0952664241194725,0.6376966238021851,-0.19690361618995667,-0.7446959018707275,-0.02763497829437256,-0.21503789722919464,-0.18174141645431519,0.8737320560592136,-0.02203121657247407,0.35660435912291505,0.33006100059387783,0.1981987075028704,0.7081506464998129,0.6489037566005259
1781116290786434048,0.48622918128967285,-0.33602145314216614,-0.8443739414215088,-0.02182576432824135,0.6324060559272766,-0.19399921596050262,-0.7499512434005737,0.03316706418991089,-0.20549114048480988,-0.14006340503692627,0.8750500211860379,-0.022447844383533838,0.3528745670364952,0.3305497405764996,0.19523718548086036,0.7005697820543434,0.6508310021930904
1781116290796468224,0.4962632656097412,0.2323405146598816,-0.5721301436424255,-0.2523873448371887,0.6270629167556763,-0.19274289906024933,-0.7547464966773987,0.009335339069366455,-0.18134155869483948,-0.18727010488510132,0.8765325619722536,-0.02173588613125622,0.3495058139807813,0.3302481939573567,0.19395670113660854,0.6932566600894521,0.6503860238602412
1781116290806503168,0.5062980651855469,0.6208083629608154,-0.41214460134506226,-0.44593337178230286,0.6242915987968445,-0.1938447505235672,-0.756758987903595,-0.03949856758117676,-0.1344785988330841,-0.33821165561676025,0.8780030566621204,-0.019628111382283816,0.3481885144382567,0.3278566387660182,0.19507972504997192,0.6897728433991105,0.6444794135403957
1781116290816537088,0.5163321495056152,0.7230202555656433,-0.5651479959487915,-0.26406556367874146,0.6213493943214417,-0.19670860469341278,-0.7584396004676819,-0.034618496894836426,-0.09403234720230103,-0.29429471492767334,0.8795133886939304,-0.016480182948978458,0.3471435050646936,0.3250783622143877,0.19799979545201304,0.686367288701936,0.6371243392854475
1781116290826572288,0.5263671875,0.6263525485992432,-0.699112057685852,-0.08024007081985474,0.6168046593666077,-0.20095418393611908,-0.7610317468643188,0.0021680593490600586,-0.15210366249084473,-0.22908055782318115,0.8809350524990608,-0.012682442005596142,0.3454320044149923,0.3232170179910216,0.20233188318113982,0.6811014958954076,0.6313925084250466
1781116290836605952,0.5364010334014893,0.3591083288192749,-0.8242839574813843,-0.03098144754767418,0.6111196279525757,-0.20445874333381653,-0.764676034450531,-0.026830077171325684,-0.29992052912712097,-0.249453604221344,0.8823598691387968,-0.009330040510024598,0.3428920132548236,0.3221475692922079,0.2059107453061891,0.6742453786650697,0.6277253897771621
1781116290846641152,0.546436071395874,-0.04428788274526596,-0.9808293581008911,0.039380867034196854,0.6041492819786072,-0.2057417333126068,-0.7698532938957214,-0.0378497838973999,-0.4130021631717682,-0.24867093563079834,0.8839130134578655,-0.007131908440330229,0.339149675447287,0.3219075850990009,0.20722159490379127,0.6653782925668492,0.6266822864944952
1781116290856675072,0.5564701557159424,-0.4623391926288605,-1.153869390487671,0.08986002206802368,0.5957619547843933,-0.2041037380695343,-0.7767943143844604,-0.0050484538078308105,-0.4428384304046631,-0.22413647174835205,0.8855927758693319,-0.0064655797309992324,0.3340075239086749,0.3226805746836537,0.20554808518566492,0.654260753377149,0.6288670292045027
1781116290866710272,0.5665051937103271,-0.6805998682975769,-1.3105461597442627,0.16978494822978973,0.5858041048049927,-0.2002941519021988,-0.7853125929832458,-0.005176663398742676,-0.4044574499130249,-0.16512686014175415,0.8874199671729771,-0.006836707439893624,0.32756216732848914,0.3242563328699276,0.20165814858768988,0.6409042245965709,0.6335107776931906
1781116290876743936,0.5765390396118164,-0.7412669658660889,-1.3526185750961304,0.2767348289489746,0.5747489333152771,-0.19588406383991241,-0.7945395708084106,-0.0240287184715271,-0.3333212733268738,-0.15567100048065186,0.8892035666671729,-0.007501235964955844,0.32042774224002196,0.3264765985689915,0.19715890165772082,0.6262412943565031,0.6397323905466018
1781116290886779136,0.5865740776062012,-0.6383184790611267,-1.3946959972381592,0.36888501048088074,0.5631426572799683,-0.1921362280845642,-0.8037126064300537,-0.04986757040023804,-0.2407403439283371,-0.137922465801239,0.8908217685491449,-0.007849980900170916,0.3131805829074401,0.32907865884809046,0.19333846648403058,0.6111799736941509,0.6465575546586807
1781116290896813056,0.5966081619262695,-0.4638252258300781,-1.4730676412582397,0.473246306180954,0.550685703754425,-0.19006133079528809,-0.8127865195274353,-0.04319363832473755,-0.14517425000667572,-0.0924411416053772,0.8923316896727187,-0.007258429772811692,0.3058660753461542,0.3318694155121994,0.19122462245080826,0.5954843940650386,0.6532798247955122
1781116290906848256,0.6066431999206543,-0.3522116243839264,-1.5647611618041992,0.5542393922805786,0.5372476577758789,-0.18959540128707886,-0.8218384981155396,-0.005875587463378906,-0.07387810945510864,-0.07652270793914795,0.8937559328027033,-0.005731183848850808,0.29840896747100537,0.3348424141193323,0.19075005502266504,0.5789819729562902,0.6599470851425622
1781116290916881920,0.6166770458221436,-0.2599421441555023,-1.7081267833709717,0.6272092461585999,0.5225831866264343,-0.19023172557353973,-0.8310948610305786,0.0222165584564209,-0.06043964624404907,-0.07629948854446411,0.8951626497443812,-0.003459634115652524,0.29058664819269386,0.3379811129207416,0.19139817838868278,0.5613192671057045,0.6667041276257355
1781116290926917120,0.6267120838165283,-0.3183519244194031,-1.8372496366500854,0.6856352686882019,0.5064453482627869,-0.19132067263126373,-0.8407791256904602,0.05440676212310791,-0.08933424949645996,-0.0984908938407898,0.8965862154982338,-0.000728965350060735,0.28215225886903306,0.3413543953294475,0.19250749244010415,0.5421474010716079,0.673910385774375
1781116290936951040,0.6367461681365967,-0.513817548751831,-1.9885300397872925,0.7433091998100281,0.4888244867324829,-0.19140420854091644,-0.8511257171630859,0.0850280225276947,-0.08699238300323486,-0.08242219686508179,0.8980183175762201,0.0017116981981731326,0.2728263202298274,0.3451461959742067,0.19259260434031597,0.5213283572221044,0.682352582980616
1781116290946986240,0.6467812061309814,-0.7118789553642273,-2.10510516166687,0.7711935639381409,0.4697466194629669,-0.18973971903324127,-0.8621699213981628,0.1156873106956482,-0.06141994893550873,-0.029446899890899658,0.899452686519731,0.003511758694785016,0.2624932645272954,0.3493849608932559,0.19089704362201168,0.4988747398936227,0.6922374791647955
1781116290957020160,0.6568150520324707,-0.856395959854126,-2.2027487754821777,0.7689589262008667,0.44953489303588867,-0.1865120232105255,-0.8735740184783936,0.12479063868522644,-0.0507468581199646,-0.02556532621383667,0.9008870075916539,0.004788302072813744,0.2513763112657025,0.3538213090738053,0.18761067341380863,0.4752535662090541,0.70291184339995
1781116290967055104,0.6668500900268555,-1.1243547201156616,-2.2743680477142334,0.8197839856147766,0.4282701015472412,-0.18135081231594086,-0.8852664232254028,0.12060379981994629,-0.03883352875709534,-0.06491363048553467,0.9022569923085075,0.005338404531636158,0.23945415728285052,0.3585604472896632,0.18235985895132753,0.45058386719546456,0.714628981525618
1781116290977089280,0.6768841743469238,-1.346897006034851,-2.351555824279785,0.8413202166557312,0.4061402678489685,-0.1737106591463089,-0.897148072719574,0.1384459137916565,-0.012370273470878601,-0.09398657083511353,0.903470684747693,0.004853930606345827,0.22672096805626488,0.3637508586793536,0.1745963734428833,0.42509819565694074,0.7277463111889437
1781116290987124224,0.6869192123413086,-1.3527188301086426,-2.4720921516418457,0.7536313533782959,0.382875919342041,-0.1646556854248047,-0.9090074300765991,0.1697058379650116,-0.012529373168945312,-0.0983625054359436,0.9046892005673021,0.004056115899734539,0.21325998693893314,0.3688376615441376,0.16540891475655536,0.39864946449714594,0.7407584384554963
1781116290997158144,0.6969530582427979,-1.4232196807861328,-2.579071283340454,0.6641733646392822,0.35862699151039124,-0.15457986295223236,-0.9205931425094604,0.20578035712242126,-0.01950766146183014,-0.14265453815460205,0.9060094560514985,0.0031926828901886737,0.199231602817633,0.37342134759715556,0.15520219689079953,0.371474796636166,0.7526713551460863
1781116291007193088,0.7069880962371826,-1.4213080406188965,-2.7298574447631836,0.6611493229866028,0.3329107165336609,-0.14374537765979767,-0.9319376349449158,0.2285059094429016,0.0006484389305114746,-0.17340904474258423,0.9073330414460543,0.0024114747337974727,0.18445966900316244,0.3777772974376036,0.14424506088556543,0.343096107948028,0.7640271764822575
1781116291017227264,0.717022180557251,-1.6335194110870361,-2.893805980682373,0.6537169814109802,0.30556756258010864,-0.13170109689235687,-0.9430181980133057,0.25636783242225647,0.0009027570486068726,-0.25999999046325684,0.9085807960890048,0.0014965463833928575,0.16878586759473055,0.38208658450986915,0.13208483056264902,0.31335565467129245,0.7752636151251379
1781116291027262208,0.7270572185516357,-2.027878522872925,-3.0356876850128174,0.6185752749443054,0.2765079140663147,-0.11631117016077042,-0.953947126865387,0.2700466513633728,-0.028174303472042084,-0.33297914266586304,0.9097391333324049,-0.0005349993659462845,0.15174372988327256,0.3864561274792194,0.11657502669165339,0.28212520004553415,0.7868278366687834
1781116291037296128,0.737091064453125,-2.6585583686828613,-3.2513749599456787,0.6082701683044434,0.24568621814250946,-0.09547736495733261,-0.9646358489990234,0.31406718492507935,-0.06565544754266739,-0.3893374800682068,0.9107519264540554,-0.004630413231838135,0.132893273970653,0.3909591310418293,0.09562302136879539,0.24939090870424085,0.7989700173004735
1781116291047331072,0.7471261024475098,-3.3955345153808594,-3.5034708976745605,0.5023698210716248,0.21229413151741028,-0.06736109405755997,-0.9748813509941101,0.4117140471935272,-0.07373692840337753,-0.3646724820137024,0.9115922074755666,-0.011424413033375413,0.11148451993471967,0.39552535561177415,0.06741214331663185,0.21441659480144407,0.8114851521820113
1781116291057365248,0.7571601867675781,-4.223505020141602,-3.6838111877441406,0.3084386885166168,0.17678672075271606,-0.030766772106289864,-0.9837681651115417,0.49579018354415894,-0.06505842506885529,-0.311748743057251,0.9122657412404247,-0.02145966799875594,0.08749505851954076,0.39956891788563154,0.03077162784900451,0.17780586014355337,0.8229105490733054
1781116291067400192,0.7671952247619629,-5.025906085968018,-4.000385761260986,0.14506682753562927,0.13888373970985413,0.014577646739780903,-0.9902014136314392,0.4979723393917084,-0.06041505187749863,-0.2622705101966858,0.9125857740588531,-0.034796787580931195,0.06073291587912473,0.4028495832338103,-0.014578163317624229,0.13934903815564817,0.8324384596347378
1781116291077435136,0.7772302627563477,-5.5052900314331055,-4.228994846343994,-0.07063697278499603,0.09772338718175888,0.06734371185302734,-0.9929324984550476,0.4901672303676605,-0.056815147399902344,-0.2146022915840149,0.9123111368584579,-0.0506951586012674,0.031044271474256722,0.4051601513352524,-0.0673947188539273,0.09810302320548012,0.8391882038288123
1781116291087469056,0.7872641086578369,-5.836752414703369,-4.39834451675415,-0.4556392431259155,0.05469322204589844,0.12402798235416412,-0.9907702803611755,0.48769569396972656,-0.041477933526039124,-0.25393491983413696,0.9114634663930741,-0.06793240903631653,-0.00023680721142447562,0.40573346756269274,-0.12434818665244475,0.05514675660434373,0.841052584541009
1781116291097504256,0.7972991466522217,-5.872777462005615,-4.541157245635986,-0.982061505317688,0.009012467227876186,0.1823531836271286,-0.9831917881965637,0.45038390159606934,-0.008372470736503601,-0.16021031141281128,0.9102786619762503,-0.0855341960656567,-0.03298495935947975,0.40371851015513577,-0.18337923545292306,0.0091662834914613,0.8357318165569446
1781116291107538176,0.80733323097229,-5.957974433898926,-4.643385410308838,-1.4764693975448608,-0.038430530577898026,0.2401447892189026,-0.9699760675430298,0.46346408128738403,0.05380052328109741,-0.11912000179290771,0.9088630444053939,-0.10301482066211294,-0.06633183002594788,0.3986929594379179,-0.24251500740673032,-0.039599369347272415,0.8219618516026572
1781116291117573120,0.8173680305480957,-5.8520283699035645,-4.784924030303955,-1.5227748155593872,-0.08808568865060806,0.29620757699012756,-0.9510530829429626,0.45763829350471497,0.11962491273880005,0.008197247982025146,0.9065755436046704,-0.11993870524183511,-0.10043982824716374,0.391978942664148,-0.3007195988873294,-0.09235562537265914,0.8021965763677467
1781116291127607040,0.8274021148681641,-5.7424468994140625,-4.599666118621826,-1.7649011611938477,-0.1376895159482956,0.3489629328250885,-0.9269662499427795,0.4790744185447693,0.11124211549758911,0.007685303688049316,0.9032430522645873,-0.13611733044121246,-0.134122848724947,0.3842330381315018,-0.3564642332786196,-0.14745959792510704,0.777795850101518
1781116291137642240,0.8374371528625488,-5.760909080505371,-4.431479454040527,-2.1078011989593506,-0.18634267151355743,0.39837363362312317,-0.8980951309204102,0.42230457067489624,-0.01922324299812317,0.011162757873535156,0.8993882487934077,-0.15201165690829554,-0.16686789412722533,0.37436394674797224,-0.40974303041372406,-0.20458371366659292,0.7462077269975975
1781116291147676160,0.8474712371826172,-5.871883392333984,-4.331783294677734,-2.3264596462249756,-0.2344825118780136,0.44513049721717834,-0.8642203211784363,0.3924262523651123,-0.11288562417030334,0.12589329481124878,0.8948020959448206,-0.1680558103378842,-0.19911572959185875,0.3625457142747289,-0.46131998025304577,-0.26494416458275544,0.7073427283357021
1781116291157711104,0.8575060367584229,-5.9197163581848145,-4.17662239074707,-2.5584864616394043,-0.28206464648246765,0.4888993799686432,-0.8254798054695129,0.38233014941215515,-0.1400376856327057,0.19462043046951294,0.8893491178631379,-0.18425998074114028,-0.23088601517234886,0.3489957300590984,-0.5108276074934754,-0.32925960983258684,0.6611984538208664
1781116291167745024,0.8675401210784912,-5.758796691894531,-4.033173084259033,-2.8163998126983643,-0.32886990904808044,0.5277685523033142,-0.783137857913971,0.28495511412620544,-0.1531957983970642,0.22698551416397095,0.8832707313502207,-0.19987015285155205,-0.2616925589570723,0.33376882378785505,-0.5559712853506981,-0.39757589554298023,0.6077331183455662
1781116291177780224,0.877575159072876,-5.595637798309326,-3.7439751625061035,-2.89704966545105,-0.3743824064731598,0.5610777139663696,-0.7382612228393555,0.1589893400669098,-0.12604963779449463,0.22994518280029297,0.8766121446918705,-0.21461362067202164,-0.291222223645128,0.31730391000084657,-0.595687184686804,-0.46932237670779736,0.5480784565638921
1781116291187814144,0.8876092433929443,-5.3268914222717285,-3.425309419631958,-3.05519700050354,-0.41715553402900696,0.5885021090507507,-0.6925652027130127,0.06702733039855957,-0.08917349576950073,0.1626121997833252,0.8696707609814879,-0.2284623625574697,-0.31862572917567855,0.2999256157736293,-0.6292049004161749,-0.5421338797481445,0.4838226824606234
1781116291197849088,0.89764404296875,-4.977202415466309,-3.0936224460601807,-3.21555757522583,-0.4579704701900482,0.6094133257865906,-0.6472081542015076,0.03681263327598572,-0.054512202739715576,0.13695424795150757,0.8627397715141281,-0.24090000215518714,-0.344039405357353,0.2815742764102783,-0.6553204179859629,-0.6158146009017805,0.41558205015892363
1781116291207883008,0.9076781272888184,-4.650184154510498,-2.826366662979126,-3.3827877044677734,-0.49695733189582825,0.6236909031867981,-0.6033598780632019,0.08368828892707825,0.013775527477264404,0.1114928126335144,0.8560376717142274,-0.2516446569451555,-0.3674167056419638,0.26244896867740825,-0.6734556451011228,-0.6889962107039023,0.3450774068909591
1781116291217918208,0.9177131652832031,-4.475090026855469,-2.4155421257019043,-3.4216959476470947,-0.5338405966758728,0.6327195763587952,-0.5609636306762695,0.1076931357383728,0.055909574031829834,0.12112903594970703,0.849489047503888,-0.261366546997463,-0.3888517973643025,0.24259051714671098,-0.6850601030864657,-0.760628917902067,0.2731347281862995
1781116291227952128,0.9277472496032715,-4.007880687713623,-2.172895908355713,-3.5083959102630615,-0.5681109428405762,0.6367349624633789,-0.5213621258735657,0.13448673486709595,0.04324239492416382,0.05929553508758545,0.8433419164041949,-0.26991970466181725,-0.40799791044224426,0.22238564421634985,-0.6902564642472991,-0.8282814340853764,0.20218442960342892
1781116291237987072,0.9377820491790771,-3.5851681232452393,-2.0396742820739746,-3.528886079788208,-0.6012955904006958,0.6350640654563904,-0.4849095940589905,0.1860734224319458,-0.04337400197982788,0.08091789484024048,0.8375237737585352,-0.2761886075134509,-0.42575234943895235,0.20250627240657076,-0.6880914887766828,-0.8921400925539179,0.13508645843437944
1781116291248021248,0.9478161334991455,-3.4262473583221436,-1.8204323053359985,-3.445237874984741,-0.6325265169143677,0.6298933029174805,-0.4507157802581787,0.2544747591018677,-0.09806346893310547,0.07801985740661621,0.8317891562721217,-0.28137371348574,-0.442120952346105,0.18298847816174804,-0.6814158090641298,-0.9516876583107217,0.07166496468757429
1781116291258056192,0.9578511714935303,-3.186149835586548,-1.6743338108062744,-3.349777936935425,-0.6613874435424805,0.6223569512367249,-0.41861504316329956,0.28118419647216797,-0.11803865432739258,0.12111437320709229,0.8261095233744045,-0.28602462564250397,-0.45703652826933966,0.16386175154160332,-0.6717502849500443,-1.006511524645082,0.011866516576163721
1781116291268090368,0.9678852558135986,-2.8899013996124268,-1.5972709655761719,-3.2983558177948,-0.6885618567466736,0.6122046113014221,-0.3887006938457489,0.3232511878013611,-0.17754268646240234,0.154157817363739,0.820482280901016,-0.2895821972563898,-0.4709477663386304,0.14546252190837067,-0.6588457851168603,-1.0568805920660183,-0.043085745561830875
1781116291278125056,0.9779200553894043,-2.6142947673797607,-1.5046464204788208,-3.273611068725586,-0.7142139673233032,0.599499523639679,-0.36124590039253235,0.3882405161857605,-0.22984015941619873,0.11774614453315735,0.8150570717607193,-0.2919591754420338,-0.48387694323948355,0.12769026631392344,-0.6428756713291996,-1.1025234299451219,-0.09308443433093766
1781116291288159232,0.9879541397094727,-2.3582730293273926,-1.573287010192871,-3.1303577423095703,-0.7385419011116028,0.5848981142044067,-0.335335910320282,0.4323437213897705,-0.21392643451690674,0.10038107633590698,0.8095655996182279,-0.2933343143281238,-0.4962731283475583,0.1107770651671312,-0.6247544231050194,-1.1445784207752776,-0.13825824840457798
1781116291298194176,0.9979891777038574,-2.116913080215454,-1.4855479001998901,-2.9998726844787598,-0.761245846748352,0.5691432356834412,-0.310774564743042,0.42504894733428955,-0.19293779134750366,0.12019228935241699,0.8039577771729945,-0.2938657321804028,-0.5081885924323754,0.09507489113002643,-0.6054634841735872,-1.1832027250499613,-0.17827092390805382
1781116291308228352,1.0080232620239258,-1.878841519355774,-1.4263468980789185,-2.8737986087799072,-0.7821400165557861,0.5524017214775085,-0.2882871925830841,0.35925787687301636,-0.21512144804000854,0.039553701877593994,0.79856533382625,-0.2937050935172011,-0.5192241551396771,0.0802315577705204,-0.5852427356435002,-1.2176592040366172,-0.21379132766773
1781116291318263040,1.0180580615997314,-1.7506155967712402,-1.3978397846221924,-2.7541396617889404,-0.8014032244682312,0.5350918769836426,-0.2672633230686188,0.3010675311088562,-0.2618985176086426,0.03429210186004639,0.7932403344712154,-0.2929843590875015,-0.5296494217290998,0.06634373828923133,-0.5646164885378292,-1.2489010137757541,-0.24523773435959448
1781116291328297216,1.0280921459197998,-1.754645586013794,-1.4030503034591675,-2.6236650943756104,-0.8192187547683716,0.5177230834960938,-0.24666443467140198,0.27788275480270386,-0.2632370591163635,0.03771062195301056,0.7877316750107265,-0.2922942900504921,-0.5396589973633668,0.053018809780525804,-0.5441874629611353,-1.278333289288716,-0.2745479919383816
1781116291338332160,1.0381271839141846,-1.7471647262573242,-1.388771891593933,-2.465941905975342,-0.8355079889297485,0.5007738471031189,-0.22616806626319885,0.25219500064849854,-0.25863218307495117,0.023378804326057434,0.7819610331387086,-0.29192324799387176,-0.5492693217252,0.04026133835854566,-0.5244925658217603,-1.3064365736014922,-0.30233182958870003
1781116291348366080,1.0481610298156738,-1.7200177907943726,-1.362413763999939,-2.3570051193237305,-0.8503807187080383,0.4841752052307129,-0.20597808063030243,0.22043687105178833,-0.2930589020252228,-0.015884682536125183,0.7760166346820244,-0.2917703956091595,-0.5584630653081025,0.028057234645675683,-0.5054202841338485,-1.3331545747762577,-0.3285650878728004
1781116291358401024,1.0581960678100586,-1.769677758216858,-1.290509581565857,-2.227677822113037,-0.8639294505119324,0.46788090467453003,-0.18631523847579956,0.18390625715255737,-0.30761784315109253,-0.01473456621170044,0.769997234181589,-0.2919002936556339,-0.5671301445092822,0.01618330230239587,-0.48689153119104067,-1.3583891836756907,-0.35375891567203155
1781116291368435200,1.068230152130127,-1.7288848161697388,-1.2932137250900269,-2.157975435256958,-0.8762970566749573,0.4519071877002716,-0.16698341071605682,0.1853485107421875,-0.25320717692375183,0.008352980017662048,0.7638523956917388,-0.29233190065194087,-0.5753697548167859,0.004614717789472365,-0.46890212643895157,-1.382498087882348,-0.3781451039979925
1781116291378470144,1.0782651901245117,-1.5858421325683594,-1.3702290058135986,-2.0937323570251465,-0.8878674507141113,0.435712605714798,-0.14780350029468536,0.2041059136390686,-0.16874483227729797,0.02028578519821167,0.7575365390022033,-0.292465752824816,-0.583576931759049,-0.006335403884310187,-0.45082982437913,-1.4058387902491412,-0.40053223933284704
1781116291388504064,1.088299036026001,-1.527144432067871,-1.3514076471328735,-2.0452423095703125,-0.8986278176307678,0.4193481206893921,-0.12890052795410156,0.20197242498397827,-0.0763610303401947,0.008615478873252869,0.7511118125274364,-0.29236591693593955,-0.5916687442679271,-0.01677531088871409,-0.43272714805061135,-1.4283266356835989,-0.4211976205337002
1781116291398539008,1.0983340740203857,-1.3561275005340576,-1.2660571336746216,-2.0133321285247803,-0.9085674285888672,0.402705579996109,-0.11105681955814362,0.1675701141357422,-0.011775404214859009,0.012912333011627197,0.7448565475448877,-0.29187529296989445,-0.5994000356235224,-0.02678082640076408,-0.414470794623687,-1.4491667910702102,-0.43990446254209403
1781116291408574208,1.1083691120147705,-1.2456611394882202,-1.1908766031265259,-1.9865515232086182,-0.9177418351173401,0.3857327997684479,-0.09465848654508591,0.1695728302001953,-0.005178540945053101,-0.01357211172580719,0.7389244620948386,-0.2908394645825819,-0.6066985770543792,-0.03633103721565127,-0.3960019725187016,-1.4680169453938523,-0.45637965710185446
1781116291418608128,1.1184031963348389,-1.2449537515640259,-1.1647824048995972,-1.9032717943191528,-0.9261408448219299,0.3687930703163147,-0.07908740639686584,0.2197352647781372,-0.00644257664680481,0.010941684246063232,0.7331182089186347,-0.28970945169230355,-0.613616108671554,-0.045622572112318245,-0.37771021693542356,-1.4856084164759673,-0.4717760932589398
1781116291428643328,1.1284382343292236,-1.2674345970153809,-1.1426981687545776,-1.7817277908325195,-0.9336391687393188,0.35248133540153503,-0.06383643299341202,0.2936396598815918,-0.014026105403900146,0.05063759535551071,0.7272815958491738,-0.28887767158915845,-0.620186644900584,-0.054587991590171796,-0.3602213028535209,-1.502528804378389,-0.48672957150257634
1781116291438676992,1.138472080230713,-1.3056174516677856,-1.079847812652588,-1.620347499847412,-0.9401589632034302,0.33720213174819946,-0.0489470399916172,0.35487765073776245,-0.06165897846221924,0.0636565089225769,0.7214433328995523,-0.2885570713501409,-0.6263076689974933,-0.06319019519397673,-0.34394339419467,-1.518780772152185,-0.5015507164476043
1781116291448712192,1.1485071182250977,-1.330939769744873,-1.0511014461517334,-1.456966757774353,-0.9457048177719116,0.3231891393661499,-0.03451252728700638,0.3776048421859741,-0.1231464147567749,0.09855365753173828,0.7156560886063752,-0.2888124136380101,-0.6319265194619977,-0.07136240842426465,-0.329097536446034,-1.534318540559136,-0.5162822539122299
1781116291458746112,1.158541202545166,-1.3290817737579346,-1.0094730854034424,-1.2691622972488403,-0.9503244757652283,0.31059110164642334,-0.02040931023657322,0.37909650802612305,-0.13799893856048584,0.13115757703781128,0.7099072274121879,-0.2896275591343859,-0.6371116244854422,-0.07897070176096595,-0.3158148143235264,-1.5493234788653298,-0.5307834916835225
1781116291468781312,1.1685762405395508,-1.1991503238677979,-0.8538422584533691,-1.115286111831665,-0.9540920853614807,0.2994174361228943,-0.007587813306599855,0.3478756546974182,-0.09839814901351929,0.12172359228134155,0.7045671031776881,-0.2907121327658636,-0.6416327214672088,-0.08590191905033674,-0.30408203037995585,-1.5628435794295046,-0.5443553723755511
1781116291478814976,1.17861008644104,-1.0490365028381348,-0.753857433795929,-0.9707470536231995,-0.9571882486343384,0.289447158575058,0.0033345604315400124,0.3135572671890259,-0.03883680701255798,0.11005353927612305,0.6999032056035865,-0.2916409374821014,-0.6454555319864859,-0.09202315177091276,-0.29364921291595925,-1.5742800166132411,-0.5561191607616923
1781116291488850176,1.1886451244354248,-0.9683837294578552,-0.7471532225608826,-0.8034811019897461,-0.9596680402755737,0.2808151841163635,0.01342635229229927,0.33216553926467896,0.048286378383636475,0.11232137680053711,0.6955687168412871,-0.29264968407296843,-0.6488985580526233,-0.09731932504866694,-0.28464337186708166,-1.5847860361024848,-0.5666203481110823
1781116291498884096,1.1986792087554932,-0.7865598797798157,-0.7060586214065552,-0.604059636592865,-0.9614975452423096,0.27385440468788147,0.022936798632144928,0.3431810140609741,0.10840874910354614,0.10542011260986328,0.6915312391538535,-0.29377458948864976,-0.6520466928500412,-0.10156804361219621,-0.27739836215746433,-1.5946470886434465,-0.5756689985826035
1781116291508919296,1.208714246749878,-0.6832143068313599,-0.6138690710067749,-0.44357699155807495,-0.9627313613891602,0.2686466574668884,0.03126249089837074,0.31609439849853516,0.09008747339248657,0.06019866466522217,0.6880307595574057,-0.29494950920427654,-0.6547030111639556,-0.1047971480141046,-0.27198775922576707,-1.6032576254546973,-0.5831533513659135
1781116291518952960,1.2187480926513672,-0.5167534351348877,-0.5950210690498352,-0.2967910170555115,-0.9635093808174133,0.26486629247665405,0.038674332201480865,0.28093791007995605,0.04603153467178345,0.034354209899902344,0.6849656843589499,-0.29613415709173635,-0.6569944653682152,-0.10716770661448005,-0.2680652583343028,-1.6109138228884055,-0.5892996799918164
1781116291528988160,1.228783130645752,-0.3529101610183716,-0.5656114816665649,-0.14796265959739685,-0.9638445377349854,0.2625555992126465,0.04547823965549469,0.24304986000061035,0.004839420318603516,0.022942185401916504,0.682271291909502,-0.29720314263463443,-0.6590974220804702,-0.10847467256044267,-0.26566976038076495,-1.6179455642327973,-0.5936811066408114
1781116291539022080,1.2388172149658203,-0.36871281266212463,-0.5526609420776367,-0.019775396212935448,-0.9637906551361084,0.2615915834903717,0.05174427852034569,0.1945645809173584,-0.015558868646621704,0.014539957046508789,0.6798750788554931,-0.2984182305010534,-0.6609226124718717,-0.10907679301873431,-0.26467085436462534,-1.624433130746697,-0.5972396419071508
1781116291549057280,1.248852252960205,-0.39907073974609375,-0.5787657499313354,0.14188487827777863,-0.9633280038833618,0.2619251012802124,0.05826080963015556,0.1523692011833191,-0.0437549352645874,0.028912659734487534,0.6774297653234645,-0.300274624504316,-0.6625447561400799,-0.10935475712848246,-0.265016399379215,-1.6312014337488911,-0.60140843070504
1781116291559091200,1.2588860988616943,-0.3248995542526245,-0.5963752865791321,0.34367233514785767,-0.9623181819915771,0.26406821608543396,0.06489743292331696,0.10919934511184692,-0.09983789920806885,0.01957523077726364,0.6750617304129982,-0.30262658520464075,-0.6639773086565237,-0.10882529077512207,-0.26723770734238134,-1.6381330113651151,-0.6052882485914052
1781116291569126144,1.268921136856079,-0.4456864297389984,-0.5713087916374207,0.48919224739074707,-0.9608228802680969,0.2677834928035736,0.07149629294872284,0.03711670637130737,-0.13561180233955383,-0.05527614802122116,0.6727819389286426,-0.30556372056961084,-0.6651157488886842,-0.10777974679239541,-0.27109176700245274,-1.6450709626543603,-0.6094292328347596
1781116291579160320,1.2789552211761475,-0.6327902674674988,-0.5488274693489075,0.7004810571670532,-0.9587952494621277,0.27308306097984314,0.07834237813949585,-0.06410831212997437,-0.12453868985176086,-0.05632399767637253,0.6704006159828839,-0.3096703506981216,-0.6657893540883357,-0.10673295303173401,-0.2765964562688261,-1.65232439793944,-0.6155467503905875
1781116291589195776,1.2889907360076904,-0.722350537776947,-0.5437543988227844,0.9267399907112122,-0.95609450340271,0.280321329832077,0.08545833826065063,-0.16783732175827026,-0.10360932350158691,-0.06574404984712601,0.6679458952438255,-0.31497379924858293,-0.6659734780128443,-0.10544682682672238,-0.2841288470347709,-1.6599421577988427,-0.6234021541531297
1781116291599229696,1.2990248203277588,-0.71466463804245,-0.5461214184761047,1.129172444343567,-0.9526565074920654,0.2895485460758209,0.0927744135260582,-0.3148910403251648,-0.0968300998210907,-0.110505111515522,0.6655006603056408,-0.32113040223145395,-0.6657795960449066,-0.10354510094558222,-0.2937551588666546,-1.6678751641042462,-0.6319603264814774
1781116291609264896,1.3090598583221436,-0.6089142560958862,-0.4368024170398712,1.2135823965072632,-0.9486715793609619,0.3001914620399475,0.09953531622886658,-0.5150125026702881,-0.10454332828521729,-0.12459028512239456,0.6633474473576273,-0.3275575530840397,-0.6651869721350873,-0.10100728675666859,-0.30489337641357783,-1.675334582816233,-0.6401669432124988
1781116291619298816,1.3190937042236328,-0.5335574150085449,-0.08869143575429916,1.1533180475234985,-0.944739818572998,0.3109048902988434,0.10394537448883057,-0.7360156774520874,-0.09821265935897827,-0.11017097532749176,0.6620631052841064,-0.33355477477267126,-0.6638628609672343,-0.09848700739760423,-0.3161449549508992,-1.6803809428957106,-0.6474708129280635
1781116291629333760,1.3291287422180176,-0.41065308451652527,0.3846854567527771,0.9725804924964905,-0.9414939880371094,0.32055673003196716,0.10407957434654236,-0.8785591125488281,-0.025299161672592163,-0.08070313930511475,0.6622649686779724,-0.33865339089823787,-0.6613272018985061,-0.09677495230532293,-0.3263171828530649,-1.680896529543479,-0.6537881221469867
1781116291639367936,1.339162826538086,-0.06421179324388504,0.7193815112113953,0.6523300409317017,-0.9394143223762512,0.32802024483680725,0.09951664507389069,-0.8368613123893738,0.11610209941864014,-0.05444216728210449,0.6641195962816855,-0.34191170480712074,-0.6579169459478468,-0.09584818543703787,-0.3342070917170781,-1.6763374760685879,-0.6573426137801688
1781116291649402880,1.3491978645324707,0.312629759311676,0.7222755551338196,0.375931978225708,-0.9384686946868896,0.3328765630722046,0.09203093498945236,-0.6212236881256104,0.2712646722793579,-0.016057491302490234,0.6670468549024825,-0.342785153415132,-0.6546096597445146,-0.09504209516775027,-0.3393524800609393,-1.6685487794319318,-0.6565479104907667
1781116291659437824,1.3592329025268555,0.7425172328948975,0.3916035592556,0.2785356640815735,-0.9378926157951355,0.33636775612831116,0.08493737876415253,-0.33693355321884155,0.39335334300994873,0.0305868461728096,0.6699568270524195,-0.34181108559983453,-0.6524062167771331,-0.09321614570650465,-0.3430572382719324,-1.6611119025967214,-0.6513055784462798
1781116291669471744,1.3692667484283447,1.0758166313171387,0.1354479193687439,0.1385335475206375,-0.9373775720596313,0.33914193511009216,0.0794118195772171,-0.10301244258880615,0.42983999848365784,0.03646349906921387,0.6724656427829891,-0.3392858149702806,-0.651606510703629,-0.08991175692448918,-0.34600462558618916,-1.6553115290674996,-0.641702777638814
1781116291679506688,1.3793017864227295,1.2699631452560425,-0.009760664775967598,0.053651947528123856,-0.9371247291564941,0.3408817648887634,0.07481413334608078,0.01772153377532959,0.36025962233543396,0.047546155750751495,0.674699107610262,-0.3355718433514251,-0.6517657589546124,-0.08587310010497813,-0.3478546684184083,-1.6504610655079905,-0.6292719891074475
1781116291689540864,1.3893358707427979,1.4269107580184937,-0.1326833963394165,0.03182787448167801,-0.9369158148765564,0.3422938287258148,0.07087816298007965,0.0662340521812439,0.23531237244606018,0.03985488414764404,0.676737431984518,-0.3311573722299434,-0.652513506779062,-0.0811625759172015,-0.34935711208259446,-1.6463030199898454,-0.6148887968120504
1781116291699575808,1.3993709087371826,1.4388790130615234,-0.1702882945537567,-0.02339143678545952,-0.936780571937561,0.34338152408599854,0.06731589138507843,0.06359630823135376,0.11763226985931396,0.010183453559875488,0.6786339909078936,-0.3263282694821675,-0.6535807576000977,-0.07614466991902756,-0.35051499011396625,-1.6425317869940836,-0.5994873114141501
1781116291709609728,1.4094047546386719,1.2735568284988403,-0.26137104630470276,-0.043108947575092316,-0.9367642402648926,0.3439411222934723,0.06463226675987244,0.0527462363243103,0.0437847375869751,-0.008754603564739227,0.6801311502119559,-0.3216485654573709,-0.6548727623335806,-0.07145302767502289,-0.3511108888744089,-1.6396823919526053,-0.5849517859929876
1781116291719644672,1.4194397926330566,1.0687869787216187,-0.35197433829307556,-0.10707514733076096,-0.9368011355400085,0.3440544903278351,0.06348399817943573,0.039248645305633545,0.012589186429977417,-0.02681708335876465,0.6809738485500263,-0.31751962236708275,-0.6564474768883463,-0.06732497184719262,-0.35123162569866195,-1.6384596610674853,-0.5723745493025003
1781116291729678848,1.429473876953125,0.7830971479415894,-0.3406308591365814,-0.21215815842151642,-0.9371256232261658,0.34315216541290283,0.06357871741056442,-0.01610618829727173,-0.016980290412902832,-0.03634178638458252,0.6812366240098684,-0.3139325003006819,-0.6582064604127997,-0.06424463088900864,-0.350270793758499,-1.6385369111143624,-0.5623438724315839
1781116291739713792,1.4395089149475098,0.5137420892715454,-0.25374072790145874,-0.30102118849754333,-0.9378098845481873,0.3411688506603241,0.06415942311286926,-0.06742388010025024,-0.0621008574962616,-0.019542694091796875,0.6811856072218649,-0.3109654617099017,-0.6598334583894265,-0.06250178099490719,-0.3481600839563774,-1.6391039905889104,-0.5552424591686588
1781116291749747712,1.449542760848999,0.26225635409355164,-0.13639037311077118,-0.39263471961021423,-0.9388643503189087,0.33816224336624146,0.06465432792901993,-0.08294045925140381,-0.11108094453811646,-0.0013151168823242188,0.6810399560144652,-0.3085636145959067,-0.6611472301275801,-0.062108755016796864,-0.34496340496483924,-1.639552173788788,-0.5508907419749529
1781116291759782912,1.4595777988433838,0.10484567284584045,-0.11673092097043991,-0.4921727478504181,-0.9402878284454346,0.3340894281864166,0.0651392862200737,-0.055897533893585205,-0.12225165963172913,0.022415637969970703,0.6807943673484337,-0.3065032814512333,-0.6622879885260494,-0.06284425250321446,-0.3406389827740903,-1.639961721645761,-0.5486323344300592
1781116291769816832,1.4696118831634521,0.003943027928471565,-0.17500461637973785,-0.5276561975479126,-0.9419034719467163,0.32926684617996216,0.06633981317281723,0.01645803451538086,-0.06968435645103455,0.04585801810026169,0.6802250058886425,-0.3046747523899909,-0.6635836059573488,-0.06421792571949793,-0.3355270175966823,-1.641111857583523,-0.5477394789101325
1781116291779852032,1.479646921157837,0.04754723235964775,-0.2638009488582611,-0.5424646735191345,-0.9435044527053833,0.3242415189743042,0.0683136060833931,0.1006547212600708,0.015876829624176025,0.0399780198931694,0.6793638405216001,-0.30289675634082197,-0.6651393525332238,-0.06563487726925381,-0.33020982838554286,-1.6430743188520516,-0.547111338263028
1781116291789885696,1.4896807670593262,-0.011049769818782806,-0.4114644229412079,-0.5769856572151184,-0.9450782537460327,0.3189559280872345,0.07137440890073776,0.15116345882415771,0.043730229139328,0.03203439712524414,0.6781089206446135,-0.3010379591333492,-0.6671306852860124,-0.06694124042108987,-0.3246276857765697,-1.6461754541434765,-0.5463693445823689
1781116291799920896,1.499715805053711,-0.07630440592765808,-0.5478982925415039,-0.5737366080284119,-0.9465523362159729,0.31343910098075867,0.07612353563308716,0.16664499044418335,0.02364283800125122,0.06088507920503616,0.6762154056489693,-0.2994388879631263,-0.6696253587614704,-0.06834514579931782,-0.3188124690431113,-1.651045513873694,-0.5464312121079986
1781116291809954816,1.5097498893737793,-0.04693453386425972,-0.5767437815666199,-0.5742127895355225,-0.947874903678894,0.3079741597175598,0.08176397532224655,0.12805062532424927,-0.03406360745429993,0.05016351491212845,0.6739957288532186,-0.29793085563349014,-0.6723980903372172,-0.0696269636310362,-0.31306297376015163,-1.6568436251313279,-0.5465895564299832
1781116291819990016,1.519784927368164,-0.14302246272563934,-0.4480418860912323,-0.5607267618179321,-0.9491901397705078,0.30245769023895264,0.08693426102399826,0.022432267665863037,-0.08874306082725525,0.050776369869709015,0.6719250683877427,-0.296450970911586,-0.6749695947543193,-0.07106096191734056,-0.3072700715809787,-1.6621293447687329,-0.5469017981355265
1781116291830023680,1.5298187732696533,-0.3113808333873749,-0.24757695198059082,-0.5434362292289734,-0.9505248069763184,0.2970188558101654,0.09100834280252457,-0.08969742059707642,-0.08205297589302063,0.07314563542604446,0.6701793141019438,-0.2955109463696683,-0.676888064521359,-0.07318180985357614,-0.3015690986389894,-1.6662507167846143,-0.5488289116061006
1781116291840058880,1.539853811264038,-0.3414266109466553,-0.010698764584958553,-0.5343686938285828,-0.9520077109336853,0.2915511131286621,0.09316248446702957,-0.14882230758666992,-0.06021261215209961,0.0705949068069458,0.6690703207424538,-0.2948087024639823,-0.677988990464897,-0.07591892099200839,-0.29584800765494174,-1.6683446884472801,-0.5516748161109476
1781116291850092800,1.5498878955841064,-0.4715968668460846,0.060868632048368454,-0.4855138063430786,-0.9535183906555176,0.28630879521369934,0.09396673738956451,-0.12640702724456787,-0.05675560235977173,0.08639215677976608,0.6684068656707618,-0.29441076872833977,-0.6784583014398262,-0.0790494823583089,-0.2903721369293444,-1.669026529396308,-0.5553453794851672
1781116291860127744,1.559922695159912,-0.5586391091346741,0.04821701720356941,-0.45283520221710205,-0.9548899531364441,0.2813510298728943,0.09500924497842789,-0.06165057420730591,-0.053949326276779175,0.12763166427612305,0.667603137940729,-0.2945679745335249,-0.67877413851257,-0.08247071312720852,-0.28520172545818717,-1.6699675153910156,-0.5603404589567282
1781116291870162688,1.5699577331542969,-0.5267855525016785,0.11161036789417267,-0.4501592516899109,-0.9562192559242249,0.27653414011001587,0.095779649913311,-0.028705060482025146,-0.07305818796157837,0.1676023006439209,0.6668768581687279,-0.29482929258657936,-0.6789444111552511,-0.08593894798620026,-0.2801857166574917,-1.6706282883124333,-0.5655298612972612
1781116291880196864,1.5799918174743652,-0.5394784212112427,0.13282577693462372,-0.41158363223075867,-0.9575281143188477,0.2718767821788788,0.09603694826364517,-0.03209596872329712,-0.07966181635856628,0.2108783721923828,0.666327274952224,-0.2950860085148585,-0.6789276270824723,-0.08938428516785062,-0.275342748305907,-1.6707587768359715,-0.5706138408520174
1781116291890231808,1.59002685546875,-0.5121562480926514,0.23215076327323914,-0.3622424602508545,-0.958733320236206,0.2676784098148346,0.09580618888139725,-0.05199366807937622,-0.051415592432022095,0.22584903240203857,0.6659570490191281,-0.29546986845633305,-0.678675661181511,-0.09272622851004522,-0.27098270939438485,-1.670395645439045,-0.5757056577670758
1781116291900265728,1.6000607013702393,-0.41970837116241455,0.36864614486694336,-0.33893048763275146,-0.9599608182907104,0.26385897397994995,0.09409581124782562,-0.0692446231842041,-0.004016995429992676,0.20071925222873688,0.6661433130690209,-0.29569427690924677,-0.6779474897458749,-0.09594442545108212,-0.2670207738688375,-1.6685046656953617,-0.5801898667544797
1781116291910300672,1.610095739364624,-0.3854803442955017,0.33134058117866516,-0.2902039587497711,-0.9611319899559021,0.2604263126850128,0.09167109429836273,-0.045520901679992676,0.03280186653137207,0.15988528728485107,0.6666214853066245,-0.2957709745557978,-0.6770192584782204,-0.09889545964535965,-0.2634637240123196,-1.6658869315850182,-0.5839964392325572
1781116291920334848,1.6201298236846924,-0.3367000222206116,0.2062896192073822,-0.2222302258014679,-0.9620423913002014,0.2576163709163666,0.09004534035921097,0.010733246803283691,0.03844991326332092,0.13782942295074463,0.6668563626115876,-0.2959867162218728,-0.676324280534095,-0.10138988648541154,-0.2605544899358195,-1.6641225238500656,-0.5875218554605098
1781116291930369792,1.6301648616790771,-0.3013678789138794,0.1574285924434662,-0.177092045545578,-0.9627106785774231,0.25542280077934265,0.08914898335933685,0.018908679485321045,-0.021429240703582764,0.12436724454164505,0.6668883778977808,-0.2962662942921078,-0.6758703828572075,-0.10337062216793698,-0.25828499696380786,-1.663135040196446,-0.5905506876539723
1781116291940403712,1.6401987075805664,-0.37053096294403076,0.17218875885009766,-0.14298947155475616,-0.9632635116577148,0.25358322262763977,0.0884246826171875,-0.028893470764160156,-0.09101608395576477,0.107025146484375,0.6668616326735506,-0.2967547195363968,-0.6753880189693819,-0.10527686155860834,-0.25638275839504604,-1.6623367514185199,-0.59384156317743
1781116291950438656,1.6502337455749512,-0.3987351655960083,0.18924658000469208,-0.1234208270907402,-0.9637565612792969,0.2519630491733551,0.08768079429864883,-0.08136367797851562,-0.1280006468296051,0.10903549194335938,0.6668189647488862,-0.2975048207534894,-0.6747823937103401,-0.10729434185312291,-0.2547082142199139,-1.661524712136729,-0.5977087165263193
1781116291960472832,1.6602678298950195,-0.4401254951953888,0.2291460484266281,-0.09793570637702942,-0.9642205238342285,0.2505270838737488,0.08668729662895203,-0.11323297023773193,-0.15403053164482117,0.11112760752439499,0.6668504545722612,-0.2984111277233653,-0.6740136845609596,-0.1093925080221554,-0.25322467744510846,-1.6604592840413424,-0.6019129495738088
1781116291970507776,1.6703028678894043,-0.5568720698356628,0.18606649339199066,-0.0826646089553833,-0.9646285772323608,0.2492411583662033,0.08585146069526672,-0.09259182214736938,-0.1730387806892395,0.10166382044553757,0.6667864208294045,-0.299634367855347,-0.6731604386578595,-0.11166958929542821,-0.2518966035987264,-1.6595619520986051,-0.6068979004913964
1781116291980541696,1.6803367137908936,-0.6772115230560303,0.12447889149188995,-0.08718425780534744,-0.9649697542190552,0.2478872686624527,0.0859370306134224,-0.04880887269973755,-0.1708456575870514,0.0888066217303276,0.6663107173125536,-0.30135043652871907,-0.672425781274002,-0.11428680064420335,-0.2504988481566561,-1.6596187131666638,-0.6132591440098538
1781116291990576640,1.6903717517852783,-0.7336809635162354,0.20276226103305817,-0.08675070106983185,-0.9653111696243286,0.2464473843574524,0.08624547719955444,-0.03832054138183594,-0.1573207527399063,0.09081745892763138,0.6656932252705342,-0.3033290408341031,-0.6716503794063778,-0.11717465047343181,-0.2490128511949022,-1.6599044715391462,-0.6204476588114143
1781116292000610816,1.7004058361053467,-0.7390397787094116,0.35020655393600464,-0.024331532418727875,-0.9656879901885986,0.2452663630247116,0.08538815379142761,-0.05182909965515137,-0.12218897044658661,0.0904388427734375,0.6654562044710123,-0.3054780578238216,-0.6703560493399962,-0.12030783748875319,-0.24779443976397234,-1.6589890529074767,-0.628121606324097
1781116292010645760,1.7104408740997314,-0.5882957577705383,0.47237855195999146,-0.05305106192827225,-0.9661139845848083,0.244405135512352,0.08300551027059555,-0.04848867654800415,-0.051411986351013184,0.06650006771087646,0.6658058362118932,-0.30734774761864553,-0.6686105876544752,-0.12328754387286098,-0.24690617436458137,-1.6565027486523944,-0.6349676011849299
1781116292020679680,1.7204747200012207,-0.4703467786312103,0.46912670135498047,-0.10999103635549545,-0.9667128920555115,0.24315369129180908,0.07963843643665314,-0.016029298305511475,0.00742611289024353,0.025540344417095184,0.6665478558513296,-0.30852103590751684,-0.6668088097207472,-0.1260739087438859,-0.24561579439166276,-1.6529913733093835,-0.6403154686674165
1781116292030714624,1.7305097579956055,-0.40143775939941406,0.3557303547859192,-0.11878746002912521,-0.9673185348510742,0.24169296026229858,0.07667646557092667,0.050921499729156494,0.03519301116466522,-0.015763409435749054,0.6671853988203114,-0.3093215352378896,-0.6653258014376128,-0.12855105456345367,-0.24411015486917595,-1.6498979621496972,-0.6446897477743242
1781116292040748800,1.7405438423156738,-0.4283612370491028,0.25043749809265137,-0.12350098788738251,-0.9678372144699097,0.24021486937999725,0.0747540146112442,0.11342120170593262,0.015659809112548828,-0.03433346003293991,0.6674703588850499,-0.3101025389014133,-0.6642389792587975,-0.1307915137311646,-0.2425871886902731,-1.6478814877032557,-0.6488318688531084
1781116292050784000,1.7505788803100586,-0.39870375394821167,0.1441912055015564,-0.12976713478565216,-0.9682914614677429,0.23866048455238342,0.073843814432621,0.1356804370880127,-0.03005756437778473,-0.05345809459686279,0.6673898335086011,-0.31095115504549425,-0.6634992736176264,-0.1329246376630378,-0.24098623494026952,-1.6469109649507288,-0.6530542706371466
1781116292060818944,1.7606139183044434,-0.3439827263355255,0.027113862335681915,-0.12830613553524017,-0.9686646461486816,0.23711705207824707,0.0739215612411499,0.12770700454711914,-0.05811619758605957,-0.0933002233505249,0.6670011850982319,-0.311693889993112,-0.6631799893242938,-0.13471707096102695,-0.23939719579867186,-1.646961550630861,-0.6567463023128596
1781116292070852864,1.7706477642059326,-0.3899669945240021,-0.08646170049905777,-0.1250070035457611,-0.9689325094223022,0.23565354943275452,0.07508203387260437,0.10090571641921997,-0.04578837752342224,-0.10611843317747116,0.6662480678788446,-0.31251525392854457,-0.6632309049719758,-0.13628121350686911,-0.23789099544671694,-1.6481312200543254,-0.6603699772269416
1781116292080887808,1.7806828022003174,-0.48173844814300537,-0.08356551826000214,-0.12443123012781143,-0.96916264295578,0.23406949639320374,0.07704219967126846,0.054047226905822754,-0.02020232379436493,-0.10246336460113525,0.6651541601731578,-0.3136157008572099,-0.6634502945748809,-0.13801793009808502,-0.23626137320117382,-1.650123088244603,-0.6647727112028486
1781116292090921984,1.7907168865203857,-0.46060919761657715,0.02003997378051281,-0.07283435016870499,-0.9693795442581177,0.23269245028495789,0.07847139239311218,-0.010128021240234375,-0.023311302065849304,-0.10308384150266647,0.6642200727596508,-0.31489989917960287,-0.6633805476948901,-0.13991457883500275,-0.2348452108075329,-1.6515703252509482,-0.6696391892289713
1781116292100956928,1.8007519245147705,-0.3411749303340912,0.1546700894832611,-0.019829459488391876,-0.969541072845459,0.2319629043340683,0.07863491028547287,-0.050859928131103516,-0.021925657987594604,-0.11861288547515869,0.6638185714649002,-0.3160411105059383,-0.6628992935613127,-0.14151849441052822,-0.23409513596624784,-1.6517244828252406,-0.6737352514047842
1781116292110990848,1.8107857704162598,-0.1858879029750824,0.2832730710506439,-0.020319480448961258,-0.9697595834732056,0.23159387707710266,0.07701075077056885,-0.040585875511169434,0.026767924427986145,-0.11473048478364944,0.6641520348746596,-0.3167010968800958,-0.6619711392104835,-0.1428170150492194,-0.23371578009747285,-1.650042230438862,-0.676436589148462
1781116292121025792,1.8208208084106445,-0.02893822267651558,0.2203790694475174,-0.015049884095788002,-0.9700048565864563,0.23132288455963135,0.07470212876796722,0.013828039169311523,0.10215798020362854,-0.10929381102323532,0.6648398643407883,-0.316805367626687,-0.6610487313864865,-0.14365566973579735,-0.23343722304801243,-1.647656737598082,-0.6775242983410852
1781116292131059968,1.830854892730713,0.11581070721149445,0.09002132713794708,-0.03284725546836853,-0.9701642394065857,0.23116762936115265,0.0730953961610794,0.0850934386253357,0.16588133573532104,-0.08502769470214844,0.6654113146675088,-0.3164692349243246,-0.6606019386012876,-0.14380580839559237,-0.23327764671852216,-1.6459975667098283,-0.6770147525539733
1781116292141094912,1.8408899307250977,0.15719649195671082,-0.022540509700775146,-0.06971898674964905,-0.9703059196472168,0.23076573014259338,0.07248283922672272,0.1284632682800293,0.18051967024803162,-0.05662894248962402,0.6656939777748572,-0.31580961887045755,-0.6606857819872659,-0.1435624849833382,-0.23286458808663413,-1.6453588539433184,-0.6755375791926419
1781116292151128832,1.850923776626587,0.1591286063194275,-0.06846139580011368,-0.0727912038564682,-0.9704451560974121,0.23015382885932922,0.0725630447268486,0.1286177635192871,0.14074154198169708,-0.0383070707321167,0.6657410704060308,-0.31505564191549157,-0.6610759911590497,-0.14320376157408135,-0.23223574665950977,-1.6454303887596038,-0.6738201702976269
1781116292161163776,1.8609588146209717,0.08401309698820114,-0.08078477531671524,-0.032146845012903214,-0.9705079197883606,0.22974498569965363,0.0730198323726654,0.11567997932434082,0.05800528824329376,-0.039801470935344696,0.665649424594966,-0.3145152676910658,-0.6615059044008227,-0.142832305930777,-0.23181565238843505,-1.645893612206862,-0.6724730503679917
1781116292171197952,1.87099289894104,-0.021880844607949257,-0.11603623628616333,-0.005706183146685362,-0.970477283000946,0.22958649694919586,0.07391702383756638,0.0998261570930481,-0.008456140756607056,-0.02920878678560257,0.6653546023450956,-0.3144213829979383,-0.6618894964506643,-0.14263478812747477,-0.23165280523484408,-1.6468151916706648,-0.6721403888289139
1781116292181232640,1.8810276985168457,-0.11329305171966553,-0.12431973963975906,0.046852633357048035,-0.9703441858291626,0.22972333431243896,0.0752282664179802,0.08226746320724487,-0.03065718710422516,-0.009020455181598663,0.6648666584150594,-0.3147998547572873,-0.6622047913775737,-0.14261186220328362,-0.2317934090372775,-1.6481689673523,-0.6728627240096133
1781116292191266816,1.891061782836914,-0.13565509021282196,-0.15726728737354279,0.09107229113578796,-0.970073938369751,0.2303142249584198,0.0768887996673584,0.06182509660720825,0.0024891197681427,-0.006820447742938995,0.6642475354814539,-0.31556849676924503,-0.6624657901677067,-0.14258620655627058,-0.23240057594094105,-1.649891729230353,-0.674255163165532
1781116292201301760,1.9010968208312988,-0.05451974645256996,-0.14251884818077087,0.09329363703727722,-0.9697267413139343,0.2311721295118332,0.07867235690355301,0.0248110294342041,0.06425328552722931,-0.00010478496551513672,0.6636241261389771,-0.31635128819027053,-0.6627654482284727,-0.14236149297198755,-0.2332822815063467,-1.6517474078055894,-0.6754105919759583
1781116292211335936,1.9111309051513672,0.07317829132080078,-0.1084652692079544,0.08672415465116501,-0.9694157242774963,0.23206672072410583,0.07986249774694443,-0.02568608522415161,0.11330068111419678,-0.010023005306720734,0.6632937926539338,-0.3166930373449501,-0.6630511048740902,-0.1418098271894656,-0.2342018781562085,-1.652992802491358,-0.6753331599679785
1781116292221370624,1.9211657047271729,0.1665460467338562,-0.08148717880249023,0.05261491239070892,-0.9691627621650696,0.2328883707523346,0.08054006844758987,-0.07771223783493042,0.1635655015707016,-0.023579001426696777,0.6632069225234108,-0.3166254278823198,-0.6633388075730096,-0.14101992880451789,-0.2350466657834699,-1.6537085398311897,-0.6742044969637958
1781116292231405824,1.9312007427215576,0.33954954147338867,-0.0016038022004067898,-0.029738282784819603,-0.9690987467765808,0.23321625590324402,0.08035871386528015,-0.12069904804229736,0.1887044608592987,-0.008413568139076233,0.6634753390941989,-0.315861989690478,-0.6636343576192287,-0.14007488969191445,-0.23538384442180935,-1.653528135725065,-0.6716331532910949
1781116292241439744,1.941234827041626,0.3999076783657074,0.05288900062441826,-0.1151844710111618,-0.9692900776863098,0.23282374441623688,0.07918407768011093,-0.14351826906204224,0.1764170229434967,-0.006643764674663544,0.6641265467395924,-0.3143253844583581,-0.6639213735254818,-0.13908267859409038,-0.23498020881365578,-1.6523081777947604,-0.6676291185390998
1781116292251474944,1.9512698650360107,0.37310829758644104,0.05371883884072304,-0.1931314617395401,-0.9696993827819824,0.2315945327281952,0.07776384055614471,-0.12905550003051758,0.1655764877796173,0.025583863258361816,0.6648011742602419,-0.3124808211769074,-0.6642572217746562,-0.1384107669663631,-0.23371645758519666,-1.650818838413866,-0.663542713604828
1781116292261508608,1.9613037109375,0.4032653868198395,0.03144509345293045,-0.24215227365493774,-0.9702355861663818,0.22978363931179047,0.07643619179725647,-0.09070801734924316,0.13564908504486084,0.07274901866912842,0.6654018508198858,-0.3104439038521315,-0.6647124778147294,-0.13792147913161218,-0.2318553685610409,-1.6494150103154162,-0.6594114270218489
1781116292271543808,1.9713387489318848,0.3698565661907196,0.008299827575683594,-0.26584428548812866,-0.97083580493927,0.22760221362113953,0.07533296942710876,-0.06203162670135498,0.08595064282417297,0.06843531131744385,0.6659091882751146,-0.30824598772487993,-0.6653201442263277,-0.1374717556677037,-0.22961455763753602,-1.6482371375677607,-0.6551043378210836
1781116292281577728,1.9813728332519531,0.2749204635620117,0.04018092900514603,-0.2618466019630432,-0.9714537858963013,0.22525960206985474,0.0744025707244873,-0.04667365550994873,0.03969402611255646,0.0821831226348877,0.6662879472499331,-0.3062843701954214,-0.6658762414850087,-0.1373285000684178,-0.22720947358830823,-1.6472359910586647,-0.6516296845457078
1781116292291612928,1.991407871246338,0.21115559339523315,0.03898170590400696,-0.26010677218437195,-0.9720664620399475,0.22291308641433716,0.07346217334270477,-0.03251117467880249,-0.017590820789337158,0.06704080104827881,0.6666169185184874,-0.30457727137295,-0.6663060664000419,-0.13744406867510936,-0.22480173550738963,-1.646226146715253,-0.6489303266435213
1781116292301646592,2.001441717147827,0.12793581187725067,0.05242707580327988,-0.25221848487854004,-0.9726689457893372,0.22053220868110657,0.07267017662525177,-0.03541827201843262,-0.07122491300106049,0.030814893543720245,0.6668402719683428,-0.30312236038176715,-0.6666722750166661,-0.13780098083838282,-0.22236007841603797,-1.6453699142305163,-0.6469930464261733
1781116292311681792,2.011476755142212,0.056726615875959396,0.08601992577314377,-0.2584036886692047,-0.9732764363288879,0.21812593936920166,0.07179082185029984,-0.03706890344619751,-0.07846227288246155,0.003984324634075165,0.6670365488171376,-0.30191730791600124,-0.666889307942797,-0.13844412849312884,-0.21989375755858523,-1.644424989133917,-0.6458510502148371
1781116292321715712,2.0215108394622803,-0.025838568806648254,0.07219838351011276,-0.25439509749412537,-0.9738985896110535,0.21560156345367432,0.07097405940294266,-0.03992575407028198,-0.052836090326309204,-0.008352048695087433,0.6671480668404903,-0.30093740031647936,-0.6670260207527748,-0.13937840126341788,-0.21730784576709333,-1.6435439576235018,-0.6454859521247448
1781116292331750912,2.031545877456665,-0.06649918109178543,0.05654192343354225,-0.24496988952159882,-0.9744770526885986,0.21314570307731628,0.07045073807239532,-0.03480023145675659,-0.026973247528076172,-0.005158312618732452,0.6671125579374769,-0.300241731512702,-0.6671433658303225,-0.14048281232754573,-0.21479352904239143,-1.6429667061018236,-0.6458470451901916
1781116292341784832,2.0415797233581543,-0.015024804510176182,0.0726790800690651,-0.2649742364883423,-0.9750608205795288,0.21063387393951416,0.06992553919553757,-0.03754281997680664,-0.02856600284576416,-0.007196672260761261,0.6670812136756163,-0.2994830931389236,-0.6672875280237319,-0.14156208084682678,-0.2122233302180649,-1.64238778859162,-0.6460743575266397
1781116292351819776,2.051614761352539,-0.056836433708667755,0.09042719006538391,-0.2799238860607147,-0.9756876230239868,0.20796723663806915,0.06916036456823349,-0.03697711229324341,-0.023915737867355347,-0.004142649471759796,0.6671279638924609,-0.2986124376521843,-0.6673910361040338,-0.14268858949820645,-0.2094963047296605,-1.641561682755321,-0.646167209644577
1781116292361854720,2.061649799346924,-0.06745152920484543,0.07789994776248932,-0.28673890233039856,-0.9763357043266296,0.20513980090618134,0.06845570355653763,-0.016843557357788086,0.018660858273506165,0.010325424373149872,0.6671094177629295,-0.29783544336147133,-0.667474270887451,-0.14400394991832396,-0.2066065382680866,-1.640796694683294,-0.6466827032876618
1781116292371888896,2.071683883666992,0.030246272683143616,0.0416836179792881,-0.2888561189174652,-0.9769643545150757,0.20231080055236816,0.06790271401405334,0.005147457122802734,0.03537532687187195,0.001662127673625946,0.6670750037183956,-0.29689236337757524,-0.6676872630846868,-0.14511894383983737,-0.20371694943268295,-1.6401885070897013,-0.6466705040170505
1781116292381923840,2.081718921661377,0.028855303302407265,0.022701136767864227,-0.2895272374153137,-0.9775688052177429,0.19950327277183533,0.06751025468111038,0.013900041580200195,0.024449944496154785,-0.016088135540485382,0.6670274818235881,-0.2957778723547126,-0.6680348616251924,-0.14601084715465296,-0.20085097059738152,-1.63974619167524,-0.6460907151713464
1781116292391957760,2.091752767562866,0.011900287121534348,0.017463764175772667,-0.28107330203056335,-0.9781513810157776,0.1967020332813263,0.06729136407375336,0.008775830268859863,0.018721535801887512,-0.010681279003620148,0.6669048494648793,-0.29474799234008564,-0.6684080373837548,-0.14694295161802357,-0.19799309460571052,-1.639482535341119,-0.6457210433489917
1781116292401992704,2.101787805557251,0.06395257264375687,0.04339975863695145,-0.2559485137462616,-0.9786957502365112,0.19409215450286865,0.06695505976676941,-0.00850212574005127,0.0014950186014175415,-0.015563368797302246,0.6668509836387465,-0.29370519242013693,-0.6687411970402832,-0.1477574862250311,-0.19533192294150367,-1.6391024320409058,-0.645158626974425
1781116292412026880,2.1118218898773193,0.12165608257055283,0.09556815028190613,-0.25068503618240356,-0.9792249202728271,0.19169490039348602,0.06611771881580353,-0.026130855083465576,-0.010801970958709717,-0.023881323635578156,0.6670272751067476,-0.2924994871084711,-0.668956582261955,-0.1483768758498604,-0.19288877897531773,-1.6382144603573214,-0.6440221572209729
1781116292422061824,2.121856927871704,0.19064952433109283,0.15244701504707336,-0.2723027169704437,-0.9798024892807007,0.1892470419406891,0.06459609419107437,-0.033167481422424316,0.024406522512435913,-0.027471430599689484,0.6674786011796556,-0.2910197324428855,-0.6690333036729331,-0.1489102638619525,-0.1903952692480767,-1.636628725587113,-0.6422731118526904
1781116292432095744,2.1318907737731934,0.2775615453720093,0.17550574243068695,-0.28215402364730835,-0.9804300665855408,0.18667970597743988,0.06250958144664764,-0.015785634517669678,0.08204282820224762,-0.02207375317811966,0.6681729349958562,-0.2891883180728453,-0.6690477609151603,-0.14929868932095147,-0.18778134863945306,-1.6344674502399579,-0.6397196271267118
1781116292442130688,2.141925811767578,0.3588705062866211,0.1590292751789093,-0.2994967997074127,-0.981074333190918,0.18402160704135895,0.06024404615163803,0.02086925506591797,0.10960328578948975,-0.029451847076416016,0.6689881852436081,-0.28701255581475243,-0.6691381144018475,-0.14944180584838368,-0.18507637155036386,-1.6321255189063495,-0.6362697729194264
1781116292452164864,2.1519598960876465,0.3834136724472046,0.12260256707668304,-0.30285635590553284,-0.9817091226577759,0.18128056824207306,0.05817851796746254,0.05453920364379883,0.08583982288837433,-0.04214154928922653,0.6697701934032821,-0.2846380859016476,-0.669380623030495,-0.14939455810418753,-0.182288436939504,-1.6299895737158403,-0.632265798321248
1781116292462199808,2.161994695663452,0.3560715317726135,0.0631251260638237,-0.2663566768169403,-0.9822804927825928,0.1786755621433258,0.05657166615128517,0.07513004541397095,0.032307758927345276,-0.03592657297849655,0.6704039823832681,-0.2823541770153683,-0.6697476778541321,-0.14924066060913674,-0.1796401824922332,-1.6283249510390878,-0.6283041116544666
1781116292472233728,2.1720287799835205,0.2703110873699188,0.019662337377667427,-0.22557276487350464,-0.9827347993850708,0.17645955085754395,0.055627353489398956,0.0751115083694458,-0.02933432161808014,-0.03974294662475586,0.6708011557385604,-0.2804332664905198,-0.6702021043507277,-0.14903740402702367,-0.1773883952247629,-1.6273406340547227,-0.6249085407239479
1781116292482268928,2.1820638179779053,0.135178804397583,0.023512469604611397,-0.2148578017950058,-0.9831311106681824,0.17442096769809723,0.0550483837723732,0.061729252338409424,-0.07105794548988342,-0.04561842232942581,0.6710009835781917,-0.2789878988847745,-0.6705892520007326,-0.1491086734792504,-0.17531768483002189,-1.6267308429347045,-0.6226830492968861
1781116292492303872,2.19209885597229,0.03203804790973663,0.01662154123187065,-0.19448834657669067,-0.9835003018379211,0.17242753505706787,0.0547376312315464,0.05355328321456909,-0.07734999060630798,-0.029286019504070282,0.671014216012173,-0.2780218379682807,-0.670874557828534,-0.14957019328659982,-0.1732935889821059,-1.6263949032734353,-0.6217854433555232
1781116292502337792,2.2021327018737793,0.03327694907784462,0.033067092299461365,-0.17483848333358765,-0.9838271141052246,0.17064453661441803,0.054449137300252914,0.053376734256744385,-0.058904409408569336,-0.01912510395050049,0.6710012826854731,-0.2772819123312281,-0.6710732520037578,-0.15010917302909096,-0.1714837623606098,-1.6260841352524167,-0.6213560188765411
1781116292512372736,2.212167739868164,0.03257094696164131,0.05038269981741905,-0.19203610718250275,-0.9841591119766235,0.16887572407722473,0.05396211892366409,0.054380059242248535,-0.025107428431510925,-0.042807936668395996,0.6710555148900587,-0.27653731948923055,-0.6711990535587126,-0.15067665708434613,-0.16968890193942116,-1.625572163015555,-0.6209452569894013
1781116292522406912,2.2222018241882324,0.08995328098535538,0.001965366303920746,-0.21605515480041504,-0.9845190644264221,0.1668882519006729,0.053576819598674774,0.0722113847732544,0.021862968802452087,-0.03593766689300537,0.671078553485143,-0.2756341383608249,-0.6714270117380188,-0.15121231069235988,-0.16767281803108364,-1.6251619827811452,-0.6202498438698251
1781116292532441856,2.232236862182617,0.1467052400112152,-0.06247540935873985,-0.20530849695205688,-0.984852135181427,0.1648794263601303,0.05367579683661461,0.090687096118927,0.03395785391330719,-0.02027428150177002,0.670984388722186,-0.2745396095279342,-0.6719121228969346,-0.15146634935112566,-0.16563576850757497,-1.625243835919244,-0.6188956419015336
1781116292542475776,2.2422707080841064,0.14266948401927948,-0.10633420944213867,-0.19736455380916595,-0.9851406216621399,0.1629561483860016,0.05425206199288368,0.08330041170120239,-0.008125215768814087,-0.018897533416748047,0.6707549284499623,-0.2734169649648656,-0.6725839681304313,-0.15153157179073123,-0.1636861074300524,-1.6258111294000346,-0.6172681427460651
1781116292552510720,2.252305746078491,0.06886130571365356,-0.07025130838155746,-0.18304207921028137,-0.9853959083557129,0.161152645945549,0.055000852793455124,0.04948270320892334,-0.06772303581237793,0.000342734158039093,0.6704431554480422,-0.2724921370734926,-0.6732372990342771,-0.15167633423374213,-0.16185845231151763,-1.6265544651654562,-0.6160760362036647
1781116292562544896,2.2623398303985596,0.00652656052261591,-0.054799243807792664,-0.16734914481639862,-0.9856433272361755,0.15944965183734894,0.05552494525909424,0.023073196411132812,-0.10717304050922394,0.012117262929677963,0.6701596644089891,-0.27183122722315317,-0.6736989361393287,-0.15206421737327688,-0.16013314044846066,-1.6270705594061414,-0.6156233095251084
1781116292572579840,2.2723748683929443,-0.022457152605056763,-0.07891576737165451,-0.14044615626335144,-0.9858526587486267,0.15792179107666016,0.056171491742134094,0.01678222417831421,-0.12993717193603516,0.018352389335632324,0.6698131715113194,-0.2713919956745824,-0.6741158134908422,-0.15252726303270966,-0.15858567417425126,-1.6277123602479922,-0.6156327104213305
1781116292582613760,2.2824087142944336,-0.02093515731394291,-0.10687070339918137,-0.10820911824703217,-0.9859949350357056,0.1566859781742096,0.057126183062791824,0.021639525890350342,-0.1258479803800583,0.02995574101805687,0.6693742799781454,-0.27111690829504276,-0.6745803975332267,-0.15288866594380124,-0.15733428435729324,-1.6286692303413188,-0.615778195629028
1781116292592649216,2.2924442291259766,-0.024258781224489212,-0.10198060423135757,-0.09726512432098389,-0.9860913157463074,0.15567973256111145,0.05820416659116745,0.014350593090057373,-0.10350993275642395,0.023247241973876953,0.6689122543982564,-0.27092286895111056,-0.6750576875271745,-0.15314804078764083,-0.15631553547743648,-1.6297530482363258,-0.6159154112548159
1781116292602683392,2.302478313446045,-0.08623852580785751,-0.09189042448997498,-0.08297140896320343,-0.9861726760864258,0.15476664900779724,0.05925210565328598,-7.915496826171875e-05,-0.07542096078395844,0.021161675453186035,0.668440204323154,-0.27087803001275806,-0.6754636524570543,-0.1534981799232899,-0.15539125199105266,-1.63080707461758,-0.6164115424159243
1781116292612718336,2.3125133514404297,-0.1391369104385376,-0.08896999806165695,-0.059826143085956573,-0.9862344861030579,0.15397119522094727,0.06028736010193825,-0.012102305889129639,-0.08286523818969727,0.02583324909210205,0.6679376967774093,-0.271063815228764,-0.6757722154753399,-0.15399884315701767,-0.15458615454940738,-1.631849183340484,-0.6174798397758985
1781116292622753280,2.3225483894348145,-0.1918315440416336,-0.0659315213561058,-0.03235936537384987,-0.9862505793571472,0.15343548357486725,0.06138060241937637,-0.017716825008392334,-0.12702251970767975,0.027974851429462433,0.6673866537747616,-0.2715551245630693,-0.6759793747537399,-0.1546119991641637,-0.15404399684402745,-1.6329524728100615,-0.619189970793657
1781116292632787200,2.3325822353363037,-0.195745587348938,-0.04788488149642944,-0.000138312199851498,-0.9862421154975891,0.15315179526805878,0.062218185514211655,-0.02144831418991089,-0.15913322567939758,0.03449201583862305,0.666925844989529,-0.27218437021663705,-0.6760360648632522,-0.1552445240634562,-0.15375690478496615,-1.633798951205764,-0.621126392249055
1781116292642822144,2.3426172733306885,-0.20499448478221893,-0.049998100847005844,0.027341781184077263,-0.9861895442008972,0.15316767990589142,0.0630074217915535,-0.026963531970977783,-0.14878840744495392,0.03815840929746628,0.666496975107629,-0.2729458017021687,-0.6760209329743575,-0.15581427632182776,-0.15377298408298484,-1.6345993819337603,-0.6231798505083913
1781116292652856320,2.352651357650757,-0.1598280668258667,-0.034057218581438065,0.04398920014500618,-0.986102819442749,0.15343065559864044,0.06372034549713135,-0.026821374893188477,-0.08891648054122925,0.03407323360443115,0.66612406390782,-0.2737394431246268,-0.6759636759707724,-0.15626446097394797,-0.1540391139648195,-1.6353249726927834,-0.6251116813727584
1781116292662891264,2.3626861572265625,-0.08654292672872543,-0.007474075071513653,0.02984621748328209,-0.9860280156135559,0.15374238789081573,0.06412531435489655,-0.028299987316131592,-0.024515703320503235,0.02536749839782715,0.6659149521875567,-0.27428909048227784,-0.6758906360516171,-0.1565075830007114,-0.15435458883225217,-1.635738841812296,-0.6263475608432248
1781116292672925184,2.372720241546631,-0.09191852062940598,0.04161437600851059,0.023860763758420944,-0.9859980344772339,0.15394461154937744,0.06409972161054611,-0.023675918579101562,0.015244811773300171,0.03070306032896042,0.6658707086365258,-0.2746541577141771,-0.6757329014731058,-0.15673626407454605,-0.15455924802429574,-1.635714963658622,-0.627242283438708
1781116292682960384,2.3827552795410156,-0.03713356703519821,0.07589578628540039,0.03387291729450226,-0.9859904646873474,0.1541946828365326,0.06361439824104309,-0.003511488437652588,0.0225631445646286,0.010482311248779297,0.666000853949237,-0.2749426605243498,-0.6754359576712691,-0.1569574526389166,-0.15481233229681846,-1.6352252993373921,-0.6279736523561922
1781116292692994304,2.392789363861084,0.005064485128968954,0.08030064404010773,0.03323615714907646,-0.9859855771064758,0.15454310178756714,0.0628415197134018,0.02819126844406128,0.004346698522567749,-0.02951633185148239,0.6662843030606854,-0.2750392711497386,-0.6751104804123681,-0.15698585563996184,-0.15516498608794113,-1.6344449652063753,-0.6281115807327136
1781116292703029248,2.4028241634368896,-0.03019576705992222,0.06872589141130447,0.04819193482398987,-0.9859751462936401,0.15491418540477753,0.06208779290318489,0.07903838157653809,-0.003653779625892639,-0.0398862287402153,0.6665659512304569,-0.27513169937290666,-0.674793630624903,-0.15699070562106288,-0.15554059355368288,-1.6336842401340657,-0.6282110218005432
1781116292713063168,2.412858247756958,-0.05721593275666237,0.009638865478336811,0.09981492161750793,-0.9858851432800293,0.15561166405677795,0.06177019327878952,0.1291499137878418,-0.007021576166152954,-0.04182696342468262,0.6666911117779915,-0.27551248151063945,-0.6745205473742609,-0.1569646660039148,-0.15624662648172627,-1.6333690857244507,-0.6287521986955741
1781116292723098368,2.4228932857513428,-0.00845824833959341,-0.07006142288446426,0.12006266415119171,-0.985691487789154,0.15669840574264526,0.06211221218109131,0.16473811864852905,-0.023870661854743958,-0.07392251491546631,0.6666327008291953,-0.27603115942347556,-0.6744352487128275,-0.15666765785083908,-0.1573468765067954,-1.633726966364299,-0.6291771047386087
1781116292733133312,2.4329283237457275,-0.0030134147964417934,-0.17352230846881866,0.1407618224620819,-0.9854115843772888,0.15798130631446838,0.0632927417755127,0.18366903066635132,-0.03563632071018219,-0.0987694263458252,0.6663303772138882,-0.276564356415591,-0.6746543772567994,-0.15606892160187755,-0.15864594572139576,-1.6349379714642842,-0.6292623541732704
1781116292743167232,2.442962169647217,-0.016826964914798737,-0.2773275375366211,0.17250457406044006,-0.9850165843963623,0.15951763093471527,0.0655483826994896,0.18701237440109253,-0.02318035066127777,-0.10369539260864258,0.6656690518651349,-0.27731257932542686,-0.6751828815253195,-0.15527583168813733,-0.16020201345738885,-1.6372438181284785,-0.6294951678996682
1781116292753202176,2.4529972076416016,0.0036916257813572884,-0.36608749628067017,0.20562870800495148,-0.9844944477081299,0.16137878596782684,0.06875733286142349,0.16730999946594238,-0.021943986415863037,-0.11503720283508301,0.6647095369870437,-0.27822476516789,-0.6759953000185692,-0.15421595913865016,-0.16208758875362864,-1.6405233486671458,-0.6296894620776078
1781116292763236352,2.46303129196167,-0.014610948972404003,-0.41860291361808777,0.22040365636348724,-0.9838635921478271,0.16349448263645172,0.07267721742391586,0.12013983726501465,-0.04726827144622803,-0.12779200077056885,0.6635252489871208,-0.2792672461570949,-0.6770143383861627,-0.15295632644601231,-0.1642317693473427,-1.64453160666786,-0.6298736269324081
1781116292773271296,2.4730663299560547,-0.05181743949651718,-0.4344487190246582,0.24594390392303467,-0.9831622838973999,0.16575245559215546,0.07692881673574448,0.06490367650985718,-0.07404716312885284,-0.12650465965270996,0.6622110890652648,-0.2804834037354074,-0.6780807248971199,-0.15169726708245682,-0.166520971720699,-1.6488835313200783,-0.6303723358745669
1781116292783305216,2.483100175857544,-0.0665186196565628,-0.4487064778804779,0.2828627824783325,-0.9823707938194275,0.16830241680145264,0.08137451857328415,0.018793582916259766,-0.09387005865573883,-0.12632691860198975,0.6608248574729728,-0.2819178386660627,-0.6791241351419974,-0.15041006578375998,-0.16910726873042992,-1.653442473672404,-0.6312095663332764
1781116292793340160,2.4931352138519287,-0.07567457109689713,-0.47664889693260193,0.31518369913101196,-0.9814697504043579,0.1712123155593872,0.08604331314563751,-0.01727902889251709,-0.1042415052652359,-0.1383047103881836,0.6593802814130035,-0.2835107081285263,-0.6801788996402656,-0.1489831758593833,-0.17206002283416386,-1.658240582240515,-0.6321416174664545
1781116292803374336,2.503169298171997,-0.13183851540088654,-0.47644302248954773,0.3590848445892334,-0.9804674983024597,0.1744125634431839,0.09090377390384674,-0.04290884733200073,-0.11176000535488129,-0.13591718673706055,0.6578574271104065,-0.28534788462765903,-0.6811963527489445,-0.14755209087100762,-0.17530915067363248,-1.6632467509414097,-0.6334955102067783
1781116292813409280,2.513204336166382,-0.1377459317445755,-0.485649049282074,0.42845484614372253,-0.9793148636817932,0.17818273603916168,0.09588155895471573,-0.06586641073226929,-0.11829197406768799,-0.12993919849395752,0.6563044171498275,-0.28751545206239687,-0.6821111678847596,-0.14602648367703452,-0.17913931908300373,-1.6683920514976278,-0.6352847002703305
1781116292823443200,2.523238182067871,-0.15403330326080322,-0.4763716459274292,0.4665452539920807,-0.9780272245407104,0.18244870007038116,0.10087314248085022,-0.08261120319366455,-0.12660151720046997,-0.13599884510040283,0.6547753892790255,-0.28986649978392315,-0.6829450820205879,-0.14433532554554557,-0.18347637970977745,-1.6735723256738873,-0.6371733785670572
1781116292833478144,2.533273220062256,-0.22433249652385712,-0.5119759440422058,0.5116932988166809,-0.9766139984130859,0.18704305589199066,0.10601985454559326,-0.08226978778839111,-0.11911091208457947,-0.12208734452724457,0.6531726158460875,-0.29252125231696163,-0.6836967486588147,-0.14267340139728824,-0.18815121833022408,-1.6789314705928882,-0.6396401193144913
1781116292843512320,2.543307304382324,-0.2177068144083023,-0.6071590781211853,0.567427933216095,-0.9749783277511597,0.19207574427127838,0.11191187053918839,-0.06072723865509033,-0.11424067616462708,-0.11061489582061768,0.6513082240461266,-0.2955072941502598,-0.6845665599083713,-0.14086060294555347,-0.1932768390808955,-1.68508012596649,-0.642543736397899
1781116292853547264,2.553342342376709,-0.19353649020195007,-0.7119435667991638,0.6256662011146545,-0.9730482697486877,0.19766847789287567,0.11876098811626434,-0.04036414623260498,-0.13677068054676056,-0.1310291290283203,0.6491569088914722,-0.2986695482821383,-0.6856945354965639,-0.13861735066945557,-0.19897890031833085,-1.692246115694755,-0.6452870519763901
1781116292863582464,2.5633773803710938,-0.23912875354290009,-0.7763554453849792,0.6993532180786133,-0.9708026647567749,0.20383523404598236,0.12646600604057312,-0.03191345930099487,-0.14659945666790009,-0.12074397504329681,0.6467181126738587,-0.302161886185275,-0.6869724861410743,-0.13609853847268796,-0.205273807837847,-1.7003363675921497,-0.6483431942829287
1781116292873616128,2.573411226272583,-0.2131544053554535,-0.8313922882080078,0.7758690118789673,-0.9682033658027649,0.21074683964252472,0.13478901982307434,-0.022473514080047607,-0.12412269413471222,-0.09442949295043945,0.6440844549181142,-0.3060186034483113,-0.6882929057783609,-0.13326943106501907,-0.21233889876542777,-1.7091228705258785,-0.6517231370419384
1781116292883651328,2.5834462642669678,-0.16663163900375366,-0.8235666155815125,0.8028319478034973,-0.9653405547142029,0.218168705701828,0.14324848353862762,-0.01506716012954712,-0.10632176697254181,-0.09335219860076904,0.6414497379925691,-0.30989781816143935,-0.6896285844380898,-0.1300693198892415,-0.21993757947042347,-1.7181129540021547,-0.6547537469982057
1781116292893685248,2.593480348587036,-0.2133573442697525,-0.9058244824409485,0.8260037899017334,-0.9622772336006165,0.22574540972709656,0.15186095237731934,0.016262829303741455,-0.08832472562789917,-0.057180166244506836,0.6387450640032921,-0.31385858410753137,-0.6909582219446845,-0.12678468259292605,-0.22770812500698256,-1.7273195635768235,-0.657925846103971
1781116292903720448,2.603515386581421,-0.12630872428417206,-1.1546101570129395,0.8675166368484497,-0.9586881995201111,0.2336450219154358,0.1622571498155594,0.06929904222488403,-0.046190738677978516,-0.006174907088279724,0.6353930947904445,-0.3180521980684576,-0.6927996621431828,-0.12307405379499593,-0.2358247784500089,-1.7384566173054283,-0.6612330805928248
1781116292913754112,2.61354923248291,-0.01822778768837452,-1.0692981481552124,0.8349171280860901,-0.9547329545021057,0.2417411506175995,0.1733381450176239,0.04178440570831299,-0.02235032618045807,-0.001417413353919983,0.631848915884979,-0.32190120738552724,-0.6950170399230656,-0.11873428314654776,-0.24415982876103912,-1.7503966837079825,-0.6633512998644011
1781116292923789312,2.623584270477295,-0.057019125670194626,-0.9040988683700562,0.8348228931427002,-0.9509449005126953,0.24961797893047333,0.18274341523647308,-0.02139115333557129,0.008042007684707642,0.022304221987724304,0.6288740550865626,-0.3254905462537756,-0.6967263541489289,-0.11465558778965747,-0.25228572677336614,-1.7606521742835952,-0.6653120458130344
1781116292933823232,2.6336183547973633,-0.008594068698585033,-0.9173039197921753,0.8263817429542542,-0.9471396207809448,0.2574577331542969,0.1914213001728058,-0.015354275703430176,0.06622695922851562,0.0237734317779541,0.6261283395314331,-0.32902453825452593,-0.6981787063944298,-0.11069189316247847,-0.26039031629094206,-1.7702147457122899,-0.6673598056153873
1781116292943858176,2.643653154373169,0.0017208864446729422,-0.956260621547699,0.8140073418617249,-0.9431315660476685,0.26525238156318665,0.20036081969738007,0.017884254455566406,0.06404760479927063,0.0014977753162384033,0.6232737532364158,-0.33240091566259705,-0.699778564106804,-0.10653453056417214,-0.2684656598485918,-1.7801262827626008,-0.669038051445326
1781116292953892352,2.6536872386932373,-0.10395094752311707,-0.9219247698783875,0.8426429629325867,-0.9389656186103821,0.2729445695877075,0.2093915343284607,0.030304789543151855,0.006199687719345093,-0.003565683960914612,0.6203111319870528,-0.3359562471499908,-0.7013053313852528,-0.10255891622490187,-0.2764524977765581,-1.7902085602162054,-0.6713875079837855
1781116292963927296,2.663722276687622,-0.13286329805850983,-0.8644309639930725,0.8838497996330261,-0.9346423149108887,0.28082677721977234,0.21812884509563446,0.03501462936401367,-0.05090734362602234,-0.007679581642150879,0.6173964812539947,-0.33983099347336465,-0.7025520052706874,-0.09877854958171221,-0.2846554498120711,-1.8000745756343441,-0.6746243025491364
1781116292973962240,2.673757314682007,-0.18486204743385315,-0.8189340829849243,0.881692111492157,-0.9302416443824768,0.2887597382068634,0.22642463445663452,0.03925049304962158,-0.07992798089981079,-0.03549148142337799,0.6145996305668043,-0.34384622423478156,-0.7035496392189713,-0.09515730699068545,-0.2929311474390708,-1.8095575227264353,-0.6783698455156668
1781116292983996160,2.683791160583496,-0.1961575746536255,-0.8461976051330566,0.9037313461303711,-0.9257157444953918,0.29658374190330505,0.23470862209796906,0.07068967819213867,-0.04382196068763733,-0.029279649257659912,0.6117514004381509,-0.34798254032839426,-0.7044589878535638,-0.0916830319708918,-0.3011134481885117,-1.8191066701975112,-0.6826310178871514
1781116292994031104,2.693826198577881,-0.149082750082016,-0.914310872554779,0.9099117517471313,-0.9208633899688721,0.30458277463912964,0.24339236319065094,0.10641032457351685,0.014081746339797974,-0.04252566397190094,0.6087398622149239,-0.352130345178176,-0.7054788443534703,-0.08797484122182327,-0.30950036266173375,-1.829196158580056,-0.6868132510411615
1781116293004065280,2.703860282897949,-0.1081925630569458,-0.9783885478973389,0.9087128043174744,-0.9156740307807922,0.31264734268188477,0.2525729835033417,0.10590511560440063,0.030477166175842285,-0.05977815389633179,0.6055280370692417,-0.3561519309667891,-0.7067123144452924,-0.08396105822295274,-0.31797880736863904,-1.8399366769486958,-0.6906121242076417
1781116293014100224,2.713895320892334,-0.057319797575473785,-0.9603813290596008,0.905977189540863,-0.9102861881256104,0.3207535743713379,0.261718213558197,0.08593004941940308,0.025392115116119385,-0.03579649329185486,0.6023111639937483,-0.36002682237129646,-0.7079829032331173,-0.07976377931783098,-0.3265249825118001,-1.8507572316098517,-0.6940679390728707
1781116293024134144,2.7239291667938232,-0.044199999421834946,-0.9681895971298218,0.9133485555648804,-0.9047612547874451,0.3288773000240326,0.2706415057182312,0.06539052724838257,0.029307514429092407,-0.04087471961975098,0.5991531378311219,-0.36377794569446875,-0.7092153071380128,-0.07546376082265406,-0.3351144830098299,-1.8614550253197228,-0.6972907618906855
1781116293034169088,2.733964204788208,-0.023223876953125,-0.9880266785621643,0.9486687779426575,-0.8989601731300354,0.3371981382369995,0.27958548069000244,0.0529518723487854,0.02019321918487549,-0.05639517307281494,0.5959579702162011,-0.3675445074246149,-0.7104250615802721,-0.07100258548421119,-0.3439391262600159,-1.8723230420213384,-0.7005091393298503
1781116293044203264,2.7439982891082764,-0.018011538311839104,-1.0119835138320923,0.9598374962806702,-0.8928430676460266,0.34573787450790405,0.2886112630367279,0.04190623760223389,-0.02031370997428894,-0.06981554627418518,0.5926966252380212,-0.37135258770681934,-0.711619899779503,-0.06637039388559147,-0.35302503006342306,-1.8834443264594223,-0.7037811264595432
1781116293054238208,2.754033327102661,-0.04622400179505348,-1.0451254844665527,1.0044891834259033,-0.8863840103149414,0.35436779260635376,0.29790472984313965,0.029847025871276855,-0.06910470128059387,-0.08458682894706726,0.5892753134112697,-0.3752731009644865,-0.712827097915204,-0.06166330896639949,-0.36223790033679387,-1.8950257753422088,-0.7073930617995131
1781116293064273408,2.764068365097046,-0.12290865927934647,-1.0929726362228394,1.064834475517273,-0.8794047236442566,0.36331743001937866,0.3076491355895996,0.03269439935684204,-0.10671034455299377,-0.11197039484977722,0.5856123982721723,-0.37953357903461593,-0.713987972322346,-0.0568649066463864,-0.3718261741094323,-1.9073267602159405,-0.7118065595392309
1781116293074307328,2.774102210998535,-0.27473095059394836,-1.1486198902130127,1.105765700340271,-0.8718811273574829,0.3722214698791504,0.3182373642921448,0.040017545223236084,-0.13697662949562073,-0.12443533539772034,0.5815075717649425,-0.3843106896494903,-0.715139131811879,-0.05225394477165603,-0.3814013300855721,-1.9207719435042425,-0.7177657077610312
1781116293084342272,2.78413724899292,-0.40079647302627563,-1.198936939239502,1.1827256679534912,-0.8637537360191345,0.38105982542037964,0.3297315239906311,0.0471644401550293,-0.16151639819145203,-0.13077214360237122,0.5769243843234675,-0.389693262420658,-0.7162436188649032,-0.04787985081650192,-0.3909423300080477,-1.9354651002527687,-0.725541447334176
1781116293094376448,2.7941713333129883,-0.4816945195198059,-1.250477910041809,1.2329561710357666,-0.8549432754516602,0.39000558853149414,0.34200575947761536,0.0631035566329956,-0.18495789170265198,-0.12868782877922058,0.5719252744525946,-0.3956076444347527,-0.7172847922169466,-0.043574353683961536,-0.40063765123585654,-1.9513313843544633,-0.7348304628949653
1781116293104411392,2.804206371307373,-0.5315867066383362,-1.3071236610412598,1.2670648097991943,-0.8455323576927185,0.39888983964920044,0.35491156578063965,0.07845759391784668,-0.17637085914611816,-0.12055179476737976,0.566568905618416,-0.4018403652284983,-0.718317550978079,-0.039293667657271825,-0.4103058924653584,-1.968211149298682,-0.7451835575987183
1781116293114445312,2.8142402172088623,-0.5423490405082703,-1.4214369058609009,1.256618857383728,-0.835462749004364,0.40761056542396545,0.3685860335826874,0.10560429096221924,-0.13162484765052795,-0.12493371963500977,0.5607948000155502,-0.408165976027221,-0.7195092460176387,-0.034873868142844607,-0.4198358594564669,-1.9862879569402827,-0.7560488830030858
1781116293124480256,2.824275255203247,-0.5470665693283081,-1.4873443841934204,1.265880823135376,-0.8247553110122681,0.4160497486591339,0.38299018144607544,0.12930536270141602,-0.07997485995292664,-0.08320075273513794,0.5546044834894853,-0.4144882939520869,-0.7208984308747819,-0.030312439532780105,-0.42909690725206545,-2.0055344476102173,-0.7672553301851608
1781116293134514432,2.8343093395233154,-0.5176826119422913,-1.582587480545044,1.2596609592437744,-0.8134301900863647,0.4243585765361786,0.3978081941604614,0.1463921070098877,-0.034816890954971313,-0.06328970193862915,0.5481279746076689,-0.42074372044929814,-0.7224118042063467,-0.02552853536145051,-0.4382533990418604,-2.0256457807556756,-0.7785575508093215
1781116293144549376,2.8443443775177,-0.5342200398445129,-1.6744496822357178,1.2516499757766724,-0.801401674747467,0.43239250779151917,0.4132700264453888,0.13881921768188477,-0.020130515098571777,-0.08041483163833618,0.5412427939252228,-0.42690441879934937,-0.7241461433843271,-0.02052442466138903,-0.44714447475288166,-2.0469122700626037,-0.7899756189389032
1781116293154583296,2.8543782234191895,-0.6242114305496216,-1.6586209535598755,1.2763406038284302,-0.7888174057006836,0.4400547444820404,0.4290909469127655,0.1125020980834961,-0.04178506135940552,-0.05943155288696289,0.5340516840539498,-0.4331993218686671,-0.7258676343568184,-0.015599896643857322,-0.4556596261318416,-2.068996191047888,-0.8022212834040975
1781116293164618240,2.864413261413574,-0.6861043572425842,-1.6602154970169067,1.2781624794006348,-0.7758505344390869,0.44721144437789917,0.44503703713417053,0.08516144752502441,-0.06783217191696167,-0.044631123542785645,0.5266507548568421,-0.4397425560706338,-0.7274235398116005,-0.010977139896568336,-0.46364519714966423,-2.0915867279527838,-0.8156882373009559
1781116293174653184,2.874448299407959,-0.7876983880996704,-1.5926311016082764,1.246922492980957,-0.7626789212226868,0.45365041494369507,0.4610011577606201,0.05473220348358154,-0.09290212392807007,-0.0934169590473175,0.5190903881408893,-0.44633831464176843,-0.728891408194287,-0.006674142434894423,-0.4708572410577348,-2.1144813589858127,-0.8299398613503385
1781116293184687360,2.8844823837280273,-0.930600106716156,-1.5677921772003174,1.3129290342330933,-0.7494364380836487,0.45927804708480835,0.4768739342689514,0.04101663827896118,-0.10432809591293335,-0.11241769790649414,0.5114236863258593,-0.4532708245625031,-0.73005652347667,-0.0029784247526485836,-0.4771822719003296,-2.137487385879266,-0.8457736400819482
1781116293194722048,2.894517183303833,-0.9970784783363342,-1.5047506093978882,1.3209946155548096,-0.7358025908470154,0.46444106101989746,0.492838054895401,0.05640488862991333,-0.08846443891525269,-0.08333784341812134,0.5035681874978657,-0.46060127332912093,-0.7309346695287982,0.00037812510780842017,-0.4830033738828947,-2.160962671451759,-0.8631375901410098
1781116293204756224,2.9045512676239014,-0.9687938690185547,-1.4106987714767456,1.217000126838684,-0.7227384448051453,0.4686591625213623,0.5079444646835327,0.08617234230041504,-0.07191544771194458,-0.05680316686630249,0.49600138973228547,-0.4676955305393125,-0.7315962741201444,0.0032148141138378934,-0.48777231039235514,-2.183402596647997,-0.8805063993783818
1781116293214791424,2.914586305618286,-0.8743544220924377,-1.4660813808441162,1.2118945121765137,-0.7095041275024414,0.47265952825546265,0.5226824283599854,0.1318674087524414,-0.020175397396087646,0.0021893978118896484,0.4884870701411108,-0.47441547975497206,-0.732305370022957,0.006259602279449629,-0.492306274118113,-2.205722486945656,-0.8971127556380453
1781116293224825344,2.9246203899383545,-0.7674239873886108,-1.5390796661376953,1.1433711051940918,-0.6960091590881348,0.4765368402004242,0.537106990814209,0.18827295303344727,0.0821484923362732,0.07974469661712646,0.4809921865315026,-0.480667912358531,-0.7331520080602305,0.009644525737771156,-0.49671127922067987,-2.228038485648904,-0.9126577898978703
1781116293234860288,2.93465518951416,-0.669224739074707,-1.6142069101333618,1.1430994272232056,-0.6819000244140625,0.48053792119026184,0.551448404788971,0.19520586729049683,0.1479867398738861,0.16040456295013428,0.4733827385509416,-0.4864925188144645,-0.7341997158562475,0.013581860888439554,-0.5012679896387562,-2.2508160088358533,-0.9271572448908392
1781116293244894208,2.9446892738342285,-0.5675420165061951,-1.6252741813659668,1.1298385858535767,-0.6672924757003784,0.4847765266895294,0.5654308795928955,0.16305065155029297,0.14231383800506592,0.19325125217437744,0.4657907538389842,-0.49199171723186524,-0.7352955898843812,0.017983338301822756,-0.5061076431970977,-2.2737504715040564,-0.9408626657705235
1781116293254929408,2.9547243118286133,-0.5673585534095764,-1.5459308624267578,1.1570419073104858,-0.6526365280151367,0.48911991715431213,0.5786428451538086,0.07704442739486694,0.06567445397377014,0.18389993906021118,0.4584459101077974,-0.49733168931907845,-0.7361946882020969,0.022494425736998978,-0.5110804417378928,-2.296171743847843,-0.9542829127709379
1781116293264964352,2.964759349822998,-0.5410078763961792,-1.444664478302002,1.203791618347168,-0.6379810571670532,0.4934815764427185,0.5911480784416199,-0.013355553150177002,-0.012051552534103394,0.15485411882400513,0.45133445634722413,-0.502795536772142,-0.7367297212191015,0.02689159112094054,-0.5160881535274514,-2.318110322640459,-0.9682229254364927
1781116293274998272,2.9747931957244873,-0.5498054027557373,-1.2512779235839844,1.252451777458191,-0.6237818002700806,0.49801450967788696,0.6023937463760376,-0.10635137557983398,-0.04145616292953491,0.11924028396606445,0.4447899506376257,-0.5083738348461212,-0.7367176713682494,0.031067104010727334,-0.5213076481644232,-2.338753356486117,-0.9825677073943054
1781116293285033216,2.984828233718872,-0.44492876529693604,-1.11874258518219,1.249293565750122,-0.6103057265281677,0.502704381942749,0.6122220754623413,-0.15310686826705933,0.004925191402435303,0.08626449108123779,0.43893436301717076,-0.5139191366860738,-0.7362052345676068,0.03501117084666152,-0.526724317811515,-2.357761997608698,-0.9968986181919145
1781116293295067392,2.9948623180389404,-0.2840709090232849,-1.059419870376587,1.2326240539550781,-0.5972976684570312,0.5079630017280579,0.6206526160240173,-0.1313248872756958,0.08384925127029419,0.06936526298522949,0.43374929848399146,-0.5191115928871398,-0.7354246780810166,0.03918446134126938,-0.5328183449972254,-2.3753677557899313,-1.0102168455557612
1781116293305102336,3.004897356033325,-0.07034105807542801,-1.1048121452331543,1.1967371702194214,-0.584362268447876,0.5140200257301331,0.6279362440109253,-0.06625717878341675,0.1437709927558899,0.02449899911880493,0.42906969009596263,-0.5237586348556704,-0.7346053530919481,0.04394341767582803,-0.5398648294482443,-2.3921222910094984,-1.021969116999153
1781116293315136256,3.0149312019348145,0.09264573454856873,-1.1844662427902222,1.206283450126648,-0.5708779692649841,0.5210680961608887,0.6344966888427734,0.0022287964820861816,0.134907066822052,0.004800677299499512,0.4246091644302293,-0.5278850691998977,-0.7338839782835312,0.04958443453686909,-0.5481019104406494,-2.4089247723828136,-1.0322509135612354
1781116293325171200,3.024966239929199,0.32375407218933105,-1.2408711910247803,1.176762342453003,-0.556807816028595,0.5291225910186768,0.6403080224990845,0.05233699083328247,0.09415316581726074,0.0019954442977905273,0.42035645200275984,-0.5315296321949818,-0.7332327381687472,0.056093203092531976,-0.5575661872503233,-2.4258328225194545,-1.0412174937712368
1781116293335205376,3.0350003242492676,0.4422559440135956,-1.2588403224945068,1.1581755876541138,-0.5424978733062744,0.5380750298500061,0.6451134085655212,0.07870697975158691,0.056575238704681396,-0.018023014068603516,0.4164531979776635,-0.5346202345142871,-0.7326239874723068,0.06332471887381319,-0.5681516840182514,-2.442385420777081,-1.0487121567529347
1781116293345240320,3.0450353622436523,0.5538303852081299,-1.3115628957748413,1.116822361946106,-0.5279312133789062,0.5474773645401001,0.6492742300033569,0.10608679056167603,0.05277281999588013,-0.008084714412689209,0.41269868588188235,-0.5373259802386567,-0.7320641443258619,0.07101147189810121,-0.5793466974441053,-2.458908935184928,-1.0553663811806748
1781116293355275264,3.055070161819458,0.4998758137226105,-1.4437355995178223,1.1588430404663086,-0.5128295421600342,0.5567945241928101,0.6534415483474731,0.1343657374382019,0.009291291236877441,0.008896708488464355,0.4087105969194585,-0.5398050758488083,-0.7316633434170705,0.07896145868951433,-0.5905217846801459,-2.4761808093326545,-1.0618353233524855
1781116293365309184,3.0651042461395264,0.6423040628433228,-1.3651793003082275,1.164658784866333,-0.4969298243522644,0.5664324164390564,0.6574306488037109,0.1534544825553894,-0.048610150814056396,0.04245948791503906,0.40456364787761595,-0.5423714025356798,-0.7311282923648371,0.08725204878768239,-0.6021703255006144,-2.4943475143646765,-1.068939573550768
1781116293375344384,3.075139284133911,0.7304618954658508,-1.3205907344818115,1.2819218635559082,-0.48113739490509033,0.5769464373588562,0.6600298881530762,0.09386938810348511,-0.07630568742752075,0.04546016454696655,0.4009894763063358,-0.5448106597229254,-0.7302029078637359,0.09587731140403771,-0.614985238507689,-2.5116916895043047,-1.0758234551223622
1781116293385378304,3.0851733684539795,0.8513206839561462,-1.2561254501342773,1.3744992017745972,-0.4647197425365448,0.5885234475135803,0.6615707278251648,0.06762504577636719,-0.03293567895889282,0.06056678295135498,0.39772996322267323,-0.5474603333738042,-0.7287472438800014,0.10500256971992526,-0.6292312627568045,-2.5292249030136937,-1.0835537084152795
1781116293395413248,3.095208168029785,0.928216278553009,-1.1262481212615967,1.430330514907837,-0.44844621419906616,0.6008755564689636,0.6616981029510498,0.016515731811523438,-0.0498044490814209,0.08059614896774292,0.39506784931204875,-0.5501416402105851,-0.7267690297686841,0.11433413564134179,-0.644596017182394,-2.5459765381719954,-1.091608515636022
1781116293405447168,3.1052422523498535,1.0117204189300537,-1.0467075109481812,1.48615562915802,-0.43236443400382996,0.6137651205062866,0.6605708003044128,-0.02384290099143982,-0.10422831773757935,0.07745116949081421,0.3929416970782734,-0.5529078640035843,-0.724277764017025,0.12373982113946654,-0.6608208503826574,-2.56203838508352,-1.100207983932555
1781116293415482368,3.1152772903442383,1.0931189060211182,-1.069350004196167,1.4862509965896606,-0.41614198684692383,0.6270611882209778,0.6584985256195068,0.00828978419303894,-0.09990048408508301,0.07528144121170044,0.39109366414168184,-0.5555604586392306,-0.7215274263832236,0.1334036831530227,-0.6777747605884713,-2.57800700033968,-1.1089476365150026
1781116293425516288,3.1253113746643066,1.2530457973480225,-1.1741151809692383,1.4932010173797607,-0.39931488037109375,0.6408492922782898,0.6556368470191956,0.060646116733551025,-0.02115941047668457,0.05514806509017944,0.38928657417404744,-0.5578688657418759,-0.7187494384025072,0.1436575373953267,-0.6956040530034553,-2.594546132911645,-1.1173487457106555
1781116293435551232,3.1353461742401123,1.5013988018035889,-1.2313904762268066,1.4895415306091309,-0.38164564967155457,0.6557519435882568,0.651410698890686,0.08313801884651184,0.06179255247116089,0.01344519853591919,0.3876707603632105,-0.55963912405154,-0.7158976225481293,0.15493868498308855,-0.7151781444194674,-2.6116234709161366,-1.124900155137702
1781116293445586176,3.145381212234497,1.6652202606201172,-1.215561032295227,1.4668554067611694,-0.36383262276649475,0.6716361045837402,0.6453920006752014,0.04915058612823486,0.09659814834594727,-0.01779806613922119,0.38656139346376384,-0.560857415764842,-0.7128358500064855,0.16695599706105738,-0.7364148839650274,-2.628262502658446,-1.13145448297271
1781116293455620352,3.1554152965545654,1.8012257814407349,-1.1695525646209717,1.454750895500183,-0.3461730182170868,0.6879843473434448,0.6378414630889893,0.02039790153503418,0.1102181077003479,0.0008150935173034668,0.38590032341122915,-0.561669180360652,-0.7095410164307989,0.17933261408535311,-0.7587079242245292,-2.644351386776806,-1.137456718744458
1781116293465655296,3.16545033454895,1.8183025121688843,-1.0651111602783203,1.4421045780181885,-0.32890576124191284,0.7044143676757812,0.6289842128753662,0.01042434573173523,0.08924096822738647,0.044218242168426514,0.38567789613624426,-0.5622834410988072,-0.7059245195788166,0.19172998890592813,-0.7815977593689156,-2.659780919220304,-1.1434860004831622
1781116293475689216,3.1754841804504395,1.9244134426116943,-0.9924820065498352,1.4310508966445923,-0.31224966049194336,0.7207933664321899,0.6188353896141052,0.0017332732677459717,0.042313992977142334,0.12025457620620728,0.38594190837492776,-0.5626801495949998,-0.7020033875574321,0.20403723110285513,-0.8049462054120784,-2.6742907471517783,-1.1494046491781362
1781116293485724160,3.185519218444824,1.8974649906158447,-0.9038192629814148,1.4489920139312744,-0.2958497703075409,0.7369429469108582,0.6077725291252136,0.007428199052810669,0.01758873462677002,0.14183056354522705,0.3864730357844109,-0.5630391021091082,-0.6977630236279081,0.21622248731482518,-0.8285366104214718,-2.688579204219352,-1.155907119626389
1781116293495758336,3.1955533027648926,1.9507946968078613,-0.7849810123443604,1.4896246194839478,-0.27978217601776123,0.7527424693107605,0.5959031581878662,-0.00880730152130127,0.012882411479949951,0.16273337602615356,0.3872971824121241,-0.5634904388207812,-0.6931306460322291,0.2281431095554921,-0.8522181242315697,-2.7026336113657874,-1.1633655114155903
1781116293505793280,3.2055883407592773,2.023027181625366,-0.6266350746154785,1.5449094772338867,-0.2639784514904022,0.7687094807624817,0.5825812220573425,-0.041288822889328,0.00494152307510376,0.13629072904586792,0.3887087511401237,-0.5640407494421916,-0.6878580148138835,0.24003089238333983,-0.8768210197094456,-2.7161482418557634,-1.1717887877895636
1781116293515827200,3.2156221866607666,2.0324668884277344,-0.511833906173706,1.5540106296539307,-0.24868261814117432,0.7843270301818848,0.5683201551437378,-0.04898577928543091,0.040288329124450684,0.13068485260009766,0.39058479721525563,-0.5647408829582377,-0.6820761093792377,0.2515618245529741,-0.9016105506657263,-2.729119371448557,-1.1812845551375681
1781116293525862144,3.2256572246551514,2.2320261001586914,-0.4869758188724518,1.6038082838058472,-0.23333562910556793,0.8000965714454651,0.5526297092437744,-0.01785452663898468,0.03915196657180786,0.16016924381256104,0.39287285715244746,-0.565292510205622,-0.6758396599937248,0.2633172059324459,-0.9274562170802554,-2.7420724410768234,-1.1913125430836933
1781116293535897344,3.235692262649536,2.257181167602539,-0.40902936458587646,1.5791904926300049,-0.21790426969528198,0.8161153197288513,0.5352321863174438,0.01676289737224579,0.02133280038833618,0.15647923946380615,0.39562925370854457,-0.5655767159861956,-0.6691330785898661,0.2754294555682863,-0.9546565406940701,-2.7549625972329337,-1.2016321936691892
1781116293545931264,3.2457263469696045,2.1572513580322266,-0.38057413697242737,1.553767442703247,-0.2029390186071396,0.830976128578186,0.5179713368415833,0.011380225419998169,0.08999848365783691,0.15796250104904175,0.3983377319160688,-0.5658906018010543,-0.6623847108723248,0.28695177877736505,-0.9808599946115468,-2.7681787838519742,-1.2129465962964752
1781116293555966464,3.2557613849639893,2.2107770442962646,-0.3629211187362671,1.5554779767990112,-0.18793950974941254,0.8451645970344543,0.5003755688667297,0.0029114335775375366,0.10002583265304565,0.15225815773010254,0.40100480766148944,-0.5661150546815662,-0.6555162224320694,0.29834112394925677,-1.0068730593592767,-2.7822987658141938,-1.2253103732760053
1781116293566000128,3.2657952308654785,2.2533299922943115,-0.2950250208377838,1.4499813318252563,-0.17339059710502625,0.8589574098587036,0.4817970097064972,0.0022174417972564697,0.03177458047866821,0.11270081996917725,0.40398996352844935,-0.5660264740539189,-0.6484693792208752,0.3096671835371189,-1.0332300442383688,-2.7961405794281315,-1.2376668302803326
1781116293576035328,3.2758302688598633,2.153259754180908,-0.28200164437294006,1.2976008653640747,-0.16020049154758453,0.8716536164283752,0.4632020890712738,0.021818503737449646,0.08983337879180908,0.14364004135131836,0.4071578804274561,-0.5655403843149693,-0.6416892746726086,0.3203459955845374,-1.0585661721328055,-2.8086157637387688,-1.2488422139388555
1781116293586069248,3.2858643531799316,2.2652714252471924,-0.21473897993564606,1.2456945180892944,-0.14786143600940704,0.8836327791213989,0.44421881437301636,0.05258557200431824,0.22337722778320312,0.2447614073753357,0.41049477277217367,-0.5646534847393263,-0.6350400338930644,0.33073363006669687,-1.0835656721131983,-2.820270664679402,-1.2591343306941576
1781116293596105216,3.2959001064300537,2.202942371368408,0.03827037662267685,1.1670221090316772,-0.13666276633739471,0.8951096534729004,0.42438456416130066,-0.0018412619829177856,0.24531710147857666,0.29601341485977173,0.4144942052816099,-0.5636949798444909,-0.6280447831017043,0.3405911828647944,-1.1086770487604558,-2.830053187097244,-1.2690710499606628
1781116293606138880,3.305933952331543,2.345050096511841,0.26886510848999023,1.1079236268997192,-0.12705296277999878,0.9060055017471313,0.4037473797798157,-0.10481961071491241,0.2000126838684082,0.3241732716560364,0.4194202212200217,-0.5628158663428617,-0.6205739147765392,0.34958994437649166,-1.1337493154744929,-2.836719045793234,-1.2782893226440852
1781116293616174080,3.3159689903259277,2.6584622859954834,0.3776658773422241,1.0306503772735596,-0.11855319887399673,0.917128324508667,0.38055309653282166,-0.12612146139144897,0.17283743619918823,0.29158124327659607,0.42556465469452065,-0.5614367958530779,-0.6124257266404547,0.3586336798800002,-1.1608150761331508,-2.839592945671289,-1.2850796582976067
1781116293626209024,3.3260040283203125,3.193186044692993,0.34384721517562866,0.867422878742218,-0.11104875802993774,0.9289481043815613,0.3531621992588043,-0.09203047305345535,0.31418538093566895,0.24725589156150818,0.43312318815583606,-0.55875346195231,-0.6036353737894058,0.3685419620729605,-1.1915612559289177,-2.8369402233818417,-1.286203019956452
1781116293636243200,3.336038112640381,3.942901372909546,0.2690824270248413,0.7003697156906128,-0.10479813069105148,0.9418232440948486,0.3193528950214386,-0.07305832952260971,0.5744425654411316,0.1888715922832489,0.4425522693019706,-0.553844934239512,-0.5940810049331082,0.38009344857847377,-1.2280143368429992,-2.824507329680668,-1.2762646546865524
1781116293646277888,3.3460729122161865,4.224928855895996,0.23442217707633972,0.5628573894500732,-0.0996091365814209,0.9547999501228333,0.2800629138946533,-0.06648281216621399,0.7954442501068115,0.13735654950141907,0.4534249032461864,-0.5469825951367929,-0.5838163209414838,0.39290517526138974,-1.2689861094664623,-2.7998782385852548,-1.253040918823868
1781116293656312064,3.356106996536255,4.721714019775391,0.16986875236034393,0.43741053342819214,-0.09518542140722275,0.9668877124786377,0.23678673803806305,-0.09069714695215225,0.6932685375213623,0.20742714405059814,0.46510915459828656,-0.538527047355757,-0.5730462334815345,0.4065466000133562,-1.3127395385521448,-2.7593736845740318,-1.2128229251411553
1781116293666347008,3.3661420345306396,4.510468482971191,0.33550792932510376,0.3658098578453064,-0.09194975346326828,0.9773037433624268,0.19084693491458893,-0.14199799299240112,0.23644131422042847,0.18883751332759857,0.47757976659270596,-0.5290857390476865,-0.5616865243936116,0.4201119538212772,-1.3573360591521104,-2.692612065537872,-1.1468256334691909
1781116293676381184,3.376176118850708,4.03176212310791,0.2606717646121979,0.39172640442848206,-0.08873297274112701,0.9849022626876831,0.14864060282707214,-0.1329466849565506,-0.0024040937423706055,0.21659374237060547,0.4888485459723835,-0.520493326310014,-0.5508239248057553,0.4320958130053065,-1.3968083422423674,-2.603409043812407,-1.0591359081040768
1781116293686415872,3.3862109184265137,3.6654129028320312,0.30635443329811096,0.3697047233581543,-0.0853084996342659,0.9902207255363464,0.11038687080144882,-0.031894221901893616,-0.2624375820159912,0.20547008514404297,0.49869656476450586,-0.5126291327237077,-0.540744677647243,0.442841124676675,-1.4308303073934514,-2.4836498286970343,-0.940662305072757
1781116293696451072,3.3962459564208984,3.292825222015381,0.3011847138404846,0.38666826486587524,-0.08187399059534073,0.9937953948974609,0.07528223842382431,0.013178899884223938,-0.49561119079589844,0.05592811107635498,0.5076458515979085,-0.5055135053418512,-0.5311282476431936,0.4523876296410056,-1.4593417523302352,-2.314275122842256,-0.7731694560725654
1781116293706484992,3.406280040740967,2.916323661804199,0.1050318256020546,0.4725123345851898,-0.0777280181646347,0.9959911108016968,0.044272612780332565,0.062347181141376495,-0.4350169897079468,-0.001441124826669693,0.51501411919174,-0.4992094899554291,-0.5224233839485781,0.4611118453709508,-1.4812241366318168,-2.0885505956197217,-0.5484747224845963
1781116293716520192,3.4163150787353516,2.8530023097991943,-0.12287697196006775,0.5339647531509399,-0.07269340753555298,0.9972310662269592,0.015675023198127747,0.13316401839256287,-0.3581168055534363,-0.04857301712036133,0.520925406513178,-0.4930535944465676,-0.5145246973188105,0.4698926939196267,-1.496362486356118,-1.7831764421411083,-0.24196394295574333
