time,seconds_elapsed,rotationRateX,rotationRateY,rotationRateZ,gravityX,gravityY,gravityZ,accelerationX,accelerationY,accelerationZ,quaternionW,quaternionX,quaternionY,quaternionZ,pitch,roll,yaw
1781116024230108928,0.0473020076751709,0.3984607756137848,0.030252397060394287,-0.04054538905620575,0.13457009196281433,-0.30942174792289734,-0.9413549304008484,0.014569312334060669,-0.01862695813179016,-0.03229314088821411,0.9852291186984999,0.15695617910727683,0.06846384157544065,0.0010673427693107128,0.3145848745875849,0.1419915956425465,-0.020390500774886487
1781116024240143104,0.05733609199523926,0.3103508949279785,-0.019999587908387184,-0.038477979600429535,0.13471680879592896,-0.3126796782016754,-0.9402567744255066,0.016619861125946045,-0.053638070821762085,-0.019475281238555908,0.9849507069780994,0.15867569912974533,0.06851009816253739,0.0007604630622277,0.31801286605744433,0.14230810986324083,-0.02131398324367798
1781116024250178048,0.06737112998962402,0.2499741017818451,-0.06857910752296448,-0.004273935221135616,0.13437965512275696,-0.3152744770050049,-0.9394382238388062,0.007633894681930542,-0.09369158744812012,-0.029189705848693848,0.9847430781950277,0.16004502754776814,0.06831170800451553,0.0004977045801291932,0.32074585417565965,0.14207876696977406,-0.022009853161766315
1781116024260212224,0.07740521430969238,0.26693952083587646,-0.08011259138584137,0.042393703013658524,0.13360236585140228,-0.3176984488964081,-0.9387322068214417,0.0004918575286865234,-0.09734055399894714,-0.03149789571762085,0.9845638300173891,0.16130790910710063,0.06792399971889335,0.00046079420735590745,0.32330120711778043,0.14137270709281952,-0.02215555199092662
1781116024270246144,0.08743906021118164,0.3262483775615692,-0.07236332446336746,0.0498281829059124,0.13272421061992645,-0.3205327093601227,-0.9378929138183594,-0.0050081610679626465,-0.09064587950706482,-0.047595977783203125,0.9843506981251247,0.16277757101928722,0.06750564765923088,0.0005352384489444217,0.3262918002935601,0.14057973061477336,-0.02209032971362698
1781116024280281088,0.0974740982055664,0.4356488883495331,-0.07572343945503235,0.04710483178496361,0.1318822205066681,-0.3241741359233856,-0.9367594122886658,-0.016739413142204285,-0.09077337384223938,-0.05788469314575195,0.984062757760959,0.16467219250379275,0.06710702509057812,0.0005854801165206527,0.33013857533878666,0.13986634077577997,-0.02214671553158479
1781116024290315264,0.10750818252563477,0.5178191661834717,-0.09380443394184113,0.0607287660241127,0.13092802464962006,-0.32878026366233826,-0.935286819934845,-0.018852218985557556,-0.10153284668922424,-0.06027287244796753,0.9836885484233161,0.1670741876075556,0.06665444128460242,0.0006176605413302428,0.33501175332228617,0.1390832304616064,-0.022298711676396323
1781116024300348928,0.11754202842712402,0.554110050201416,-0.12741659581661224,0.06338820606470108,0.1296771615743637,-0.33390936255455017,-0.933642566204071,-0.01909671723842621,-0.13836538791656494,-0.06947022676467896,0.9832705478906386,0.16975269499858553,0.06605113716885748,0.000633629027766712,0.3404479383827391,0.13801083659289637,-0.022470109407477318
1781116024310383104,0.12757611274719238,0.6224368810653687,-0.18635447323322296,0.03159112110733986,0.1279880553483963,-0.3393752872943878,-0.9319031238555908,-0.031216830015182495,-0.1883499026298523,-0.0865904688835144,0.982828218192536,0.17261413958436714,0.0652133709860785,0.0005765234820116633,0.34625269124471847,0.13648662463234892,-0.022731164546276265
1781116024320418048,0.13761115074157715,0.8115413188934326,-0.11524061858654022,0.042346030473709106,0.1264466494321823,-0.3460940420627594,-0.9296398162841797,-0.05766002833843231,-0.2168026864528656,-0.1494617462158203,0.9822524417667725,0.17615028375499647,0.06442958891063573,0.00035650063995559133,0.3534046306445769,0.13518720873868953,-0.023449428182200478
1781116024330451968,0.1476449966430664,1.0115572214126587,0.014840951189398766,0.17733155190944672,0.1255548596382141,-0.3546949326992035,-0.9265136122703552,-0.08125859498977661,-0.1875719130039215,-0.23275762796401978,0.981456347154871,0.18066615866243566,0.06405412108712923,0.0004920375268555251,0.3625877631002417,0.13469274315577448,-0.02372353237764716
1781116024340486144,0.15767908096313477,1.1051307916641235,0.06699257344007492,0.22911831736564636,0.1253015249967575,-0.36493387818336487,-0.9225631356239319,-0.055172160267829895,-0.12794023752212524,-0.25849759578704834,0.980437612609576,0.18578700254001235,0.0648198461392578,0.0048499041390639664,0.373561774056308,0.13499290365764202,-0.01565562297934938
1781116024350521088,0.16771411895751953,0.934135913848877,-0.23478059470653534,-0.15738438069820404,0.12449001520872116,-0.37471842765808105,-0.9187427759170532,-0.041344866156578064,-0.11164021492004395,-0.22655141353607178,0.9794637490155753,0.19097757172065344,0.06446832059030282,0.0047093302790389945,0.38409304936859817,0.13468013383090505,-0.016609681686533782
1781116024360555264,0.1777482032775879,0.8510008454322815,-0.2896977663040161,-0.22698023915290833,0.12349908798933029,-0.382885217666626,-0.9155036211013794,-0.11455744504928589,-0.19060111045837402,-0.16277390718460083,0.9786421934158032,0.19540195199691682,0.0637672536955052,0.003356063999011687,0.3929174873733639,0.13408799291864537,-0.01986686313199781
1781116024370588928,0.18778204917907715,0.5135090947151184,-0.038380324840545654,0.18632744252681732,0.12204944342374802,-0.38896214962005615,-0.9131332635879517,-0.10073291510343552,-0.28662073612213135,-0.18816983699798584,0.9780392178178133,0.1986911319010765,0.06289035396558157,0.002438508405140054,0.3995047680884184,0.13287253485200784,-0.021951847703503245
1781116024380624128,0.19781708717346191,0.289686381816864,-0.41044390201568604,0.2849504351615906,0.11892665922641754,-0.3928489089012146,-0.911880612373352,-0.015151627361774445,-0.2897835373878479,-0.13516223430633545,0.9777153276756845,0.2006731518675624,0.061562931966768236,0.003626265445017637,0.4037275392084254,0.1296871289620341,-0.01915850822550124
1781116024390658048,0.20785117149353027,0.36558085680007935,-0.43318888545036316,0.206917405128479,0.11407295614480972,-0.39590349793434143,-0.9111793637275696,0.05589468777179718,-0.18977460265159607,-0.09326094388961792,0.9775338594233851,0.20224886046242863,0.059209144688358514,0.0041654965307920296,0.40705152261255384,0.12454467185571343,-0.01721338586202898
1781116024400691968,0.21788501739501953,0.5630654692649841,-0.4670596420764923,0.4406638443470001,0.10877559334039688,-0.400470495223999,-0.9098303318023682,0.01642277091741562,-0.03377938270568848,-0.12083983421325684,0.9771841325385459,0.20461206293729897,0.05673385254148962,0.005139597335514689,0.4120302620397618,0.1189911156593204,-0.014375761379084213
1781116024410726912,0.2279200553894043,0.7450509667396545,-0.5066408514976501,0.6113319993019104,0.10215968638658524,-0.4070392847061157,-0.9076796770095825,0.019391827285289764,0.07253608107566833,-0.09181678295135498,0.9766218185217103,0.20800296388251668,0.05380442609598133,0.0070515028382096695,0.41921031112644835,0.11207870228403437,-0.009425973418160068
1781116024420761088,0.23795413970947266,0.8078219294548035,-0.554890513420105,0.7359093427658081,0.09459447115659714,-0.4148190915584564,-0.9049735069274902,0.009958751499652863,0.08614477515220642,-0.044550418853759766,0.9759071540013831,0.21203324715418234,0.050548600215163775,0.009590497609505266,0.4277439795896057,0.10414913069546093,-0.0029861409004817915
1781116024430795008,0.24798798561096191,0.7884098887443542,-0.6419181227684021,0.82872474193573,0.08587899059057236,-0.4228329658508301,-0.9021291732788086,0.030148841440677643,0.07102635502815247,-0.025025367736816406,0.9751441846215158,0.21620112578145023,0.04682393324688314,0.012583603670785771,0.4365692289672767,0.09490988382101108,0.004739419153313964
1781116024440829952,0.2580230236053467,0.6064425110816956,-0.7633073329925537,0.9401703476905823,0.07576978206634521,-0.4299423098564148,-0.8996713757514954,0.08481371402740479,0.04842677712440491,0.05080968141555786,0.9744641467720773,0.21990793259835262,0.04248321559298755,0.01597704211648447,0.4444288721831633,0.08402112580528187,0.013793680440656477
1781116024450864128,0.26805710792541504,0.3748904764652252,-0.8411254286766052,1.029698371887207,0.06423310190439224,-0.435057669878006,-0.8981084823608398,0.12132902443408966,0.05694490671157837,0.12029176950454712,0.9739924976407521,0.22257422509823224,0.03750278448662361,0.01981756483024162,0.45010233440672104,0.07139885237409233,0.02433597599887123
1781116024460898048,0.2780911922454834,0.14570201933383942,-0.8899446129798889,1.0756815671920776,0.05179690942168236,-0.4380209445953369,-0.8974713087081909,0.13558101654052734,0.06454679369926453,0.16269958019256592,0.9737360983264157,0.22412794611433653,0.03210944407517777,0.02394913019007934,0.45339599071908704,0.05765032827574887,0.03587897840719555
1781116024470932992,0.28812599182128906,-0.09163675457239151,-0.928872287273407,1.1244474649429321,0.03878157585859299,-0.438757061958313,-0.8977684378623962,0.15306717157363892,0.07868018746376038,0.21885919570922852,0.9736959739445563,0.2245368427662686,0.02643819758307703,0.028289245357682635,0.4542150326690911,0.04317091049851896,0.0481125677015153
1781116024480967168,0.2981600761413574,-0.2807137370109558,-0.9626847505569458,1.18535315990448,0.02516518160700798,-0.4373871982097626,-0.8989210724830627,0.17394675314426422,0.08594679832458496,0.2506667375564575,0.9738473637157464,0.2238748788822887,0.020481537729652277,0.032890248442052024,0.4526911640095297,0.02798756368854317,0.06107565053451543
1781116024491001088,0.3081941604614258,-0.3997919261455536,-0.9570843577384949,1.2075676918029785,0.011263148859143257,-0.43454739451408386,-0.9005785584449768,0.2022225707769394,0.09119412302970886,0.2297411561012268,0.9740981158774302,0.22249382262174489,0.014395209441257387,0.03771238119091825,0.4495356693766018,0.012505918396544491,0.07453243434923591
1781116024501035008,0.31822800636291504,-0.5088574290275574,-0.9733853340148926,1.1748688220977783,-0.0026350507978349924,-0.4304611086845398,-0.9026052951812744,0.23102860152721405,0.1119186282157898,0.2646658420562744,0.9744207264319685,0.22051983854850832,0.008267957247977463,0.042508621049390946,0.44500359088054253,-0.002919374890283803,0.08785423519209862
1781116024511069952,0.3282630443572998,-0.5501803755760193,-0.9654248356819153,1.1174553632736206,-0.01637389324605465,-0.42551642656326294,-0.9048025608062744,0.2362225204706192,0.11425238847732544,0.2748434543609619,0.9747751267537316,0.2181608593911616,0.002134136999879075,0.047062751612461255,0.4395324870904828,-0.018094672607682584,0.10052832539558632
1781116024521104128,0.33829712867736816,-0.5495726466178894,-0.9076200127601624,1.059805154800415,-0.029529614374041557,-0.42023274302482605,-0.9069357514381409,0.209751158952713,0.11238667368888855,0.28112703561782837,0.9751048440045841,0.21567992774085543,-0.0037800521272366564,0.051367134242385336,0.43370179536828507,-0.03254826489581059,0.11243135247886583
1781116024531138304,0.3483312129974365,-0.5160812139511108,-0.81267911195755,1.0067658424377441,-0.041687291115522385,-0.41501542925834656,-0.9088588356971741,0.17987088859081268,0.10622331500053406,0.2751002907752991,0.9753735649311903,0.2132724755813584,-0.009243161744148859,0.055460084062062806,0.42795974764386785,-0.045835602814662084,0.12356042804669527
1781116024541172992,0.3583660125732422,-0.5114343166351318,-0.6899252533912659,0.9760902523994446,-0.052654024213552475,-0.409897118806839,-0.9106107354164124,0.16974997520446777,0.09234645962715149,0.26582008600234985,0.9755861476816546,0.21093853532833373,-0.014126699462635138,0.05947324561439579,0.4223412519673117,-0.05775844266763057,0.13415717183158013
1781116024551205632,0.36839866638183594,-0.5112875699996948,-0.579788088798523,0.9448550939559937,-0.06240491941571236,-0.404644638299942,-0.9123422503471375,0.17432813346385956,0.06650987267494202,0.26495760679244995,0.9757780062433409,0.20854225606052065,-0.018412314468648855,0.06346976564228334,0.4165902056197459,-0.06829440277558524,0.1443477021081445
1781116024561239552,0.3784325122833252,-0.4878639876842499,-0.44816330075263977,0.8933322429656982,-0.07083116471767426,-0.3994581699371338,-0.9140110015869141,0.17616258561611176,0.02976822853088379,0.25991249084472656,0.9759432895934753,0.20617498696158496,-0.02205383835205855,0.06738105678948032,0.4109257352602615,-0.0773403003213867,0.1539908774209129
1781116024571274496,0.38846755027770996,-0.4481850266456604,-0.24218326807022095,0.920689046382904,-0.07760963588953018,-0.3944564759731293,-0.9156314134597778,0.16949805617332458,-0.027525335550308228,0.29613983631134033,0.9760763914564484,0.20387898034272156,-0.024852867547469404,0.07134879203528806,0.40547628973258215,-0.08455866726776826,0.163327553685536
1781116024581308672,0.3985016345977783,-0.2402065247297287,0.1446552723646164,1.271589756011963,-0.08225501328706741,-0.390139639377594,-0.9170742630958557,0.19954931735992432,-0.131802499294281,0.5154781937599182,0.9760595535696655,0.201916051393784,-0.026320784483675093,0.0764518358601118,0.4007832430119007,-0.08945349338517258,0.1745160712093311
1781116024591342336,0.4085354804992676,0.4114210605621338,0.5898638963699341,1.4234882593154907,-0.08519970625638962,-0.3906320035457611,-0.9165956974029541,0.3217109441757202,-0.3065115511417389,0.6472780704498291,0.9753367203742431,0.20251232695740712,-0.026285239782678754,0.08376226886636408,0.4013180356992614,-0.09268600054716368,0.19020523861196947
1781116024601377536,0.41857051849365234,0.26169174909591675,0.7659719586372375,0.9403256177902222,-0.08343473076820374,-0.392630398273468,-0.9159039258956909,0.37084928154945374,-0.2955867648124695,0.6747082471847534,0.9745770904271862,0.20365401063961205,-0.023939089891953938,0.09028486869991878,0.4034899174000379,-0.09084476752451705,0.2033452474310429
1781116024611411456,0.4286046028137207,-0.18063880503177643,1.0813716650009155,0.5706125497817993,-0.07778287678956985,-0.3925912082195282,-0.9164180159568787,0.38108181953430176,-0.1424429714679718,0.6570033431053162,0.9742771176361036,0.20343627521438262,-0.02011651698755416,0.09483253589908025,0.40344732104073056,-0.08467412947882352,0.21138752032055763
1781116024621445632,0.43863868713378906,-0.4249952733516693,1.2332783937454224,0.5850716233253479,-0.06928316503763199,-0.3890995383262634,-0.9185866117477417,0.2351004183292389,-0.011886179447174072,0.4522017240524292,0.9744465448374212,0.2011881450816041,-0.015166091276125861,0.0987286632491099,0.3996538892048071,-0.07528112172423147,0.2171998352483212
1781116024631480576,0.4486734867095947,-0.37034666538238525,1.367350459098816,0.6689643859863281,-0.059727758169174194,-0.3849582076072693,-0.9209993481636047,0.0623522624373436,0.0143221914768219,0.20365315675735474,0.9746141241031946,0.19851274347582626,-0.009644420705759283,0.10308804269256727,0.3951625299441613,-0.0647603461410879,0.22373166679899986
1781116024641514496,0.4587075710296631,-0.278723806142807,1.4999525547027588,0.7470501661300659,-0.04914065822958946,-0.38157573342323303,-0.923030436038971,-0.02410152554512024,0.09287941455841064,0.005733072757720947,0.9746085469352188,0.196144456110238,-0.0034849494866595787,0.10795037763810576,0.3915004035440114,-0.053188183651225886,0.23117531989356466
1781116024651548672,0.46874165534973145,0.009152437560260296,1.5246464014053345,0.7893206477165222,-0.03806305304169655,-0.37985876202583313,-0.9242610931396484,-0.03714752197265625,0.16512182354927063,-0.09569740295410156,0.9743257970910523,0.1945764158279361,0.003078449680018739,0.11322513162272327,0.38964360566298983,-0.04115888827547039,0.23950236815036827
1781116024661583616,0.4787766933441162,0.10727953910827637,1.6256895065307617,0.8182678818702698,-0.02640358917415142,-0.38031718134880066,-0.9244791269302368,-0.08413107693195343,0.15938520431518555,-0.1603749394416809,0.9737303948219798,0.19405789398718418,0.010097369521724941,0.11869607305225299,0.39013921827441783,-0.028552740152954042,0.2482415942890769
1781116024671617536,0.48881053924560547,0.07948998361825943,1.5306897163391113,0.7394758462905884,-0.014721359126269817,-0.38113123178482056,-0.924403727054596,-0.1797671616077423,0.007458746433258057,-0.13240474462509155,0.9730415290470668,0.1936614789202158,0.01712770616240608,0.12406519419338805,0.39101957068325044,-0.015923902219144637,0.2567900516369813
1781116024681651712,0.49884462356567383,-0.22069035470485687,1.413354754447937,0.6989918351173401,-0.0037818653509020805,-0.3804990351200104,-0.9247735738754272,-0.28593677282333374,-0.17717918753623962,-0.14389097690582275,0.9724986427867403,0.1925018609880642,0.02358467159752427,0.1289701495501568,0.3903358607618088,-0.004089481259133497,0.26450435013455587
1781116024691685632,0.5088787078857422,-0.47122907638549805,1.3191180229187012,0.6781083345413208,0.006263927556574345,-0.37718138098716736,-0.9261182546615601,-0.35691091418266296,-0.20275941491127014,-0.15646231174468994,0.9722060569434,0.18994707609810196,0.029342647865387494,0.13369585161027753,0.3867509914814152,0.006763534086443303,0.271997262212774
1781116024701720576,0.5189135074615479,-0.3956456482410431,1.3085609674453735,0.6896941661834717,0.015844503417611122,-0.37303176522254944,-0.9276832938194275,-0.3832913935184479,-0.10925278067588806,-0.182439386844635,0.9719640162207274,0.1869508776260789,0.03475240449029624,0.13830282892144222,0.38227450814544595,0.017077986338633756,0.2793819612071506
1781116024711754496,0.5289475917816162,-0.15693160891532898,1.3252381086349487,0.8129751086235046,0.025407075881958008,-0.3705776333808899,-0.9284539222717285,-0.327683687210083,0.03343468904495239,-0.23275518417358398,0.9714470725518984,0.18478909851705555,0.04032400977537061,0.143239529020621,0.3796308654253947,0.02735810124875397,0.2875329943062985
1781116024721788672,0.5389816761016846,0.08587118238210678,1.2145280838012695,0.8874690532684326,0.03413141518831253,-0.37056028842926025,-0.9281811118125916,-0.21336115896701813,0.10572877526283264,-0.27309757471084595,0.9705692444645418,0.18389456451796218,0.0457410909719894,0.14861335860442368,0.3796121849448403,0.0367558047878344,0.29681713279349453
1781116024731823616,0.5490167140960693,0.1216379702091217,1.0408686399459839,0.86756831407547,0.04137696325778961,-0.3720206916332245,-0.9273017644882202,-0.12266053259372711,0.08291241526603699,-0.2819114923477173,0.9695190136652749,0.18383905643987605,0.050520456371616014,0.1538958153356211,0.3811850201175907,0.04459123929433199,0.30623710935946685
1781116024741857536,0.5590505599975586,0.0010369867086410522,0.8340996503829956,0.9073977470397949,0.04680965840816498,-0.37302538752555847,-0.9266395568847656,-0.06998776644468307,0.03493642807006836,-0.2901877760887146,0.9685170339668986,0.18365483416652248,0.05432410770205853,0.15904288554630316,0.38226764560214394,0.05047259235647471,0.31575215314720495
1781116024751891712,0.569084644317627,-0.12094724178314209,0.6292322278022766,0.9382637739181519,0.05012865737080574,-0.3728983998298645,-0.9265170693397522,-0.04735155403614044,-0.025203436613082886,-0.2959560751914978,0.9676200940458368,0.1830202381636437,0.05696536446916843,0.1642250270795568,0.38213077057654576,0.05405170472553847,0.3257797065026317
1781116024761926656,0.5791196823120117,-0.3003566861152649,0.49292269349098206,0.9436750411987305,0.05181493982672691,-0.37147656083106995,-0.9269953370094299,-0.03985205292701721,-0.06478747725486755,-0.29480642080307007,0.9668582193336428,0.18183219453474836,0.058646228776343026,0.169360102515402,0.380598885111962,0.055837472685532095,0.33605359615000885
1781116024771960576,0.589153528213501,-0.5097314715385437,0.37933701276779175,0.931221604347229,0.05237739905714989,-0.36816126108169556,-0.9282854795455933,-0.023080524057149887,-0.07109349966049194,-0.28657352924346924,0.9662884454005682,0.17975200715871714,0.05955233193443939,0.1744405007235014,0.3770305901925481,0.056364043247935716,0.3464495253038566
1781116024781994496,0.5991876125335693,-0.6360241770744324,0.2963111102581024,0.8602161407470703,0.05221572145819664,-0.36325517296791077,-0.9302253723144531,-0.0027467235922813416,-0.06867533922195435,-0.2748985290527344,0.9659066833743225,0.17692752293561884,0.059866339646854304,0.17926796182282523,0.3717593774289798,0.05607349321011324,0.35646775877924775
1781116024792029696,0.6092226505279541,-0.6367146968841553,0.21716010570526123,0.7959707975387573,0.05160672217607498,-0.3576783239841461,-0.9324178099632263,-0.01616055890917778,-0.06166371703147888,-0.2806406617164612,0.9656436730184833,0.17382901447286095,0.0597877160574419,0.18368779419283268,0.3657805579487032,0.05529079719689819,0.3657257117220186
1781116024802063360,0.6192564964294434,-0.5613147616386414,0.16972920298576355,0.7538220286369324,0.05064347758889198,-0.3524254858493805,-0.9344685673713684,-0.04319719597697258,-0.05809697508811951,-0.3469797968864441,0.9653867664099101,0.1709600814934436,0.059484145664125306,0.18778341276456753,0.36016160285439197,0.054141986200175914,0.3743753420459461
1781116024812097536,0.6292905807495117,-0.4083625078201294,0.09233773499727249,0.733003556728363,0.049315791577100754,-0.3481886088848114,-0.9361264109611511,-0.02040039375424385,-0.044664204120635986,-0.4250796437263489,0.965056056085665,0.16867188568158933,0.05904734943085805,0.191650830148849,0.35563808928404833,0.05263204245504253,0.38261855306485293
1781116024822132480,0.6393256187438965,-0.2149118334054947,-0.0413135290145874,0.6625251173973083,0.04712491109967232,-0.3456342816352844,-0.9371852278709412,0.028131432831287384,-0.060218989849090576,-0.46375471353530884,0.9646274461723945,0.1673621466480717,0.05828624631498393,0.19515796909947342,0.3529146514507153,0.050241140049502454,0.39027942651304404
1781116024832166656,0.6493597030639648,-0.05495384335517883,-0.19480189681053162,0.5951343774795532,0.043856170028448105,-0.34465867280960083,-0.9377030730247498,0.045163605362176895,-0.10568919777870178,-0.48292070627212524,0.9641571615079806,0.1670102085272252,0.057061866134505694,0.19812275147504865,0.3518751678106046,0.04673572683863568,0.3970239035097242
1781116024842200576,0.6593935489654541,0.08395823836326599,-0.3398267328739166,0.5314643383026123,0.03940125182271004,-0.3450331389904022,-0.9377631545066833,0.038296494632959366,-0.15653851628303528,-0.5100670456886292,0.9636575981939761,0.16750723918551327,0.05531510153615043,0.20061336806149466,0.3522740987079791,0.04199151195288421,0.4030204079630286
1781116024852235520,0.6694285869598389,0.2336643636226654,-0.5424349308013916,0.5010861754417419,0.03351281210780144,-0.3466939926147461,-0.9373794198036194,0.018611207604408264,-0.2094278335571289,-0.5016159415245056,0.9631258470560753,0.16884541035581122,0.05292937338085699,0.20267794457925956,0.35404418599469417,0.03573637907153652,0.4084289635156652
1781116024862269696,0.6794626712799072,0.35837221145629883,-0.7394742369651794,0.5211280584335327,0.02573350816965103,-0.34971603751182556,-0.9365022778511047,-0.010245833545923233,-0.27311721444129944,-0.5168058276176453,0.9625134373092368,0.17110435463563642,0.04972093497834707,0.2044969204928095,0.35726798455919073,0.027471407389763714,0.41373634638449686
1781116024872303360,0.6894965171813965,0.33446556329727173,-0.9561625719070435,0.6023358106613159,0.015834445133805275,-0.3532136380672455,-0.9354087114334106,-0.027736302465200424,-0.3172270357608795,-0.5494698286056519,0.9618292425965588,0.17384618559474624,0.045531990365478156,0.20637080704275185,0.3610039372071197,0.01692621893672127,0.41962368617523815
1781116024882338560,0.6995315551757812,0.18008103966712952,-1.205780267715454,0.709322452545166,0.0034223671536892653,-0.355781614780426,-0.9345628619194031,-0.03760205954313278,-0.3284377455711365,-0.5357587933540344,0.9611449301754913,0.17639333699448875,0.04004943180627986,0.2085233229711127,0.3637502601538287,0.003661981376920766,0.42661092050780575
1781116024892372736,0.7095656394958496,0.01071012020111084,-1.469818115234375,0.8432355523109436,-0.011867843568325043,-0.35667863488197327,-0.9341517686843872,-0.05992475897073746,-0.34716352820396423,-0.5039433240890503,0.9604882446360519,0.17841942819519208,0.03302469251215849,0.21104064359395602,0.3647102653921903,-0.012703723496336762,0.434913353769503
1781116024902406400,0.7195994853973389,-0.2064022272825241,-1.759220004081726,1.0310394763946533,-0.03030916303396225,-0.3555549085140228,-0.9341638088226318,-0.07915738224983215,-0.3626762628555298,-0.46775269508361816,0.9598120612068972,0.179796244768289,0.024318720095642298,0.21410893513646367,0.3635077154644401,-0.032433855742366756,0.44492185716520255
1781116024912441600,0.7296345233917236,-0.3334323465824127,-2.064748525619507,1.2014474868774414,-0.052235107868909836,-0.3525335490703583,-0.9343401789665222,-0.08230163156986237,-0.3605859577655792,-0.4482128620147705,0.9590276304003224,0.18066424950085405,0.013796078010809296,0.21779833933397008,0.3602770820440512,-0.055847740971087766,0.4568041226281953
1781116024922475520,0.739668607711792,-0.5056602954864502,-2.3569512367248535,1.3324190378189087,-0.07738906145095825,-0.34779807925224304,-0.9343701004981995,-0.08606307953596115,-0.30947425961494446,-0.42173951864242554,0.9580960670715185,0.18114224356561445,0.0015654561753169146,0.22189406444220913,0.35522152959116216,-0.08263623552145251,0.4700145560410048
1781116024932509696,0.7497026920318604,-0.6317346096038818,-2.631352424621582,1.4835973978042603,-0.10569331049919128,-0.34113502502441406,-0.9340534210205078,-0.09189274907112122,-0.23068806529045105,-0.3881663680076599,0.9569648200281979,0.18116375837538395,-0.012368194269794892,0.22637379305541058,0.34812407964944164,-0.11267624784867467,0.4844016354228347
1781116024942543616,0.7597365379333496,-0.794387936592102,-2.8557729721069336,1.647306203842163,-0.13666671514511108,-0.3326602578163147,-0.9330912828445435,-0.07680375874042511,-0.15429344773292542,-0.40107619762420654,0.9555319906554144,0.18078808904900015,-0.027749193179383798,0.23131011091896034,0.3391231051583559,-0.1454325207953918,0.4999530821661926
1781116024952578560,0.7697715759277344,-0.964150071144104,-3.166276693344116,1.7782522439956665,-0.17047500610351562,-0.3217531144618988,-0.9313502311706543,-0.022884368896484375,-0.1070951521396637,-0.3671574592590332,0.9537620209230233,0.1797821982355464,-0.044757790192566,0.2366709485191065,0.3275804951475499,-0.1810366573852266,0.5164632178159544
1781116024962612736,0.7798056602478027,-1.2355650663375854,-3.461236000061035,1.8146342039108276,-0.20708207786083221,-0.30813273787498474,-0.9285317659378052,0.032887741923332214,-0.08526939153671265,-0.3287314176559448,0.951686134892896,0.17804090400674163,-0.06352598368655052,0.24199070269384945,0.31322962947866445,-0.21943000360606607,0.5327836585022593
1781116024972646400,0.789839506149292,-1.5521169900894165,-3.7525830268859863,1.8387731313705444,-0.2461422085762024,-0.29106903076171875,-0.9244959950447083,0.09164698421955109,-0.026695281267166138,-0.30012863874435425,0.949336109525506,0.1751728432244114,-0.08406235475414235,0.2469999188540362,0.2953440507000569,-0.26020845464192294,0.547998827162881
1781116024982681600,0.7998745441436768,-1.9307955503463745,-4.012660503387451,1.7980400323867798,-0.28723832964897156,-0.270126610994339,-0.9189808368682861,0.14949721097946167,0.04338100552558899,-0.24747729301452637,0.9467078021415428,0.17090397891007533,-0.10630810153833162,0.25146547654970836,0.2735245438020072,-0.3029411843684895,0.5612586530801401
1781116024992715520,0.8099086284637451,-2.352191925048828,-4.269198894500732,1.7007712125778198,-0.3297930061817169,-0.24507920444011688,-0.9116867780685425,0.20708182454109192,0.08719652891159058,-0.18635094165802002,0.9438271781012548,0.16499315264898018,-0.13013022761747522,0.2550169819328692,0.24760139079393415,-0.3470945426497681,0.571409789167284
1781116025002749696,0.8199427127838135,-2.8820571899414062,-4.509003639221191,1.5853559970855713,-0.37355464696884155,-0.21550413966178894,-0.9022276997566223,0.24460262060165405,0.08339355885982513,-0.10984194278717041,0.9406776710407743,0.1571114176750822,-0.15557036276210806,0.25736991753491584,0.21720807343654952,-0.3925473979112,0.5774813649398434
1781116025012784384,0.8299775123596191,-3.4157497882843018,-4.724486827850342,1.4701050519943237,-0.4181726574897766,-0.18110910058021545,-0.890129804611206,0.248769611120224,0.08590951561927795,-0.00327223539352417,0.9371875323531778,0.14695701264933844,-0.18258895065257086,0.2583493114936257,0.1821140847175922,-0.4391875555447546,0.578721342166562
1781116025022818560,0.8400115966796875,-3.8240485191345215,-4.8677897453308105,1.3791424036026,-0.4629751741886139,-0.142671599984169,-0.8748136162757874,0.2480398416519165,0.1163044273853302,0.07403236627578735,0.9331754064776736,0.13473820501283448,-0.21080516078584718,0.2580514593926198,0.1431601054900742,-0.48675507127825757,0.575180787853335
1781116025032852736,0.8500456809997559,-4.011906147003174,-4.994983673095703,1.2816059589385986,-0.5074840188026428,-0.10205187648534775,-0.8555965423583984,0.2755351662635803,0.14651599526405334,0.08972740173339844,0.9283957725598085,0.1212550923411833,-0.23978936277116578,0.25667016873607906,0.10222985121213755,-0.5353561940987823,0.5675180332752231
1781116025042887424,0.8600804805755615,-4.078355312347412,-5.0566277503967285,1.107772707939148,-0.5510536432266235,-0.061375901103019714,-0.8322096467018127,0.3291603922843933,0.1797841191291809,0.08849626779556274,0.9227637813995718,0.1073605560013386,-0.269014673946276,0.2541886664612348,0.06141450212004136,-0.5848742214305689,0.5560913180411358
1781116025052921600,0.8701145648956299,-4.081148147583008,-5.100362777709961,0.9419794082641602,-0.5932454466819763,-0.02197183482348919,-0.8047217726707458,0.4042348265647888,0.22904886305332184,0.11674875020980835,0.916293461498936,0.09351069959497137,-0.29815242879416115,0.25053401495019845,0.021973603375873976,-0.6352623442415052,0.5410199728566185
1781116025062955520,0.8801486492156982,-4.032589435577393,-5.114283561706543,0.7608871459960938,-0.6337336897850037,0.015445616096258163,-0.7733970880508423,0.49226945638656616,0.2598534822463989,0.12099230289459229,0.9089816257689478,0.07994542525664375,-0.32697121012374536,0.24586791762928292,-0.015446230072330754,-0.6864681232977511,0.5228115675979954
1781116025072990720,0.890183687210083,-4.020961761474609,-5.083144187927246,0.5134872198104858,-0.6722323298454285,0.05014610290527344,-0.7386400103569031,0.5679843425750732,0.25911903381347656,0.15335863828659058,0.9009510730460846,0.06681462802532924,-0.3552686463845062,0.24001488281254937,-0.0501671437430991,-0.7383643781328031,0.5012956970922
1781116025083024384,0.9002175331115723,-4.072433948516846,-5.036412715911865,0.2591582238674164,-0.7085400223731995,0.08201756328344345,-0.7008880972862244,0.6418591141700745,0.25617823004722595,0.17983102798461914,0.8923470856405572,0.053916863657563464,-0.3829476631638507,0.23272459278030158,-0.08210979883600665,-0.7908271945414898,0.4759471794470162
1781116025093058560,0.9102516174316406,-4.177408218383789,-4.924170970916748,0.024450654163956642,-0.7424889802932739,0.11119065433740616,-0.6605655550956726,0.7017480134963989,0.24784865975379944,0.1926700472831726,0.8832421447927147,0.04100593927524224,-0.40992161329974663,0.2239781932605603,-0.11142105634802801,-0.8437212590955044,0.44665474668630917
1781116025103093504,0.9202866554260254,-4.412945747375488,-4.724387168884277,-0.22202330827713013,-0.77358478307724,0.1379656046628952,-0.6184918284416199,0.74306720495224,0.234837144613266,0.21797913312911987,0.8738487946910178,0.02761434723972837,-0.43588017332559664,0.2136219321179146,-0.13840707806497413,-0.8963518152388465,0.4128885762059096
1781116025113127424,0.9303205013275146,-4.73603630065918,-4.531667232513428,-0.4732278287410736,-0.8018081784248352,0.16257178783416748,-0.575042724609375,0.7727401852607727,0.20385277271270752,0.2923736572265625,0.8642824934945732,0.013286582229442347,-0.46076252617731484,0.2013385457233876,-0.16329656409080975,-0.9486313810295244,0.37377037682796743
1781116025123161600,0.940354585647583,-5.027059555053711,-4.356320858001709,-0.6756384372711182,-0.8274180889129639,0.18497824668884277,-0.5302475690841675,0.7779185771942139,0.15327858924865723,0.355427622795105,0.8544581221523522,-0.0020942191342460397,-0.4846357793782624,0.18715023742089915,-0.18604972774479533,-1.0008832142025088,0.3292937599580924
1781116025133196544,0.9503896236419678,-5.284504413604736,-4.081526756286621,-0.8289827704429626,-0.8504022359848022,0.20487713813781738,-0.4846044182777405,0.7482904195785522,0.10274004936218262,0.3496556878089905,0.8443657742646136,-0.01839195507787534,-0.5073061414534186,0.17131476916362473,-0.2063381868864071,-1.0528386228180318,0.280159933904959
1781116025143230720,0.9604237079620361,-5.469506740570068,-3.7744481563568115,-0.9477434754371643,-0.870512068271637,0.22214427590370178,-0.4391590356826782,0.7147656679153442,0.07877430319786072,0.3329426050186157,0.8341642769112317,-0.035542460335451095,-0.5283533021433419,0.1541087915173015,-0.22401315117023618,-1.1035683013301298,0.2271199196678112
1781116025153264640,0.9704575538635254,-5.536256790161133,-3.4848203659057617,-1.0208698511123657,-0.8879397511482239,0.23650294542312622,-0.3944988548755646,0.6939395070075989,0.06804722547531128,0.31536680459976196,0.8238764666550357,-0.05317430336857184,-0.5476523220777426,0.13593006709919805,-0.23876510813596982,-1.1527046370866565,0.17141443128939604
1781116025163299584,0.9804925918579102,-5.5738205909729,-3.1904685497283936,-1.0690944194793701,-0.9029826521873474,0.24785199761390686,-0.3509867191314697,0.6632671356201172,0.06213027238845825,0.2586863338947296,0.81348881123695,-0.070926361642192,-0.56522215939294,0.11717198059267597,-0.2504624465773569,-1.2000716526985475,0.11426388781674927
1781116025173333760,0.9905266761779785,-5.563188552856445,-2.9001998901367188,-1.0752487182617188,-0.9157818555831909,0.2565058171749115,-0.3091088533401489,0.6159467101097107,0.04667103290557861,0.21546563506126404,0.8030890736074272,-0.08880736379229655,-0.5809981291951444,0.09799115584149742,-0.25940530944879514,-1.245268626182058,0.056102923618388444
1781116025183367424,1.0005605220794678,-5.401351451873779,-2.6061203479766846,-1.0521968603134155,-0.9265604019165039,0.2625825107097626,-0.2693256437778473,0.5607156157493591,-8.553266525268555e-05,0.15387758612632751,0.7927406804420565,-0.10639899450030386,-0.5949928036560453,0.07889918794361492,-0.26569767024859237,-1.287918682345055,-0.001575360982164878
1781116025193402624,1.0105955600738525,-5.391812801361084,-2.2741730213165283,-1.0123651027679443,-0.9354454278945923,0.2664692997932434,-0.23224151134490967,0.5068565011024475,-0.03275042772293091,0.09251677989959717,0.782637407101944,-0.1236980908316949,-0.6071062738239508,0.05999591251358694,-0.2697280153388164,-1.3274480914495714,-0.05843036630972302
1781116025203436544,1.020629644393921,-5.318613052368164,-2.011603593826294,-0.9092450737953186,-0.9426562190055847,0.2689670920372009,-0.1976260542869568,0.47529470920562744,-0.06231731176376343,0.05469697713851929,0.7727354654019366,-0.1411575976739915,-0.6174637664063024,0.04114584445684399,-0.2723204513448766,-1.3641412161456483,-0.11522105188719281
1781116025213470464,1.0306634902954102,-5.043524742126465,-1.7878930568695068,-0.7853670716285706,-0.9483929872512817,0.2704091966152191,-0.16561903059482574,0.46591007709503174,-0.105843186378479,-0.02499377727508545,0.7630684292602323,-0.15818323013867275,-0.6262336224353484,0.02315425992947107,-0.273818051010657,-1.3979084960705868,-0.16989798746362245
1781116025223505408,1.040698528289795,-4.8518452644348145,-1.6147364377975464,-0.7322742938995361,-0.9530089497566223,0.2706921696662903,-0.13601376116275787,0.4300902485847473,-0.10867437720298767,-0.05678105354309082,0.7536377911698795,-0.17447671340693058,-0.6336805153730167,0.006081685455031535,-0.27411198392228275,-1.429033340030972,-0.22199731336588863
1781116025233539584,1.0507326126098633,-4.6831374168396,-1.4951725006103516,-0.6780784726142883,-0.9568240642547607,0.2697758376598358,-0.10820765793323517,0.38156771659851074,-0.08128401637077332,-0.059883177280426025,0.7443088743597869,-0.19017350759776538,-0.6401017164672729,-0.010404451490047616,-0.27316023710483284,-1.4581843387758258,-0.2722712609004436
1781116025243573760,1.0607666969299316,-4.4150190353393555,-1.3782322406768799,-0.609895646572113,-0.9599311351776123,0.2679448127746582,-0.08208540081977844,0.32144230604171753,-0.06617778539657593,-0.05777663737535477,0.7350944789460344,-0.2051382165811944,-0.6456590527867291,-0.026056430575880838,-0.27125919488482814,-1.4854920880516336,-0.32015567241474563
1781116025253607424,1.070800542831421,-4.034918308258057,-1.256654143333435,-0.5608764886856079,-0.9624255299568176,0.2652691900730133,-0.058046307414770126,0.23146849870681763,-0.0896710455417633,-0.08515745401382446,0.7262081623874995,-0.21896359825209405,-0.6504089393891826,-0.04055687734385584,-0.2684831074387593,-1.5105567786147798,-0.3645291264279652
1781116025263642624,1.0808355808258057,-3.5620250701904297,-1.1344345808029175,-0.4602696895599365,-0.9643535017967224,0.26210495829582214,-0.03638141602277756,0.14527690410614014,-0.12019822001457214,-0.14915019273757935,0.7178632395726795,-0.2313404650067037,-0.6544393639674178,-0.05350890491204651,-0.2652027796816361,-1.533087984546367,-0.40429787521810123
1781116025273676544,1.090869665145874,-3.008765935897827,-1.0509519577026367,-0.3292296528816223,-0.9656844139099121,0.25913795828819275,-0.0173589326441288,0.08784615993499756,-0.13384801149368286,-0.2273768186569214,0.7102955914775348,-0.24214392742411744,-0.6577893678292149,-0.06449600334902991,-0.2621295650925942,-1.5528224810196312,-0.43861844518522025
1781116025283711744,1.1009047031402588,-2.688591718673706,-0.7726041674613953,-0.24805277585983276,-0.9664924144744873,0.2566925287246704,-0.0010751854861155152,0.07005393505096436,-0.1245972216129303,-0.282478928565979,0.7036365335088256,-0.2515878167890517,-0.6604286317925706,-0.07370987268274996,-0.2595985126443531,-1.5696838658816985,-0.46806295902478057
1781116025293745408,1.110938549041748,-2.3327879905700684,-0.5289198160171509,-0.22621165215969086,-0.9670616388320923,0.2542751729488373,0.01165331806987524,0.04512566328048706,-0.09215059876441956,-0.2809251546859741,0.6981620065046902,-0.25996635509122457,-0.6620001158700364,-0.0821163645341461,-0.2570981746588245,-1.5828459768577148,-0.4943401076476117
1781116025303779584,1.1209726333618164,-2.018921375274658,-0.4288809597492218,-0.21253766119480133,-0.9675460457801819,0.25176185369491577,0.021695148199796677,0.061097681522369385,-0.06207984685897827,-0.3317995071411133,0.6936554650555392,-0.2669376423966216,-0.6630172463565233,-0.08941219180907169,-0.2545003234908751,-1.5932154284920785,-0.5165930008079906
1781116025313813504,1.1310064792633057,-1.8876680135726929,-0.46195366978645325,-0.21812443435192108,-0.9679610133171082,0.24919523298740387,0.03087451495230198,0.09940022230148315,-0.01884855329990387,-0.25423264503479004,0.6894448042363934,-0.27322995566764813,-0.6639146396578269,-0.09606559255344863,-0.2518491917255048,-1.6026819617187402,-0.536812651387592
1781116025323848448,1.1410415172576904,-1.5674985647201538,-0.5674484372138977,-0.2521923780441284,-0.9683632850646973,0.24629250168800354,0.04015812650322914,0.10427331924438477,-0.040970250964164734,-0.23917853832244873,0.6852195162797876,-0.2786872295992399,-0.6651409566367383,-0.1019568487308471,-0.2488530529414336,-1.6122426850223348,-0.5546930354560301
1781116025333882624,1.1510756015777588,-1.3126723766326904,-0.6479904055595398,-0.2714419960975647,-0.9687298536300659,0.2431131899356842,0.04958522692322731,0.06586718559265137,-0.07667028903961182,-0.2300509214401245,0.681036071288899,-0.2830226363412001,-0.666851408704093,-0.10675845557155328,-0.24557405368780844,-1.621937511159607,-0.5693129799763377
1781116025343916544,1.1611096858978271,-1.2514822483062744,-0.7019643187522888,-0.24935345351696014,-0.9690001010894775,0.23984380066394806,0.05927709862589836,-0.006448507308959961,-0.11472173035144806,-0.11291170120239258,0.6767921480548963,-0.28685620684609126,-0.6688438277158821,-0.11096779563057146,-0.24220495817387808,-1.6318936598053675,-0.5823419777504881
1781116025353951488,1.1711444854736328,-1.2212812900543213,-0.6567395925521851,-0.1684306412935257,-0.9690619707107544,0.23701006174087524,0.06888359785079956,-0.10128098726272583,-0.19452962279319763,-0.05353332310914993,0.6725864620452675,-0.29071087990717465,-0.6707674586628013,-0.11482842189688565,-0.2392870667253669,-1.6417597264580954,-0.5949062894266518
1781116025363985664,1.1811785697937012,-1.2919234037399292,-0.5348830223083496,-0.07384102791547775,-0.9689066410064697,0.23491625487804413,0.07767990976572037,-0.1991536021232605,-0.2732005715370178,-0.02776838093996048,0.6686586301202655,-0.2948530139437872,-0.6722363086409114,-0.11855635256062895,-0.23713241133683838,-1.6507979628259435,-0.6076587201670115
1781116025374019584,1.1912126541137695,-1.459648847579956,-0.3440678119659424,0.043608635663986206,-0.9685845375061035,0.23363251984119415,0.08520523458719254,-0.269162654876709,-0.31464141607284546,0.0878598690032959,0.6651076897230032,-0.2996660641034797,-0.6729062839006401,-0.12259350554268517,-0.23581193455824495,-1.6585392755449646,-0.6217893758784435
1781116025384054784,1.2012476921081543,-1.5456750392913818,-0.1545679271221161,0.1579218953847885,-0.9681249260902405,0.2333046793937683,0.09112121164798737,-0.3187403082847595,-0.3251778483390808,0.14883852005004883,0.6620563704204784,-0.3051906329033225,-0.6726212035079727,-0.12696754820815923,-0.235474765229768,-1.6646411969290826,-0.6373866149968047
1781116025394088448,1.2112815380096436,-1.5434765815734863,0.006827099714428186,0.23287923634052277,-0.967601478099823,0.23374886810779572,0.09544125199317932,-0.3716471791267395,-0.287139356136322,0.14247381687164307,0.6595471029998827,-0.3110379295686791,-0.6715474915201128,-0.1314422751784433,-0.23593159144973655,-1.6691152394454196,-0.6535152731731954
1781116025404122624,1.221315622329712,-1.4524697065353394,0.19458220899105072,0.3551398813724518,-0.9670066237449646,0.23512795567512512,0.09804736077785492,-0.41424959897994995,-0.22089147567749023,0.11530102789402008,0.6576988224859538,-0.3169184658908683,-0.6697659031150486,-0.13567863102798158,-0.23735021895820987,-1.6718436439102338,-0.6692355274438024
1781116025414157568,1.2313506603240967,-1.2613288164138794,0.4319479167461395,0.46676257252693176,-0.9663301706314087,0.2378089278936386,0.09824986755847931,-0.4298490285873413,-0.16331550478935242,0.04576265811920166,0.656843828267468,-0.3226016236452786,-0.6671230210082719,-0.1393962105932018,-0.2401094404874364,-1.6721213219388291,-0.6837113349913756
1781116025424191488,1.241384506225586,-1.05775785446167,0.7071371078491211,0.560110867023468,-0.9656494855880737,0.24164581298828125,0.09554146975278854,-0.4048032760620117,-0.13188937306404114,-0.033957019448280334,0.6572167613076552,-0.32768956961988766,-0.6636190794111397,-0.14246150446703687,-0.24406156822671768,-1.6694154828922005,-0.6960349233196204
1781116025434225664,1.2514185905456543,-1.0254722833633423,0.9828712344169617,0.6803321242332458,-0.9649283289909363,0.24667392671108246,0.08980666846036911,-0.31278157234191895,-0.12844884395599365,-0.041985638439655304,0.6587796138370781,-0.3325533204469283,-0.6590232345221052,-0.14527922723501485,-0.24924661349249275,-1.6635998017995863,-0.7073409597916751
1781116025444260608,1.261453628540039,-0.9056434035301208,1.0820374488830566,0.7866625189781189,-0.9639886021614075,0.25294291973114014,0.08213268965482712,-0.16105711460113525,-0.16714277863502502,-0.04659498482942581,0.6611226786383447,-0.33743671970780775,-0.653607529958162,-0.14781898934171372,-0.2557208953497519,-1.6557919434943207,-0.7180947723852914
1781116025454294784,1.2714877128601074,-0.7669856548309326,0.9999983906745911,0.8233723640441895,-0.9627274870872498,0.2601296603679657,0.07408411055803299,-0.002726614475250244,-0.1896645426750183,-0.06154143810272217,0.663752719973743,-0.3420596507243562,-0.6481028094387207,-0.14963397555165137,-0.2631564701259429,-1.6475972871655953,-0.7273732331903299
1781116025464328448,1.2815215587615967,-0.6952598094940186,0.7548589706420898,0.8424395322799683,-0.9611539840698242,0.26763734221458435,0.06747656315565109,0.10928642749786377,-0.15151798725128174,-0.020250685513019562,0.6659857578758758,-0.34651533358313935,-0.6431682569008556,-0.1507468834163752,-0.2709400729280396,-1.6408850305575948,-0.7355624830521524
1781116025474363648,1.2915565967559814,-0.5736616849899292,0.5230997800827026,0.877501904964447,-0.9592248797416687,0.2755095660686493,0.06310281157493591,0.16300612688064575,-0.09222105145454407,0.027274951338768005,0.6675633527259042,-0.35092893379616935,-0.6390620387400661,-0.15102212562186476,-0.27911975382750986,-1.6364868860705946,-0.7427822388036848
1781116025484397568,1.3015906810760498,-0.47361287474632263,0.3751702308654785,0.9012035131454468,-0.9570000767707825,0.2837573289871216,0.06027301400899887,0.16152888536453247,-0.048558324575424194,0.023055195808410645,0.6687411226199974,-0.35519284933134376,-0.6355899203487835,-0.15049546904784925,-0.28771023410229957,-1.6336944518788923,-0.7488293714229298
1781116025494431488,1.311624526977539,-0.33177903294563293,0.26096561551094055,0.9107812643051147,-0.9545668959617615,0.29221850633621216,0.058398474007844925,0.13295739889144897,-0.035291045904159546,0.01600336655974388,0.6697046158616478,-0.3592135745620049,-0.6325858403588052,-0.1493200316486422,-0.2965457744840243,-1.6318981549866955,-0.75369505992231
1781116025504466432,1.3216595649719238,-0.2507678270339966,0.14951886236667633,0.9277264475822449,-0.951956570148468,0.3008328378200531,0.057256802916526794,0.09380227327346802,-0.0563717782497406,0.03035914897918701,0.6705360411185254,-0.3629009617404004,-0.6300248353035125,-0.14748903703010438,-0.30556582323558346,-1.6308704006572625,-0.7571946722221379
1781116025514500608,1.3316936492919922,-0.2692837119102478,0.01576027274131775,0.965303361415863,-0.9491097927093506,0.3096988797187805,0.057248298078775406,0.043744683265686035,-0.10451391339302063,0.046496160328388214,0.6710189213351719,-0.3667042049852536,-0.6278153985354177,-0.14529115193929687,-0.31487632092288065,-1.6310412236249598,-0.7605528089626781
1781116025524534528,1.3417274951934814,-0.20803847908973694,-0.10347437858581543,0.9745882153511047,-0.9460189938545227,0.318807452917099,0.05839355289936066,-0.02215111255645752,-0.1666926145553589,0.008317943662405014,0.6711514112599499,-0.37059080360609864,-0.6259866077096917,-0.1426848754514176,-0.32447100569886345,-1.6324436744166282,-0.7636787017730698
1781116025534569472,1.3517625331878662,-0.31293824315071106,-0.25614112615585327,0.962616503238678,-0.9427699446678162,0.327833890914917,0.06090807542204857,-0.08776289224624634,-0.1562793254852295,-0.009135007858276367,0.6708081495877601,-0.3745902786693412,-0.6246088068764579,-0.1398655655166761,-0.33400984404920353,-1.6353121187463526,-0.7669482134901233
1781116025544603648,1.3617966175079346,-0.43545910716056824,-0.38588184118270874,0.9720731377601624,-0.9393460154533386,0.33670860528945923,0.06524035334587097,-0.1408083438873291,-0.096474289894104,0.019110195338726044,0.6697440621798065,-0.3791167104182528,-0.6236110123522874,-0.13719587290860166,-0.343419214585724,-1.6401379210287406,-0.7716697538205203
1781116025554637824,1.371830940246582,-0.464654803276062,-0.4771856367588043,0.9975547790527344,-0.9356698989868164,0.3456883132457733,0.07086218148469925,-0.1882772445678711,-0.058060139417648315,0.03370630741119385,0.6681967619711298,-0.38401912407766076,-0.6228646749531823,-0.13446930659967782,-0.3529722173140215,-1.646386197285865,-0.7772544289212049
1781116025564673024,1.3818659782409668,-0.47460463643074036,-0.5019603371620178,0.9776703119277954,-0.9318215250968933,0.35461899638175964,0.07716338336467743,-0.2434714436531067,-0.026356637477874756,0.026932120323181152,0.6663958844443237,-0.3890202771833915,-0.6222900567067502,-0.1316621018340216,-0.36250654289672685,-1.6534170035103908,-0.7831206511871017
1781116025574706944,1.3919000625610352,-0.5327742099761963,-0.45292598009109497,0.9207545518875122,-0.9280008673667908,0.3631102740764618,0.08345909416675568,-0.26966148614883423,0.019274979829788208,0.04012179374694824,0.6645368856426435,-0.39396496915237317,-0.6217082523458122,-0.12907842824968263,-0.3716038282999632,-1.6604893130007674,-0.7893115223841689
1781116025584740864,1.4019339084625244,-0.5968210697174072,-0.35313066840171814,0.8164374828338623,-0.924443781375885,0.3707049489021301,0.08934129029512405,-0.2514292001724243,0.06600162386894226,0.07560623437166214,0.6626873018739569,-0.39886853742036804,-0.6209464817165941,-0.12718108100855569,-0.37976792560697603,-1.6671404115285242,-0.7964051685355494
1781116025594775808,1.4119689464569092,-0.4210551381111145,-0.267956405878067,0.6933626532554626,-0.9213322997093201,0.3772111237049103,0.09411907941102982,-0.19303226470947266,0.08667126297950745,0.07186602801084518,0.6611732187222448,-0.403117349354633,-0.62012574650107,-0.1256597292945579,-0.3867831116625666,-1.6725985881147203,-0.8027463615280089
1781116025604809984,1.4220030307769775,-0.253875732421875,-0.30084750056266785,0.5667778253555298,-0.9186577200889587,0.3827166259288788,0.09795830398797989,-0.10815191268920898,0.11951106786727905,0.05957340449094772,0.6600230805540102,-0.4063763369878054,-0.6195461449858459,-0.1240576551706539,-0.39273502518801845,-1.6770269107956395,-0.8071088103199399
1781116025614843904,1.4320368766784668,-0.06584670394659042,-0.3977847099304199,0.4067958891391754,-0.9164227247238159,0.3870580494403839,0.10176101326942444,-0.026005804538726807,0.1548730731010437,0.11080919951200485,0.6589243532685423,-0.4086315182391292,-0.6195972799608743,-0.12222170021631724,-0.39743880598800013,-1.6813848467660106,-0.8093880345714242
1781116025624878848,1.4420719146728516,0.08724191039800644,-0.506911039352417,0.2687128484249115,-0.914654552936554,0.39012855291366577,0.10586212575435638,0.036969006061553955,0.17166954278945923,0.14689970016479492,0.657746663404503,-0.40990335907915487,-0.6204113945132217,-0.12015944939450905,-0.4007712018528136,-1.6860236378087705,-0.8096715234342935
1781116025634913024,1.45210599899292,0.24353617429733276,-0.6092118620872498,0.19835934042930603,-0.9131441116333008,0.3924248218536377,0.11032114923000336,0.05827045440673828,0.17411872744560242,0.11811816692352295,0.6564907283619099,-0.4103997688433942,-0.621878288549368,-0.11772598785904015,-0.4032664016009863,-1.6910282257634943,-0.8081437159488467
1781116025644946944,1.4621400833129883,0.261781245470047,-0.6918554902076721,0.13430418074131012,-0.9117468595504761,0.39425626397132874,0.11523853987455368,0.03462576866149902,0.16523781418800354,0.08358348906040192,0.6551006152781852,-0.4104207192971086,-0.6238382015677048,-0.11499572951030178,-0.4052584326707293,-1.6965227829118417,-0.8054648352692755
1781116025654981888,1.472174882888794,0.1415211260318756,-0.7042945623397827,0.08484902232885361,-0.9104897379875183,0.395477294921875,0.12085562199354172,-0.014726877212524414,0.14071649312973022,0.07679151743650436,0.6533802612778938,-0.410476631543779,-0.626048516753022,-0.11254508853446234,-0.4065874430842865,-1.7027618353915261,-0.8033686437199754
1781116025665015808,1.4822089672088623,-0.027359500527381897,-0.6244138479232788,0.08003189414739609,-0.9093428254127502,0.39628106355667114,0.126715749502182,-0.06988990306854248,0.07385742664337158,0.06452260911464691,0.651446502290456,-0.41090978078567686,-0.6281011249358966,-0.11072293914556879,-0.40746274020784146,-1.7092534309871203,-0.8028499353350715
1781116025675049984,1.4922430515289307,-0.2146337926387787,-0.5213907957077026,0.08321969956159592,-0.9082698822021484,0.3968740403652191,0.13242697715759277,-0.11049842834472656,-0.0003438591957092285,0.07272744178771973,0.6494322122938957,-0.41188418414222716,-0.6297339983673378,-0.10965555919678639,-0.4081086791580016,-1.7155775148168646,-0.8042954382543529
1781116025685085184,1.5022780895233154,-0.36289408802986145,-0.3954295217990875,0.09937523305416107,-0.9072810411453247,0.39730411767959595,0.13780692219734192,-0.1318272352218628,-0.02418091893196106,0.09226512908935547,0.6474138877637885,-0.41337413949194557,-0.6308924515672871,-0.10932465385079099,-0.4085772809382197,-1.721534183920683,-0.8075958902223622
1781116025695118848,1.5123119354248047,-0.4242700934410095,-0.2361178994178772,0.09288084506988525,-0.9064526557922363,0.39762455224990845,0.14226177334785461,-0.12865781784057617,0.027531087398529053,0.06588338315486908,0.6456392289455106,-0.4151593204209086,-0.6314852530414358,-0.1096317987934944,-0.40892648839962453,-1.7264698875012066,-0.8121057915348466
1781116025705153024,1.522346019744873,-0.29121723771095276,-0.1544898897409439,0.05607036501169205,-0.9058829545974731,0.3977651000022888,0.145462304353714,-0.1007242202758789,0.11897388100624084,0.03721596300601959,0.6443076322428132,-0.41669414018964057,-0.6317413627525588,-0.11016638766610945,-0.4090796661181335,-1.7300123568797376,-0.8162227021440484
1781116025715187968,1.5323810577392578,-0.045460738241672516,-0.08706823736429214,0.02473534643650055,-0.9055420756340027,0.3978942334651947,0.14722053706645966,-0.055761635303497314,0.19051522016525269,0.022365689277648926,0.6435976380999826,-0.41744523954641566,-0.6319412491839924,-0.11032617232004338,-0.4092204028103605,-1.7319634959545995,-0.8181436560740484
1781116025725221888,1.542414903640747,0.1619046926498413,-0.07391674816608429,-0.03056119941174984,-0.9054356217384338,0.39797112345695496,0.14766529202461243,-0.02147465944290161,0.21297547221183777,0.013681158423423767,0.6434858892640477,-0.4172757339974943,-0.6322290774024207,-0.10996882515707704,-0.409304218420235,-1.732460624328569,-0.8174515562664882
1781116025735256064,1.5524489879608154,0.2815501391887665,-0.1086140051484108,-0.08707400411367416,-0.9055457711219788,0.3977571129798889,0.14756712317466736,-0.0016655325889587402,0.1766447126865387,0.024857163429260254,0.6436451030323963,-0.41639984468778624,-0.6327675169979119,-0.1092583990992283,-0.40907095553156453,-1.732335698201281,-0.8148956925598186
1781116025745291008,1.5624840259552002,0.33353424072265625,-0.1261027306318283,-0.1009562686085701,-0.905759871006012,0.3973299562931061,0.14740312099456787,-0.0015428662300109863,0.09911465644836426,0.03966960310935974,0.6438641771535176,-0.4151496532308575,-0.6335237392974167,-0.10833849481130112,-0.4086054424883982,-1.7321217964745566,-0.8113666186310705
1781116025755324928,1.5725178718566895,0.31218767166137695,-0.08334913104772568,-0.07128305733203888,-0.905940592288971,0.3970367908477783,0.14708374440670013,-0.025318682193756104,0.023968547582626343,0.058513179421424866,0.6441559642200235,-0.4138680308501503,-0.634235859768034,-0.10733729410740084,-0.40828600083894845,-1.731746704541875,-0.8076500620616521
1781116025765358848,1.5825519561767578,0.18329733610153198,0.031627122312784195,-0.058565404266119,-0.9061439633369446,0.3968498706817627,0.14633217453956604,-0.056136250495910645,-0.0004571378231048584,0.060302361845970154,0.644557221572159,-0.4128732179264878,-0.6345878932027336,-0.10667627327085144,-0.40808235653652997,-1.7309029685932928,-0.8048240696470579
1781116025775394048,1.5925869941711426,0.08676441013813019,0.1437387466430664,-0.056467629969120026,-0.9065053462982178,0.3965150713920593,0.14499588310718536,-0.06514376401901245,0.012313663959503174,0.048577070236206055,0.6450812366092173,-0.41222585747644885,-0.6344822977187065,-0.10664069755854198,-0.40771760782469774,-1.7294032191637896,-0.8033370849378577
1781116025785427968,1.602621078491211,0.08757320791482925,0.20547454059123993,-0.04399178549647331,-0.9069573283195496,0.39618295431137085,0.1430647373199463,-0.04923468828201294,0.02416616678237915,0.04239058494567871,0.64578684787838,-0.4117007379748103,-0.634062199514385,-0.10689714822408039,-0.40735588212842844,-1.727248617257992,-0.8023434863370444
1781116025795461888,1.6126549243927002,0.06855371594429016,0.22865070402622223,-0.046721525490283966,-0.9074417352676392,0.3959014117717743,0.1407533437013626,-0.02921903133392334,0.01584172248840332,0.04465615749359131,0.6466264341139423,-0.4111767371773822,-0.6334906193751931,-0.10722659391258804,-0.40704926046168377,-1.724680111612944,-0.8013783735794677
1781116025805496832,1.622689962387085,0.0027925423346459866,0.23191681504249573,-0.0477612242102623,-0.9079552292823792,0.3955143392086029,0.13851217925548553,-0.0166662335395813,-0.020499110221862793,0.05690716207027435,0.6474059595900555,-0.4107867760438572,-0.6328588420747684,-0.10774698270522653,-0.4066277998577372,-1.722183105845727,-0.8009215878396655
1781116025815531008,1.6327240467071533,-0.017596084624528885,0.2397739291191101,-0.032036591321229935,-0.9084457755088806,0.3951217234134674,0.13640055060386658,-0.025178492069244385,-0.07297822833061218,0.05894242227077484,0.6481122088465738,-0.41055788702368706,-0.6321728347826392,-0.10839870592896031,-0.4062003530475281,-1.7198301861631373,-0.8009570024949945
1781116025825564928,1.6427578926086426,-0.04350864142179489,0.2668035328388214,-0.009147520177066326,-0.9088674783706665,0.3948937654495239,0.1342335343360901,-0.04210597276687622,-0.1033746600151062,0.06411539018154144,0.6488344035912172,-0.4104505870050105,-0.6313850491161879,-0.10907380910122183,-0.4059522305826353,-1.7174294533990335,-0.8012383938936792
1781116025835599872,1.6527929306030273,-0.08165576308965683,0.3394375443458557,0.018528582528233528,-0.9092524647712708,0.3948513865470886,0.13172802329063416,-0.05105936527252197,-0.1040647029876709,0.08499251306056976,0.6496635974456102,-0.4105020487523703,-0.6303586922958745,-0.10987798679504135,-0.40590608930633676,-1.7146704006375273,-0.801919123290424
1781116025845634048,1.6628270149230957,-0.10435228794813156,0.43053242564201355,0.04368719831109047,-0.9096329808235168,0.39501526951789856,0.12857213616371155,-0.047489821910858154,-0.09063294529914856,0.07940518856048584,0.6507075723693202,-0.4107010813984565,-0.6289759052798063,-0.11087654669186858,-0.40608445604360294,-1.7112112316543318,-0.8030072352945578
1781116025855667712,1.672860860824585,-0.05408911406993866,0.4804496765136719,0.0760912150144577,-0.9099758863449097,0.39546704292297363,0.12469952553510666,-0.03223919868469238,-0.07767221331596375,0.03542615473270416,0.6520221642292431,-0.41090187297021497,-0.6273032876041907,-0.11188145288078098,-0.4065762991350919,-1.7069841475740903,-0.803979322045805
1781116025865702912,1.6828958988189697,0.015957079827785492,0.4881782829761505,0.10826379805803299,-0.9102031588554382,0.39629656076431274,0.12033093720674515,0.0018778443336486816,-0.04775521159172058,0.002822771668434143,0.653564852738622,-0.410984231987214,-0.6255057382035858,-0.11263937255179737,-0.4074795970714798,-1.70223640236178,-0.8043234992493793
1781116025875736832,1.692929983139038,0.02131269872188568,0.4619291126728058,0.12077932059764862,-0.9103129506111145,0.39737799763679504,0.11584934592247009,0.0444071888923645,-0.006386786699295044,-0.02124488353729248,0.6551865118738285,-0.4109828680774055,-0.623712878913172,-0.11316335048229641,-0.40865777338799386,-1.6973790896405268,-0.8041874406942447
1781116025885771008,1.7029640674591064,0.02280140481889248,0.35021841526031494,0.13704697787761688,-0.9102711081504822,0.3985635042190552,0.11204323172569275,0.08144420385360718,0.0020254850387573242,-0.025113940238952637,0.6565711088710046,-0.4111047491033132,-0.6221048947648624,-0.11354637248134704,-0.40995002432546684,-1.6932680573395418,-0.8042136582247136
1781116025895805952,1.712998867034912,0.11658861488103867,0.2233845740556717,0.16713696718215942,-0.9099782705307007,0.40003377199172974,0.10914430022239685,0.09575408697128296,-0.04572474956512451,-0.031095631420612335,0.6576969046114248,-0.41118308727681424,-0.6208869621000088,-0.11341348531388305,-0.411553701996955,-1.6901677367314827,-0.803644399456154
1781116025905839872,1.7230329513549805,0.08664323389530182,0.14015240967273712,0.1849849373102188,-0.9094591736793518,0.4017709791660309,0.10706950724124908,0.07475775480270386,-0.07981058955192566,-0.013624683022499084,0.6585820407947155,-0.41126452579161926,-0.6199969693890692,-0.11284884404203091,-0.41344995901607917,-1.6879856581068235,-0.802659103029814
1781116025915874048,1.7330670356750488,0.011570854112505913,0.11402279883623123,0.2109992355108261,-0.9087921977043152,0.4036268889904022,0.10574385523796082,0.04323756694793701,-0.082795649766922,0.029738880693912506,0.6591771915820589,-0.4116577982173504,-0.6192009256625853,-0.11230925215428247,-0.41547752667717425,-1.686631916339415,-0.8024113037122453
1781116025925908992,1.7431020736694336,0.0019043782958760858,0.13483260571956635,0.23797652125358582,-0.9080122709274292,0.4056728184223175,0.10461059957742691,0.007667422294616699,-0.077654629945755,0.054813265800476074,0.6596920254155151,-0.4122706478813922,-0.6183350337327321,-0.11180873072626457,-0.4177148082396464,-1.6854989830821328,-0.8026492804944448
1781116025935942912,1.7531359195709229,-0.014027450233697891,0.16776606440544128,0.24005432426929474,-0.9071854948997498,0.40787237882614136,0.10322120785713196,-0.026652395725250244,-0.051366060972213745,0.01460719108581543,0.6602983725129693,-0.41294334513026143,-0.6173235750873548,-0.11133484987395383,-0.4201225864718175,-1.6840908981577718,-0.8029815594572758
1781116025945977088,1.7631700038909912,-0.00586752500385046,0.15444745123386383,0.22006756067276,-0.9064099192619324,0.4099462032318115,0.10180896520614624,-0.05013298988342285,-0.010608494281768799,-0.009493239223957062,0.6608973434489386,-0.41360875016544535,-0.6163053507230783,-0.11095119769568747,-0.42239509350379395,-1.68264863129931,-0.8034142447396988
1781116025956012032,1.773205041885376,0.04219614341855049,0.1664804071187973,0.2027522176504135,-0.9056907296180725,0.41190558671951294,0.10029033571481705,-0.04319232702255249,0.01904839277267456,0.0044765472412109375,0.66154378235804,-0.4141230894966586,-0.6153431853656656,-0.110520055542301,-0.42454430585040764,-1.681080563053221,-0.8034864834745369
1781116025966045952,1.7832388877868652,0.05359713360667229,0.18107613921165466,0.1719498336315155,-0.9050821661949158,0.41367942094802856,0.09846574068069458,-0.026726245880126953,0.03950658440589905,0.012541882693767548,0.6623046804251943,-0.41442842965454907,-0.6143955953493809,-0.11008897529884784,-0.426491804684232,-1.6791621869844406,-0.803116632778551
1781116025976079872,1.7932729721069336,0.0017392622539773583,0.1588565856218338,0.15059074759483337,-0.9045860171318054,0.41515713930130005,0.09679076075553894,-0.00958317518234253,0.036716610193252563,0.026103481650352478,0.6629795613227645,-0.41473387517036203,-0.6135072886559952,-0.10983001674116097,-0.42811551805049847,-1.6773908208237758,-0.8030025304791614
1781116025986115072,1.8033080101013184,-0.029400013387203217,0.1634458750486374,0.1634197235107422,-0.9040889739990234,0.4165603518486023,0.09539628028869629,0.011907696723937988,-0.005961626768112183,0.03389142453670502,0.6635291327465518,-0.41517116628103556,-0.6126426699799811,-0.1096854553363531,-0.4296584791594283,-1.675923792126448,-0.8033338003520644
1781116025996148736,1.8133418560028076,-0.10649745911359787,0.1765901744365692,0.1784825623035431,-0.9035314917564392,0.4180581569671631,0.0941176488995552,0.028836727142333984,-0.03884679079055786,0.025755397975444794,0.6640137286916566,-0.41582016563832025,-0.6116799941369911,-0.10966717731412082,-0.43130666566357556,-1.6745884359861967,-0.8042405418246258
1781116026006182912,1.823375940322876,-0.19390907883644104,0.16427545249462128,0.17899203300476074,-0.9029402732849121,0.41953930258750916,0.0931958258152008,0.04945528507232666,-0.02085772156715393,0.002568356692790985,0.6643227448946567,-0.4167821125521781,-0.6106476762553745,-0.109896733853886,-0.43293773888499376,-1.6736458616449486,-0.8061181875126551
1781116026016217856,1.8334109783172607,-0.20958682894706726,0.12248458713293076,0.16552016139030457,-0.9023441076278687,0.42091864347457886,0.0927484929561615,0.07115226984024048,0.027292907238006592,-0.005910769104957581,0.6644310368569286,-0.41792480834315093,-0.6096827865197431,-0.1102587898733074,-0.4344578225602044,-1.6732227926462262,-0.8085974898188361
1781116026026252032,1.843445062637329,-0.1779487431049347,0.06345082819461823,0.15032310783863068,-0.9017664790153503,0.4221630096435547,0.09271273016929626,0.08636730909347534,0.0685749351978302,-0.015579581260681152,0.6643989689560125,-0.41900747002938776,-0.6089245483025089,-0.1105336090079292,-0.43583005296017696,-1.6732486996439184,-0.8109346757423231
1781116026036285952,1.8534789085388184,-0.11107490211725235,-0.01948186755180359,0.11822614818811417,-0.9012134671211243,0.4232489764690399,0.09313850849866867,0.08082467317581177,0.07704094052314758,-0.025420069694519043,0.6642318272305853,-0.4198958062086273,-0.6084872759910435,-0.11057531025161625,-0.43702834501473287,-1.6737786090308426,-0.8126993473554335
1781116026046320896,1.8635139465332031,-0.04927412047982216,-0.0855901837348938,0.08996069431304932,-0.90071702003479,0.4241207242012024,0.09397020936012268,0.056387245655059814,0.05808749794960022,-0.01975143700838089,0.6639581886372571,-0.42049545834864177,-0.6084148865868304,-0.11033759505931236,-0.43799075078299204,-1.6747484918246978,-0.813645509041071
1781116026056355072,1.8735480308532715,-0.016091931611299515,-0.10770507156848907,0.06483030319213867,-0.9002865552902222,0.4248022139072418,0.09501000493764877,0.024310171604156494,0.04370352625846863,-0.015527024865150452,0.6636285842750927,-0.4208992882971787,-0.6085628907001619,-0.10996346697092226,-0.4387434097547793,-1.6759402146417948,-0.8140941624232568
1781116026066388736,1.8835818767547607,0.03133470565080643,-0.11555566638708115,0.0424826517701149,-0.8999472260475159,0.42529720067977905,0.09600646793842316,-0.008332133293151855,0.04339176416397095,-0.01875126361846924,0.6633261065743149,-0.4211042132153238,-0.6088304175007583,-0.10952280427471109,-0.43929024644106646,-1.6770744814995087,-0.814082195024138
1781116026076423936,1.8936169147491455,0.06959154456853867,-0.10334774106740952,0.01782311126589775,-0.8997102379798889,0.4256238043308258,0.09677750617265701,-0.02755105495452881,0.062321752309799194,-0.02126169204711914,0.6631165025811117,-0.4210862101993027,-0.6091593852102051,-0.10903109854399633,-0.43965112738118606,-1.6779495207293376,-0.8135491075200405
1781116026086457856,1.9036509990692139,0.08125565946102142,-0.09724470973014832,-0.010183489881455898,-0.899597704410553,0.425730437040329,0.09735269099473953,-0.03602546453475952,0.06725049018859863,-0.02475130558013916,0.6629747610241377,-0.4208961018533403,-0.6095267142718903,-0.10857320465284093,-0.4397689907553861,-1.6785948412569331,-0.8127064694505948
1781116026096492032,1.9136850833892822,0.07446859031915665,-0.09234368801116943,-0.029266636818647385,-0.899591326713562,0.42563050985336304,0.0978463739156723,-0.03829002380371094,0.039518386125564575,-0.02556551992893219,0.6628511631589243,-0.4206117284334639,-0.60992537303696,-0.10818983470075326,-0.4396585317621542,-1.6791380088617143,-0.8117738981434434
1781116026106526976,1.923719882965088,-0.020148990675807,-0.09001262485980988,-0.0455007329583168,-0.899660587310791,0.42532849311828613,0.0985214114189148,-0.03396362066268921,0.007883727550506592,-0.011805661022663116,0.6626233101123846,-0.4204418188789905,-0.6103190818842873,-0.10802595541682805,-0.4393248175833569,-1.6798712265446758,-0.811379477221114
1781116026116560896,1.9337539672851562,-0.10131601244211197,-0.08503863960504532,-0.060675159096717834,-0.8998043537139893,0.4247796833515167,0.0995703637599945,-0.028555572032928467,-0.004690021276473999,-0.0050269439816474915,0.6621976301506673,-0.42052667292807955,-0.6106901838898552,-0.10820858220955998,-0.4387185200388653,-1.681005736313896,-0.8119872287334822
1781116026126595072,1.9437880516052246,-0.15165376663208008,-0.08362024277448654,-0.07169637829065323,-0.8999952077865601,0.42406436800956726,0.10088665038347244,-0.02093374729156494,0.008110344409942627,-0.00913548469543457,0.6616297767107898,-0.4208028938053856,-0.6110386650066664,-0.10864049182427805,-0.43792850849808773,-1.68242718439138,-0.8133297354999857
1781116026136630016,1.9538230895996094,-0.1652076542377472,-0.0790015235543251,-0.08925007283687592,-0.9002647399902344,0.42315179109573364,0.10230511426925659,-0.014469325542449951,0.03557324409484863,-0.011393174529075623,0.6609951714708318,-0.42112793312118413,-0.6113949791905963,-0.10923812589655711,-0.4369210631490824,-1.6839498363757106,-0.8150008366966026
1781116026146663936,1.9638569355010986,-0.1419619917869568,-0.06953451782464981,-0.10125081241130829,-0.9005858302116394,0.4221437871456146,0.10363303869962692,-0.005435287952423096,0.056036144495010376,-0.01484215259552002,0.6603882494570336,-0.4213942048785644,-0.6117543964894184,-0.10986743214688748,-0.43580885884637605,-1.6853653146911245,-0.8165864493610043
1781116026156698880,1.9738919734954834,-0.08970782905817032,-0.07388798892498016,-0.12442696839570999,-0.9009929895401001,0.42099395394325256,0.10476604849100113,0.0021434426307678223,0.062343478202819824,-0.021987184882164,0.6598623665132357,-0.42146612358395646,-0.6121677325149169,-0.11044792844088626,-0.4345408323788821,-1.6865549117094336,-0.8177098813531105
1781116026166733056,1.9839260578155518,-0.017772119492292404,-0.09469074010848999,-0.13359597325325012,-0.9014528393745422,0.4197535812854767,0.10578206926584244,0.005456745624542236,0.0532231330871582,-0.019966602325439453,0.6594063317843947,-0.4212987458267463,-0.6126976415313395,-0.1108707920607174,-0.43317380221278573,-1.6876083081179554,-0.8181598846849353
1781116026176766976,1.993959903717041,0.05538171902298927,-0.09552963078022003,-0.14263314008712769,-0.9019213914871216,0.41854366660118103,0.10657867789268494,0.000554203987121582,0.04147830605506897,-0.021282076835632324,0.659074080314219,-0.420864485323748,-0.6133208179725921,-0.11104962198682122,-0.43184117202790806,-1.688419344690966,-0.8177520935712845
1781116026186801920,2.003994941711426,0.053237076848745346,-0.06272108852863312,-0.1474476009607315,-0.9024404287338257,0.4172944724559784,0.10708217322826385,-0.008234560489654541,0.04423806071281433,-0.01012779027223587,0.6588611674132768,-0.4202760556631316,-0.6139292510808453,-0.11117947966446338,-0.4304661549102088,-1.6889025308179921,-0.8169385575080738
1781116026196836096,2.014029026031494,0.06893880665302277,-0.019202370196580887,-0.15013206005096436,-0.9030171036720276,0.416015625,0.10719768702983856,-0.009367048740386963,0.038482725620269775,-0.004322871565818787,0.6587798996103217,-0.41964512365604373,-0.6144076934326848,-0.1114015256687471,-0.4290593901509643,-1.6889539485260696,-0.8160938288748787
1781116026206869760,2.0240628719329834,0.07955709844827652,0.003211592324078083,-0.15271559357643127,-0.9036391377449036,0.4147307276725769,0.10693487524986267,-0.0036333203315734863,0.02128925919532776,0.0006548315286636353,0.6588368772112555,-0.4189335024534196,-0.6147862709799561,-0.1116542205247076,-0.4276468497830898,-1.6885865585509734,-0.8150692948754813
1781116026216904960,2.034097909927368,0.060273412615060806,0.0035127955488860607,-0.15399391949176788,-0.904278576374054,0.4134232997894287,0.10659121721982956,0.0021026134490966797,-0.0012376010417938232,0.021964073181152344,0.6589172824898711,-0.4182234016746274,-0.6151298997406817,-0.11194867368659177,-0.42621051097912194,-1.6881292184910266,-0.81408891034708
1781116026226938880,2.0441319942474365,0.0237652026116848,0.03211647644639015,-0.14019660651683807,-0.9049053192138672,0.4121309220790863,0.1062762513756752,-0.0030384063720703125,-0.023932069540023804,0.04380917549133301,0.658971586731219,-0.41761449446772425,-0.6154155183806703,-0.1123316255253144,-0.42479160954546097,-1.6877053828915747,-0.8134184413407635
1781116026236973056,2.054166078567505,-0.028140870854258537,0.08206619322299957,-0.132524311542511,-0.9055261611938477,0.41089367866516113,0.10577702522277832,-0.010214805603027344,-0.03746533393859863,0.04960322380065918,0.6590624233514646,-0.41717305831845625,-0.615512106356915,-0.11290800786569696,-0.4234341008688844,-1.6870821018188535,-0.8132771566733916
1781116026247007744,2.0642008781433105,-0.06833010166883469,0.1209115982055664,-0.11871448904275894,-0.9061487913131714,0.40970471501350403,0.10505486279726028,-0.012415051460266113,-0.048269808292388916,0.05929756164550781,0.6592035932794021,-0.4168860642951075,-0.61541322854948,-0.1136804182442322,-0.42213034056086596,-1.6862166016144968,-0.8136375124340448
1781116026257041920,2.074234962463379,-0.08256416767835617,0.16414880752563477,-0.1001618430018425,-0.9067452549934387,0.40863037109375,0.10408863425254822,-0.004357099533081055,-0.0445556640625,0.0708838701248169,0.6594139522688776,-0.4167298425742033,-0.6151264560125624,-0.11458178256425831,-0.4209529253354267,-1.6850897383299515,-0.8143638014990513
1781116026267076096,2.0842690467834473,-0.1013232097029686,0.187346950173378,-0.09496521949768066,-0.9073203802108765,0.40767115354537964,0.10283035039901733,0.006105780601501465,-0.029314249753952026,0.05726480484008789,0.6597219457371135,-0.4166331426640512,-0.6146804044683458,-0.11555020788249311,-0.419902207695847,-1.6836488986950344,-0.8152351308028423
1781116026277111040,2.094304084777832,-0.06381258368492126,0.17524075508117676,-0.11683908849954605,-0.9079439640045166,0.4066123068332672,0.10150875151157379,0.016937613487243652,-0.013576477766036987,0.04207645356655121,0.6600464941514499,-0.41648153177554165,-0.6142454811860647,-0.11655115107905728,-0.418742929593658,-1.6821346592825528,-0.8160402759887198
1781116026287144960,2.1043379306793213,-0.019760701805353165,0.13825157284736633,-0.12184104323387146,-0.9085893630981445,0.4054846465587616,0.10023698955774307,0.022999823093414307,-0.011411190032958984,0.02960001677274704,0.6603781513673783,-0.4161532429358216,-0.6139503030018343,-0.1173974353549534,-0.41750894609631045,-1.6806735522448728,-0.8163294444477968
1781116026297178880,2.1143720149993896,-0.012737148441374302,0.10758047550916672,-0.14158785343170166,-0.9092411398887634,0.40428662300109863,0.09916070103645325,0.015793263912200928,-0.013264864683151245,0.02092599868774414,0.660655874512627,-0.4157213724535794,-0.6138046043932507,-0.11812465131412589,-0.41619873675539837,-1.6794257657971186,-0.8163104771247683
1781116026307214080,2.1244070529937744,-0.017602743580937386,0.0891808271408081,-0.16201536357402802,-0.9099500179290771,0.40289410948753357,0.09832124412059784,0.0080794095993042,-0.029069125652313232,0.02829621732234955,0.6608397485466692,-0.415241411220985,-0.613787577869388,-0.11887008311878375,-0.41467675085468786,-1.678429999985904,-0.8162750265739032
1781116026317247744,2.1344408988952637,-0.05517062544822693,0.08822847902774811,-0.17391330003738403,-0.9107068181037903,0.4013407528400421,0.09766476601362228,-0.0016312599182128906,-0.04544484615325928,0.04839227348566055,0.6609344291364215,-0.41480249925820334,-0.613816967750042,-0.11972114824276782,-0.4129802048584516,-1.6776286571768184,-0.8164919012145025
1781116026327281920,2.144474983215332,-0.07223483175039291,0.09545044600963593,-0.18107587099075317,-0.9115089774131775,0.39965739846229553,0.0970851480960846,-0.01588970422744751,-0.058776021003723145,0.06043136119842529,0.660975614014557,-0.41441752384344555,-0.6138409311900482,-0.12070095289932403,-0.4111430517526617,-1.6769066378404656,-0.8169956279037179
1781116026337316864,2.154510021209717,-0.08310159295797348,0.1249936893582344,-0.16819655895233154,-0.9123155474662781,0.39798346161842346,0.09638133645057678,-0.03150153160095215,-0.06514352560043335,0.05666434019804001,0.6610508387769446,-0.4140621199292653,-0.6137941270043502,-0.12174177599467663,-0.40931766231075256,-1.676050649601794,-0.817614429054624
1781116026347350784,2.164543867111206,-0.12225618213415146,0.1814882457256317,-0.15273317694664001,-0.913101077079773,0.3964143693447113,0.09540402144193649,-0.056106626987457275,-0.06384909152984619,0.031182877719402313,0.6612043357576348,-0.41381980967641874,-0.6135594315782377,-0.12290948601152561,-0.40760791209927255,-1.67490211750116,-0.8185615856414715
1781116026357384960,2.1745779514312744,-0.1404234766960144,0.25969386100769043,-0.13565433025360107,-0.913884699344635,0.39495959877967834,0.09392374008893967,-0.059030890464782715,-0.04664725065231323,0.02369105815887451,0.6615130300427587,-0.41367739548326754,-0.6130521043207122,-0.12425238354567784,-0.4060238800606171,-1.6732109181244315,-0.8198375345893237
1781116026367419904,2.184612989425659,-0.1638057678937912,0.3295239210128784,-0.11690833419561386,-0.9146586656570435,0.39366641640663147,0.09179597347974777,-0.040984153747558594,-0.021122992038726807,0.020432479679584503,0.6620330958456067,-0.4136107056848883,-0.6122288550085405,-0.12575487594569407,-0.4046166836919655,-1.6708223016459376,-0.8213536524004025
1781116026377454080,2.1946470737457275,-0.15782563388347626,0.3381770849227905,-0.10163111239671707,-0.915398359298706,0.3925086557865143,0.08934707939624786,-0.014640092849731445,-0.010184437036514282,0.0038840770721435547,0.6626555338762274,-0.41361546178425435,-0.6112248274161332,-0.1273348885464131,-0.4033575596634409,-1.6680927232688587,-0.8230525511210405
1781116026387488768,2.204681873321533,-0.10482100397348404,0.3023248016834259,-0.06725475937128067,-0.9160091876983643,0.3916255831718445,0.08692792057991028,0.011468231678009033,-0.028237521648406982,-0.005049228668212891,0.6633075705459193,-0.41359520985372705,-0.610248280940547,-0.12868210747307468,-0.4023976447534608,-1.6654115050308376,-0.8244038043420759
1781116026397522944,2.2147159576416016,-0.10586442798376083,0.2830269932746887,-0.04080158472061157,-0.9164699912071228,0.39104756712913513,0.0846443623304367,0.024395406246185303,-0.03214561939239502,-0.012363553047180176,0.6639563893834246,-0.41357380056557586,-0.6093265893434319,-0.12976814885461596,-0.4017695200058777,-1.6628941700898805,-0.825428763699122
1781116026407557120,2.22475004196167,-0.09572843462228775,0.2566470503807068,-0.010549673810601234,-0.9167950749397278,0.39072439074516296,0.08259054273366928,0.03259408473968506,-0.012153863906860352,-0.021769046783447266,0.6645385208666978,-0.41368045937415404,-0.6084108385418344,-0.130741261887694,-0.40141841798622235,-1.6606399603150377,-0.8265761745843742
1781116026417592064,2.2347850799560547,-0.024805795401334763,0.22809264063835144,0.0290166437625885,-0.9169571995735168,0.3907623291015625,0.08058758080005646,0.038432419300079346,0.0074462890625,-0.04181492328643799,0.6651632373209418,-0.41374508682561123,-0.6075432440224381,-0.13139288223699006,-0.4014596209476525,-1.658456965954048,-0.827222346437753
1781116026427625984,2.244818925857544,0.03028062731027603,0.15900744497776031,0.051971759647130966,-0.9169509410858154,0.3911491930484772,0.0787588432431221,0.042500436305999756,0.025491952896118164,-0.0615316778421402,0.6657985326617456,-0.4137319341414915,-0.6067992333782419,-0.13165394447581866,-0.4018799526230116,-1.656478137727326,-0.8272286901122204
1781116026437659904,2.2548530101776123,0.06521304696798325,0.08783260732889175,0.07129646092653275,-0.9168020486831665,0.39176031947135925,0.077445849776268,0.03627842664718628,0.03167101740837097,-0.050208933651447296,0.6663122820493,-0.4136761377793686,-0.606296115394899,-0.131548481973222,-0.4025440616998405,-1.6550701626135316,-0.8267504650231129
1781116026447695104,2.264888048171997,0.05319846048951149,0.06523434817790985,0.0896054282784462,-0.9165364503860474,0.39255982637405396,0.076534204185009,0.031618356704711914,0.024676412343978882,-0.01699449121952057,0.6667143488035535,-0.4136747245027232,-0.6059210549897982,-0.13124310387097848,-0.40341319561709915,-1.6541067716564266,-0.826168476984362
1781116026457728768,2.2749218940734863,0.028625737875699997,0.06162017583847046,0.10970749706029892,-0.9161922335624695,0.3935079574584961,0.07578324526548386,0.018899261951446533,0.004746377468109131,-0.00594378262758255,0.667059548810812,-0.41379960837620106,-0.6055258093763293,-0.13091927388859564,-0.4044443078279016,-1.653323894935986,-0.8258167267548039
1781116026467762944,2.2849559783935547,-0.028263377025723457,0.059039968997240067,0.13310229778289795,-0.9157495498657227,0.39465031027793884,0.07519322633743286,0.0036554336547851562,-0.019375652074813843,-0.016324877738952637,0.6673383855849276,-0.41412444050800656,-0.6050599639321947,-0.13062504814493592,-0.40568722484610187,-1.6527236575282385,-0.8258936085367764
1781116026477797888,2.2949910163879395,-0.13103024661540985,0.08146911859512329,0.15049727261066437,-0.9152370691299438,0.39589205384254456,0.0749049112200737,-0.006332755088806152,-0.029604852199554443,-0.006865978240966797,0.6674629300794821,-0.4147885299130743,-0.6044856759936414,-0.13054061751302234,-0.4070390854240193,-1.652456418083507,-0.8269220466799464
1781116026487831808,2.3050248622894287,-0.1767045259475708,0.13477255403995514,0.15352022647857666,-0.9146988391876221,0.3972066044807434,0.07451840490102768,-0.00447535514831543,-0.019902557134628296,-0.026132822036743164,0.6675714095178084,-0.4157170183216471,-0.6036874722970402,-0.13072573939693877,-0.4084710267523901,-1.652084505386948,-0.8287780314999149
1781116026497865984,2.315058946609497,-0.176204651594162,0.12993678450584412,0.1404089480638504,-0.9142116904258728,0.39842504262924194,0.07399062812328339,0.006237447261810303,0.022152960300445557,-0.0642249584197998,0.667702419448391,-0.4166816536750688,-0.6028032131067951,-0.13106570489668648,-0.40979906745454536,-1.6515541088156942,-0.8308865785455426
1781116026507900928,2.325093984603882,-0.11807262152433395,0.09421699494123459,0.11687619239091873,-0.9137728214263916,0.39950624108314514,0.07358063757419586,0.0302584171295166,0.07527098059654236,-0.07384002208709717,0.6678065039205043,-0.4175073393806344,-0.602061409050426,-0.13131717451559288,-0.4109781589656521,-1.6511469530994833,-0.8326463090537461
1781116026517935104,2.33512806892395,-0.014911353588104248,0.05391325056552887,0.07581131905317307,-0.9134334325790405,0.4003596603870392,0.07315601408481598,0.04275155067443848,0.10231068730354309,-0.08467637747526169,0.6679577153537231,-0.4179871664953688,-0.6015519406701618,-0.13135677248297403,-0.41190930391439623,-1.6507147991731217,-0.8334898628015983
1781116026527968768,2.3451619148254395,0.082192562520504,-0.00902097299695015,0.03172161430120468,-0.9132317304611206,0.4008830785751343,0.07280486077070236,0.03954404592514038,0.09144172072410583,-0.08531702309846878,0.6681371195886012,-0.41801391928758413,-0.6013873916935454,-0.13111195022181377,-0.4124805730012298,-1.6503502963311882,-0.833139336593107
1781116026538003968,2.355196952819824,0.0838538408279419,-0.050618745386600494,0.0064602019265294075,-0.9131320714950562,0.40112045407295227,0.07274754345417023,0.03189122676849365,0.06856033205986023,-0.05989968776702881,0.6682385467239312,-0.41778685367264506,-0.6015213359085393,-0.13070369087081496,-0.4127396755544754,-1.6502965683391495,-0.8321605574939036
1781116026548037888,2.3652310371398926,0.03897957503795624,-0.06750185787677765,-0.017426755279302597,-0.9131039381027222,0.40113094449043274,0.0730421245098114,0.019701838493347168,0.04647037386894226,-0.046812303364276886,0.6681843317779835,-0.41761741519302215,-0.6017613798241713,-0.130417056408478,-0.4127511261287444,-1.650619580811845,-0.8315167983309497
1781116026558073344,2.3752663135528564,0.015200476162135601,-0.09120159596204758,-0.0368204265832901,-0.9131562113761902,0.4008983373641968,0.07366297394037247,-0.0020201802253723145,0.016368478536605835,-0.04468655586242676,0.6679838942792126,-0.41748916838404043,-0.6021081974288416,-0.13025377785028383,-0.4124972320869951,-1.651290558702305,-0.8311759447527377
1781116026568107264,2.385300397872925,-0.04826025292277336,-0.10011586546897888,-0.04255234822630882,-0.9132446646690369,0.4005173146724701,0.07463163882493973,-0.02080678939819336,0.004222005605697632,-0.028778918087482452,0.6676264978332823,-0.41748213430776265,-0.6025151333430239,-0.13022656390626322,-0.4120813574194768,-1.6523365345192853,-0.8313035327767853
1781116026578141184,2.395334243774414,-0.11191219836473465,-0.07152363657951355,-0.04950026795268059,-0.9133629202842712,0.40003737807273865,0.07575205713510513,-0.03039318323135376,0.008364081382751465,-0.01706671714782715,0.667162673379871,-0.4176810831768533,-0.6028420531825484,-0.13045297498917577,-0.4115576287054519,-1.6535444643315038,-0.832176979111358
1781116026588176128,2.405369281768799,-0.1448722928762436,-0.04930567741394043,-0.0608767606317997,-0.9135357737541199,0.39944130182266235,0.07680588215589523,-0.03255504369735718,0.014560192823410034,-0.020424596965312958,0.666679576876516,-0.417987231429568,-0.6030668418751366,-0.13090239761791866,-0.41090734646948524,-1.6546744609114776,-0.8335357394401084
1781116026598210304,2.415403366088867,-0.17175263166427612,-0.05941876396536827,-0.07184524834156036,-0.9137552976608276,0.3987205922603607,0.07792891561985016,-0.026109695434570312,0.031210988759994507,-0.017153151333332062,0.6661421557941865,-0.418358010037939,-0.6032752560389851,-0.1314915781611396,-0.4101213115903197,-1.6558746897160115,-0.8352139325719041
1781116026608244480,2.4254374504089355,-0.15842671692371368,-0.08109383285045624,-0.08673018962144852,-0.9140157103538513,0.3978636860847473,0.07924411445856094,-0.010987281799316406,0.04706728458404541,-0.0026145055890083313,0.6655234779072963,-0.4187318430370793,-0.6035608512740547,-0.13212259222584039,-0.40918713014519087,-1.6572789266432784,-0.8369887346861973
1781116026618279168,2.435472249984741,-0.0814051553606987,-0.09911757707595825,-0.0933537408709526,-0.9143010377883911,0.39694473147392273,0.08055023103952408,-0.0017603039741516113,0.048428744077682495,0.00810336321592331,0.6649382238331871,-0.41892163969900703,-0.6039700121809128,-0.1325970557284902,-0.40818568996119436,-1.658669785670137,-0.8382141024167334
1781116026628313344,2.4455063343048096,-0.006583116017282009,-0.10922466963529587,-0.09636284410953522,-0.9145891070365906,0.3960481584072113,0.08168528974056244,-0.0015027523040771484,0.043404966592788696,0.01143907755613327,0.6644684577945248,-0.4188430112161719,-0.6044941491801012,-0.1328117028248448,-0.40720905474527225,-1.6598736223516557,-0.8385673250060804
1781116026638347264,2.455540418624878,0.0171485785394907,-0.10708774626255035,-0.09532421082258224,-0.9148808717727661,0.3951769173145294,0.0826321616768837,-0.0038812756538391113,0.03783696889877319,0.013467662036418915,0.6640972307950146,-0.4186008595868065,-0.6050532220471992,-0.132886188606034,-0.40626042874133245,-1.6608720517746538,-0.8383988343067927
1781116026648382464,2.4655754566192627,0.02444004826247692,-0.09931265562772751,-0.08961732685565948,-0.9151658415794373,0.39433255791664124,0.08350758254528046,-0.003016650676727295,0.02412453293800354,0.020145423710346222,0.6637608559614724,-0.41831947328330726,-0.6056092879943464,-0.13292037767666842,-0.40534143675155127,-1.6617929091828634,-0.8380911625560288
1781116026658416384,2.475609302520752,0.015254804864525795,-0.0702410563826561,-0.0846175029873848,-0.9154348969459534,0.39355790615081787,0.0842089056968689,-0.0005349516868591309,0.007504075765609741,0.02212965488433838,0.6634888521419927,-0.418039209661389,-0.6060921323989846,-0.13295899900336067,-0.4044986341155195,-1.6625260475966415,-0.8377600994562925
1781116026668450304,2.4856433868408203,0.002744605764746666,-0.045845165848731995,-0.08711954951286316,-0.915722668170929,0.39278295636177063,0.08469530940055847,8.863210678100586e-05,8.732080459594727e-06,0.0026612207293510437,0.66327748356397,-0.41779046139686304,-0.6064641661013294,-0.133098591466726,-0.4036558129278596,-1.6630240663850613,-0.8375847335483874
1781116026678485504,2.495678424835205,-0.017127901315689087,-0.048856135457754135,-0.07664719969034195,-0.9160051345825195,0.3920249044895172,0.08515237271785736,0.004750311374664307,-0.0086173415184021,-0.014595754444599152,0.6630670288424704,-0.4175907497629326,-0.6067900409318709,-0.13328860661145453,-0.40283166885858696,-1.6634905183813717,-0.8375613345178705
1781116026688519168,2.5057122707366943,-0.04637500271201134,-0.051051247864961624,-0.07294806838035583,-0.9162523150444031,0.3913189172744751,0.08574039489030838,0.008277952671051025,-0.014609873294830322,-0.005189292132854462,0.662799346818867,-0.4174980206607965,-0.6070960382190173,-0.13351752689630883,-0.40206435445621364,-1.664101883218728,-0.8378076958175728
1781116026698554368,2.515747308731079,-0.08026852458715439,-0.041424985975027084,-0.06803347170352936,-0.9164881706237793,0.390612930059433,0.08643454313278198,0.009658396244049072,-0.015506118535995483,0.007346034049987793,0.6624705748321545,-0.4175292428725946,-0.607360357262445,-0.13384866721959293,-0.4012973213772171,-1.6648287869993,-0.8384358090517998
1781116026708588288,2.5257813930511475,-0.10722450166940689,-0.0448886938393116,-0.06391409039497375,-0.9167124032974243,0.3899194002151489,0.08718375116586685,0.007105588912963867,-0.011135280132293701,-0.0011088922619819641,0.6621030514726468,-0.41766453292101735,-0.607575684091351,-0.13426684119392082,-0.4005440497977641,-1.6656159302742193,-0.8393799395017402
1781116026718622208,2.5358152389526367,-0.10822132229804993,-0.05818638950586319,-0.06269649416208267,-0.9169092774391174,0.38924863934516907,0.08810725063085556,-3.713369369506836e-05,-0.011135846376419067,0.0019196271896362305,0.661666899580026,-0.4178758304261728,-0.6078103458351404,-0.13469710182287095,-0.39981574561372846,-1.6665937657995,-0.8405085461164254
1781116026728657152,2.5458502769470215,-0.09178269654512405,-0.056325774639844894,-0.06061017885804176,-0.9170932769775391,0.3886052966117859,0.0890275239944458,-0.0065975189208984375,-0.009180247783660889,0.0025404691696166992,0.6612398934209557,-0.41806665920337194,-0.6080575881811789,-0.13508541551129855,-0.3991174218521562,-1.6675688578557206,-0.8415420323533997
1781116026738691328,2.55588436126709,-0.052016910165548325,-0.05171291157603264,-0.05570516735315323,-0.9172685742378235,0.3880075514316559,0.08982430398464203,-0.012327253818511963,-0.0024790167808532715,0.0011027976870536804,0.6608781060891775,-0.4181678783007543,-0.6083155253215544,-0.13538076851444958,-0.3984687853383329,-1.6684109443860806,-0.8422647668427726
1781116026748725504,2.565918445587158,-0.009578106924891472,-0.029651682823896408,-0.04025137796998024,-0.91741943359375,0.3875345289707184,0.09032510966062546,-0.010772764682769775,-0.0015023648738861084,-0.008507482707500458,0.6606559695738258,-0.4181430966432175,-0.6085383367522428,-0.13554030524227523,-0.39795561010265296,-1.6689356702883422,-0.842522785030648
1781116026758760192,2.575953245162964,0.012030515819787979,-0.010158674791455269,-0.03278893232345581,-0.9175325632095337,0.3872268795967102,0.09049420803785324,0.0005556941032409668,0.0021010637283325195,-0.02898598462343216,0.6605771720860445,-0.41805314253627623,-0.6086695926832959,-0.13561203823217538,-0.39762190990865626,-1.6691061696180576,-0.8424856825911196
1781116026768794368,2.5859873294830322,0.040957771241664886,-0.0262947678565979,-0.02972869575023651,-0.9176383018493652,0.3869685232639313,0.09052742272615433,0.03023296594619751,0.010263532400131226,-0.03797614574432373,0.6605676389887535,-0.417877708309025,-0.6088036890284482,-0.13559744688183964,-0.3973417192274224,-1.6691307582994752,-0.8421528491212481
1781116026778828288,2.5960214138031006,0.06578376144170761,-0.08150262385606766,-0.02267211675643921,-0.917697012424469,0.38676732778549194,0.09079299867153168,0.059329092502593994,0.009945958852767944,-0.03892838954925537,0.6605043423159762,-0.4176524909353587,-0.6090672332511811,-0.13541628596114771,-0.39712352113191335,-1.669411106501234,-0.8415446771712246
1781116026788863488,2.6060564517974854,0.04778558388352394,-0.16396355628967285,-0.026794690638780594,-0.9176797270774841,0.38659951090812683,0.09167762100696564,0.06634610891342163,-0.006823539733886719,-0.03682231903076172,0.6602430174228258,-0.4174603513113716,-0.6095618649978494,-0.13505688390752554,-0.39694155603416137,-1.6703675010069945,-0.8408632657253716
1781116026798897152,2.6160902976989746,-0.007191382348537445,-0.22340930998325348,-0.023432450369000435,-0.9175961017608643,0.3863842189311981,0.09340713918209076,0.04662430286407471,-0.028550297021865845,-0.026604168117046356,0.6596673862016768,-0.4174484823245415,-0.6102789001778557,-0.13466801216444554,-0.39670810932195494,-1.6722423736120835,-0.8406167723173681
1781116026808931328,2.626124382019043,-0.07286360114812851,-0.23476168513298035,-0.006393811199814081,-0.9174324870109558,0.3862113654613495,0.095699742436409,0.01125878095626831,-0.044124603271484375,-0.006985187530517578,0.6588636734129485,-0.41768634338288707,-0.6110548178094987,-0.13434585304967503,-0.3965207123058581,-1.6747330041439046,-0.8410128090807184
1781116026818966272,2.6361594200134277,-0.14780442416667938,-0.18973562121391296,0.008481540717184544,-0.9172195196151733,0.38611674308776855,0.09809193015098572,-0.01597738265991211,-0.03978806734085083,0.0110083669424057,0.657978414890045,-0.4181991366918166,-0.6116824726177756,-0.13423243662311976,-0.3964181539736856,-1.6773362656433717,-0.8422088248992612
1781116026829000192,2.646193265914917,-0.18009179830551147,-0.14596962928771973,0.019895317032933235,-0.9169921875,0.38609710335731506,0.1002717986702919,-0.0303802490234375,-0.019046932458877563,0.0029996633529663086,0.6571274682466159,-0.4189099235442429,-0.6120869015603173,-0.13434148084054942,-0.39639686379310046,-1.6797121806327953,-0.8440294711606893
1781116026839035392,2.6562283039093018,-0.1534290313720703,-0.13499288260936737,0.017189545556902885,-0.9167698621749878,0.38611823320388794,0.1022053137421608,-0.028237462043762207,0.012914389371871948,-0.009645462036132812,0.6563579087247102,-0.4196307168898682,-0.6123828189382601,-0.13450545327887667,-0.3964197471301263,-1.681822025995335,-0.8459008331072958
1781116026849069312,2.66626238822937,-0.058216482400894165,-0.13018041849136353,0.019190644845366478,-0.916559100151062,0.3861815333366394,0.10384199023246765,-0.020116806030273438,0.03346565365791321,-0.016271844506263733,0.6557362399404151,-0.4201335666140226,-0.6127061122948677,-0.1344952068708835,-0.3964883888252062,-1.6836107401920968,-0.8470898337516153
1781116026859103232,2.6762962341308594,0.05414414778351784,-0.11614768952131271,0.013715451583266258,-0.9163609147071838,0.38634344935417175,0.10498282313346863,-0.014623582363128662,0.04300832748413086,-0.036119937896728516,0.6553649032089991,-0.4202792282408384,-0.6130715960260578,-0.1341842083374021,-0.3966639309420395,-1.6848639436650863,-0.8471373103279091
1781116026869138176,2.686331272125244,0.15233169496059418,-0.12134884297847748,0.004556840751320124,-0.9161989688873291,0.386539489030838,0.1056722104549408,-0.003844916820526123,0.04778668284416199,-0.03580225259065628,0.6552261724302462,-0.42003943440653446,-0.6135168945770637,-0.13357592567428994,-0.39687647201519366,-1.685626559025317,-0.8460036326822294
1781116026879172352,2.6963653564453125,0.21511678397655487,-0.13100120425224304,-0.001552983419969678,-0.9160575866699219,0.3867533206939697,0.10611666738986969,0.011867403984069824,0.03791409730911255,-0.015143737196922302,0.6552292275305199,-0.4195151786344176,-0.6140564710122519,-0.13272711448714258,-0.3971083433835705,-1.6861229137562774,-0.8439859122019716
1781116026889206528,2.706399440765381,0.23430486023426056,-0.14300207793712616,-0.005059834104031324,-0.9159228801727295,0.3869723975658417,0.10647919774055481,0.02178823947906494,0.011587202548980713,0.002911105751991272,0.6552884678253701,-0.41884791955259926,-0.6146592712287462,-0.1317478070285707,-0.39734591646988654,-1.686530274145139,-0.8415191594602329
1781116026899241216,2.7164342403411865,0.22351479530334473,-0.15224005281925201,-0.0020209006033837795,-0.9157776236534119,0.38718220591545105,0.10696357488632202,0.01889657974243164,-0.02065083384513855,0.021316997706890106,0.6553059951323743,-0.4181789887275599,-0.6153114019854596,-0.1307372172374821,-0.39757344823346175,-1.6870703030690521,-0.8390304601702386
1781116026909275392,2.726468324661255,0.14307694137096405,-0.1498238891363144,0.007869813591241837,-0.9155982732772827,0.3874199688434601,0.10763605684041977,0.01005023717880249,-0.04176265001296997,0.04215943068265915,0.6552307775934233,-0.4176739880455012,-0.6159273251431763,-0.1298251700221522,-0.39783134489611505,-1.6878173981693667,-0.8370075484697057
1781116026919309312,2.7365024089813232,0.050390686839818954,-0.12230491638183594,0.025848014280200005,-0.9153881669044495,0.3876681327819824,0.108527272939682,-0.003450453281402588,-0.053851544857025146,0.0572289377450943,0.6550169416328806,-0.4174948702262754,-0.6164103106143035,-0.12918691140217084,-0.3981005566761225,-1.688804222950551,-0.8359850311834264
1781116026929344512,2.746537446975708,-0.0189479049295187,-0.09385077655315399,0.04460572451353073,-0.9151319265365601,0.38801226019859314,0.10945366322994232,-0.01983511447906494,-0.05970418453216553,0.050549983978271484,0.6547404314343741,-0.41762199624920804,-0.616699845119141,-0.12879502142534538,-0.39847391548707056,-1.68983509741706,-0.8358578381910978
1781116026939378176,2.7565712928771973,-0.08325845003128052,-0.0587412565946579,0.06484921276569366,-0.9148337244987488,0.38845473527908325,0.11037197709083557,-0.03227919340133667,-0.05167806148529053,0.04288731515407562,0.654425103641795,-0.41801238868605467,-0.6168076143903681,-0.1286145411903045,-0.3989540491320872,-1.6908630593011023,-0.8364932695449366
1781116026949413376,2.766606330871582,-0.11034812778234482,0.013165423646569252,0.08476220071315765,-0.9145089983940125,0.3890467584133148,0.11097719520330429,-0.03452658653259277,-0.02985483407974243,0.0247650146484375,0.6541936092697391,-0.41858617148662736,-0.6166637769660195,-0.12861631185696482,-0.39959660076393033,-1.6915575173581505,-0.8376532323327774
1781116026959447296,2.7766404151916504,-0.08863218128681183,0.011570988222956657,0.07646139711141586,-0.9142099022865295,0.3896920382976532,0.11117719858884811,-0.015080869197845459,0.002763986587524414,0.004942178726196289,0.6540986477453813,-0.4191671264218108,-0.6163501600840193,-0.1287103212793117,-0.4002971809542536,-1.6918122404014513,-0.8388788840679007
1781116026969481216,2.7866742610931396,-0.016590476036071777,-0.0893700048327446,0.0677451342344284,-0.9138842225074768,0.3902965188026428,0.11173227429389954,-0.004374325275421143,0.024711966514587402,0.011680826544761658,0.6539164182275615,-0.41959002650954585,-0.6162875529289094,-0.128557769496551,-0.4009536209540164,-1.6924534259881387,-0.8395500534393147
1781116026979516160,2.7967092990875244,0.048717424273490906,-0.07157422602176666,0.06534988433122635,-0.9135205149650574,0.3909299373626709,0.11249106377363205,-0.020164787769317627,0.0325777530670166,0.02915632724761963,0.6537181293852677,-0.4197942330529389,-0.6164562717984231,-0.1280903981915651,-0.4016417219292639,-1.6933196828986234,-0.839438339096809
1781116026989550336,2.8067433834075928,0.0747665986418724,0.024272803217172623,0.052560850977897644,-0.9132644534111023,0.39154648780822754,0.1124262809753418,-0.034687936305999756,0.031289875507354736,0.0349736362695694,0.6538274971988813,-0.41978408545525336,-0.61643690806793,-0.12765804065395842,-0.4023116821527014,-1.693283815137563,-0.8388347685832013
1781116026999584256,2.816777229309082,0.09142174571752548,0.04430083930492401,0.04036437347531319,-0.9131214618682861,0.3920761048793793,0.11173805594444275,-0.024225890636444092,0.015119880437850952,0.035722844302654266,0.6541559070789491,-0.41962806398124125,-0.6162639984256106,-0.12732226387571716,-0.40288730432644976,-1.6925602840398348,-0.8379810998979308
1781116027009619200,2.826812267303467,0.07751791179180145,0.03730231896042824,0.033252932131290436,-0.9130191802978516,0.39251232147216797,0.11104150861501694,0.0028933286666870117,-0.005457848310470581,0.04238559305667877,0.6544806962707332,-0.4194395052290187,-0.6161097756858397,-0.1270210284319991,-0.40336154492850185,-1.6918220730158182,-0.8371117705619004
1781116027019653376,2.836846351623535,0.028605232015252113,0.00739182299003005,0.020076677203178406,-0.91294264793396,0.3928179144859314,0.11058829724788666,0.01802992820739746,-0.017680585384368896,0.04088568687438965,0.6546934374274079,-0.4193234637719006,-0.6160048537551494,-0.12681615893197468,-0.4036938085648849,-1.69134289556134,-0.836546394471126
1781116027029688320,2.84688138961792,-0.008681154809892178,-0.023597650229930878,0.01980370469391346,-0.9128463268280029,0.3930191397666931,0.11066856980323792,0.00806117057800293,-0.020399540662765503,0.022174477577209473,0.6546854040400282,-0.4193723487939376,-0.6160041550056073,-0.1266994424635997,-0.4039126539060513,-1.691442159938702,-0.8364954323474473
1781116027039722240,2.856915235519409,-0.044607196003198624,0.01408447977155447,0.023521210998296738,-0.9127522110939026,0.39318618178367615,0.1108517274260521,-0.008024156093597412,-0.00759655237197876,0.014804363250732422,0.6546174255596877,-0.41952791722793814,-0.615972557293228,-0.12668940997887737,-0.40409430295918947,-1.6916522327429446,-0.836800278312405
1781116027049756416,2.8669493198394775,-0.05280786752700806,0.050552207976579666,0.017607660964131355,-0.9127151370048523,0.39330387115478516,0.11074084043502808,-0.015904366970062256,0.01146608591079712,0.014198198914527893,0.654627281839344,-0.419733974449191,-0.6157871460884661,-0.12685774374264217,-0.40422233292084536,-1.6915373632273658,-0.837382472208516
1781116027059791360,2.8769843578338623,-0.03954719007015228,0.0803854689002037,0.01578233204782009,-0.9127256274223328,0.39340150356292725,0.11030492186546326,-0.008493185043334961,0.015350908041000366,0.009217135608196259,0.6547511368876181,-0.4198811580761605,-0.6155097676567927,-0.1270766500396229,-0.4043284980547498,-1.6910652947864109,-0.837866005424914
1781116027069825536,2.8870184421539307,-0.05025229975581169,0.07216336578130722,0.009384619072079659,-0.9127644300460815,0.3934670090675354,0.10975021868944168,0.011488616466522217,0.010005950927734375,0.0062623172998428345,0.6549110454326611,-0.420018096623043,-0.6151909520115864,-0.127344176628194,-0.40439976393010557,-1.690461217555434,-0.8383743826921257
1781116027079859200,2.89705228805542,-0.05254288390278816,0.03418002650141716,0.003439112100750208,-0.9127914905548096,0.3934797942638397,0.10947766155004501,0.02344822883605957,-0.001389920711517334,0.010197043418884277,0.6549687700253081,-0.4201719137427471,-0.6149751168090541,-0.12758172629846914,-0.4044136630989668,-1.6901633493913624,-0.8389241473463134
1781116027089894400,2.9070873260498047,-0.07268010824918747,0.025362834334373474,0.006331305019557476,-0.9128010272979736,0.393461138010025,0.10946626216173172,0.03207886219024658,-0.005002796649932861,0.013672128319740295,0.654928287912976,-0.42037230411157034,-0.614833520326787,-0.12781206285793706,-0.40439338405675634,-1.6901498045696617,-0.8395963720948039
1781116027099928320,2.917121410369873,-0.07921896874904633,0.026343142613768578,0.006163792219012976,-0.912803590297699,0.39343690872192383,0.10953183472156525,0.031684696674346924,-0.000507742166519165,0.0024525076150894165,0.6548506879445284,-0.4206273028380381,-0.61468576466635,-0.1280810983462643,-0.40436701289842075,-1.690220286742625,-0.8404341223725403
1781116027109962240,2.9271552562713623,-0.08041020482778549,0.03513010963797569,0.008635471574962139,-0.9128051400184631,0.3934224843978882,0.1095704510807991,0.03397512435913086,-0.0007375180721282959,-0.01780402660369873,0.6547802789945377,-0.4208952700891613,-0.6145180204195911,-0.12836512957533874,-0.40435131994232704,-1.6902617967515183,-0.8413110087239705
1781116027119997184,2.937190294265747,-0.07083826512098312,0.02808445133268833,0.015619345009326935,-0.9127945899963379,0.3934423327445984,0.10958733409643173,0.035841405391693115,-0.012064069509506226,-0.03268299996852875,0.6547215591997179,-0.42116360980632905,-0.6143410144303435,-0.1286317099566505,-0.4043729069563511,-1.6902813943251136,-0.8421617213239381
1781116027130031360,2.9472243785858154,-0.06501899659633636,0.011905482038855553,0.01938292384147644,-0.9127466082572937,0.3935334384441376,0.10965941846370697,0.042842984199523926,-0.027597159147262573,-0.037317514419555664,0.654656793967282,-0.42142310712324205,-0.6141923761897445,-0.12882083897958424,-0.4044720289676358,-1.690365473083566,-0.8429031359510165
1781116027140066304,2.9572594165802,-0.08666516840457916,-0.00390517245978117,0.021566450595855713,-0.9126702547073364,0.3936379849910736,0.10991993546485901,0.042461395263671875,-0.03330162167549133,-0.03171859681606293,0.6545231887752667,-0.4217309959867517,-0.6140870736726216,-0.12899427999691698,-0.4045857547248344,-1.6906567499764025,-0.843746272123494
1781116027150100224,2.9672932624816895,-0.11780337989330292,-0.021960606798529625,0.030496828258037567,-0.9125542640686035,0.39376145601272583,0.11043902486562729,0.03265613317489624,-0.03308948874473572,-0.027553319931030273,0.6542847396134853,-0.42215416130772854,-0.6140076359925536,-0.12919757519208758,-0.4047200645326434,-1.6912325003697724,-0.8448872892824053
1781116027160134400,2.977327346801758,-0.14577749371528625,-0.02897590585052967,0.03947567567229271,-0.9123893976211548,0.3939211666584015,0.11122819036245346,0.01685112714767456,-0.0384371280670166,-0.017066240310668945,0.6539359334560451,-0.42271300599104733,-0.6139444674470976,-0.12943619739413095,-0.404893826420306,-1.6921064095506584,-0.8463734510403874
1781116027170169344,2.9873623847961426,-0.15296590328216553,-0.02349458634853363,0.05312357842922211,-0.9121755361557007,0.3941834270954132,0.11205096542835236,-0.0011546015739440918,-0.04538276791572571,-0.021444201469421387,0.6535718635989294,-0.4233613845193881,-0.6138327296126981,-0.1296857846839114,-0.4051791592074599,-1.69302325991677,-0.8480460312897503
1781116027180203264,2.997396230697632,-0.16452428698539734,-0.033463332802057266,0.06594111025333405,-0.911903440952301,0.3945625126361847,0.11292708665132523,-0.0157545804977417,-0.038635969161987305,-0.012402176856994629,0.653190497807698,-0.42408802662574807,-0.6136879413169769,-0.12991784114503585,-0.4055916883050922,-1.6940057238609842,-0.8498503848546284
1781116027190237184,3.0074303150177,-0.1469586044549942,-0.03965890780091286,0.07710454612970352,-0.9115737676620483,0.39504697918891907,0.1138918474316597,-0.02604842185974121,-0.023983687162399292,-0.005539163947105408,0.652786773207659,-0.42485633972177433,-0.6135495205489014,-0.1300907492486713,-0.4061189732847162,-1.6950920481980343,-0.8516705035640133
1781116027200272384,3.017465353012085,-0.0980488508939743,-0.05642271041870117,0.08428629487752914,-0.9111956357955933,0.3956526815891266,0.11480996757745743,-0.04199033975601196,-0.012001007795333862,-0.009707465767860413,0.6524335211197705,-0.4255376380855262,-0.6134514671600229,-0.13009779393041226,-0.4067784064447489,-1.696135080827548,-0.853103241357297
1781116027210306304,3.0274994373321533,-0.06609117984771729,-0.05882700905203819,0.09116364270448685,-0.9107784032821655,0.39636126160621643,0.11567460745573044,-0.05214273929595947,0.003083348274230957,-0.002973198890686035,0.6521353703783428,-0.4261102023725746,-0.6134063892417415,-0.1299316596636092,-0.40755006643848735,-1.6971262746297358,-0.8540974643272481
1781116027220341248,3.037534236907959,-0.034265607595443726,-0.04021124914288521,0.09390509873628616,-0.9103521108627319,0.39714330434799194,0.1163453534245491,-0.06019836664199829,0.013516485691070557,0.0038481876254081726,0.6519291720302719,-0.4265914918908186,-0.6133452326075737,-0.129675386508559,-0.4084020603817117,-1.697909825567411,-0.8547702237806019
1781116027230375168,3.0475683212280273,0.004549962468445301,-0.022877134382724762,0.09191705286502838,-0.909938633441925,0.3979884088039398,0.11669086664915085,-0.0572243332862854,0.016455531120300293,0.003716215491294861,0.651863027815312,-0.42694718881610627,-0.6132385603138367,-0.12934099860673634,-0.40932305777235434,-1.6983405565483656,-0.8550499328867679
1781116027240409344,3.0576024055480957,0.021827220916748047,-0.008820702321827412,0.09134659916162491,-0.9095499515533447,0.3988477289676666,0.11678757518529892,-0.045268714427948,0.026399463415145874,0.014911048114299774,0.6519028575427388,-0.4271895778527481,-0.6131091693059324,-0.12895296942281612,-0.4102599467643333,-1.6984990739430683,-0.8550046956972353
1781116027250444288,3.0676374435424805,0.004322528373450041,0.012496836483478546,0.09129040688276291,-0.9091806411743164,0.39971262216567993,0.1167072057723999,-0.02302461862564087,0.03496450185775757,0.022300362586975098,0.6520014024244611,-0.4274270891940178,-0.6129108303386749,-0.12861046662431966,-0.41120331830012913,-1.6984634200939501,-0.8549792202419169
1781116027260478208,3.0776712894439697,-0.029325978830456734,0.007155334111303091,0.07209913432598114,-0.9088599681854248,0.40045467019081116,0.11666140705347061,-0.007674515247344971,0.04322519898414612,0.01575435698032379,0.6520601646809191,-0.4277176838543353,-0.6126893878514071,-0.1284016473278895,-0.4120129890901329,-1.6984583976854766,-0.8552353371586957
1781116027270512384,3.087705373764038,-0.08701537549495697,-0.005373639985918999,0.05812552571296692,-0.9085947275161743,0.40098837018013,0.11689450591802597,0.0034279823303222656,0.04736071825027466,0.014926210045814514,0.6519778909938876,-0.4281116129475273,-0.6125093474129675,-0.12836559449694684,-0.41259548934539975,-1.6987476507250592,-0.8559620855064132
1781116027280547328,3.097740411758423,-0.12194619327783585,-0.004323555156588554,0.03219565749168396,-0.9083996415138245,0.4012889564037323,0.1173764243721962,0.005308270454406738,0.05081367492675781,0.013452410697937012,0.6517616175218729,-0.4286045819254194,-0.6123612684785519,-0.12852467131692505,-0.4129236596207084,-1.6992966559789884,-0.8571758954749807
1781116027290581248,3.107774257659912,-0.13381777703762054,0.0028358204290270805,0.0008129689376801252,-0.9083307981491089,0.4012882113456726,0.11791138350963593,-0.0017949938774108887,0.05005151033401489,0.003991127014160156,0.6514895983854792,-0.4290784886072494,-0.6122477772557944,-0.12886296496591176,-0.41292283755340214,-1.6998855266560493,-0.8586008052597723
1781116027300615424,3.1178083419799805,-0.12569113075733185,0.018290411680936813,-0.03223766013979912,-0.9083998203277588,0.40100929141044617,0.11832686513662338,-0.009202659130096436,0.054190874099731445,0.005833856761455536,0.6512375828858711,-0.4294509480727787,-0.6121562830094462,-0.12932964159424654,-0.4126183360883179,-1.7003255955873522,-0.8599849218766404
1781116027310650368,3.1278433799743652,-0.1085885763168335,0.035829588770866394,-0.06496044993400574,-0.9086276888847351,0.40042153000831604,0.11856723576784134,-0.015276610851287842,0.06275895237922668,0.011803850531578064,0.6510294515702789,-0.42967235757203953,-0.6120990782622892,-0.1299113225958856,-0.41197680497693023,-1.7005536000578834,-0.8612079303068343
1781116027320684544,3.1378774642944336,-0.06711196899414062,0.0578179769217968,-0.08833740651607513,-0.9089933037757874,0.3996165096759796,0.11848154664039612,-0.01979386806488037,0.06373187899589539,0.01217949390411377,0.650937588772815,-0.4296918618205242,-0.6120503886299783,-0.13053553166159776,-0.41109847668352323,-1.700409299783339,-0.8620526017339054
1781116027330719232,3.1479122638702393,-0.032830964773893356,0.08216167241334915,-0.10698726028203964,-0.9094697833061218,0.3986630141735077,0.11803540587425232,-0.024871528148651123,0.052356213331222534,0.014975421130657196,0.6509825840779624,-0.42950951374437546,-0.6119961456896011,-0.1311637363342158,-0.4100585493238011,-1.6998597577776506,-0.8624627227625854
1781116027340753408,3.1579463481903076,0.0022910693660378456,0.121624656021595,-0.10991939902305603,-0.9100202322006226,0.39766472578048706,0.11715798079967499,-0.02584707736968994,0.03611212968826294,0.014800071716308594,0.651195829571053,-0.4291557672948224,-0.611885870605073,-0.13177634936853233,-0.4089702583224442,-1.698834212311506,-0.862457813874778
1781116027350787328,3.167980432510376,0.023722060024738312,0.13311539590358734,-0.11237084120512009,-0.910612940788269,0.39666905999183655,0.11592001467943192,-0.021775245666503906,0.02462601661682129,0.0013131946325302124,0.651548514899926,-0.42868971158367153,-0.6117067422442336,-0.13237978814361104,-0.40788537542500686,-1.6974141969677685,-0.862170146247774
1781116027360822272,3.1780152320861816,0.03719871863722801,0.12223611772060394,-0.10871884971857071,-0.9112036824226379,0.3956891596317291,0.11462124437093735,-0.01152580976486206,0.01950252056121826,-0.0019502639770507812,0.6519359735364816,-0.4281615153428739,-0.6115458604922982,-0.1329243253880471,-0.40681812010666313,-1.6959301049796331,-0.8616809672703236
1781116027370856192,3.18804931640625,0.04924206808209419,0.10985095053911209,-0.10317946970462799,-0.91175776720047,0.3947637379169464,0.1133994460105896,0.0014336705207824707,0.02170965075492859,0.0037270784378051758,0.652311090921117,-0.42761090327280826,-0.6114316310506873,-0.13338117339105904,-0.4058106844252713,-1.6945354327157827,-0.861050074037749
1781116027380891392,3.1980843544006348,0.05173292011022568,0.09846567362546921,-0.10125827044248581,-0.9122809171676636,0.3938887119293213,0.11222903430461884,0.010639011859893799,0.02662837505340576,0.0009453445672988892,0.6526768529570848,-0.4270602570344809,-0.6113379199555677,-0.13378524826269192,-0.40485849449916905,-1.6932015576928432,-0.8603604887883485
1781116027390925312,3.208118438720703,0.04962902516126633,0.08939441293478012,-0.0989929810166359,-0.9127808213233948,0.3930308520793915,0.11116587370634079,0.02328503131866455,0.019475191831588745,0.007120244204998016,0.6530076244082058,-0.42652278352287487,-0.6112783745442977,-0.13415687894485034,-0.40392539546774897,-1.691987629217222,-0.8596731161709174
1781116027400959232,3.2181522846221924,0.024032585322856903,0.05765938758850098,-0.0973769798874855,-0.9132509827613831,0.3921768367290497,0.11031654477119446,0.03484839200973511,0.0008589625358581543,0.010212644934654236,0.6532557620316749,-0.4260528935447436,-0.6112587042705251,-0.13453074343863505,-0.4029968155669689,-1.6910093174023706,-0.8591530021143403
1781116027410994176,3.228187322616577,3.483920590952039e-05,0.00821713637560606,-0.09070522338151932,-0.9136548638343811,0.39132967591285706,0.10998240113258362,0.03392457962036133,-0.021960169076919556,0.0055419206619262695,0.653313924239283,-0.42570544616621314,-0.6113641089273806,-0.13486963460712834,-0.40207606393666384,-1.6905962066699411,-0.8589037919983934
1781116027421028352,3.2382214069366455,-0.04494062438607216,-0.00393806304782629,-0.08547211438417435,-0.9139955639839172,0.3905070722103119,0.11007466912269592,0.017968952655792236,-0.02879747748374939,0.0012382268905639648,0.6532064257618048,-0.4255086836353495,-0.6115387913421151,-0.1352186756720107,-0.4011823450404095,-1.6906514769953827,-0.8590211300876781
1781116027431062272,3.2482552528381348,-0.06215795874595642,0.020758360624313354,-0.07699020951986313,-0.9143226146697998,0.38969141244888306,0.11024793982505798,-0.01063460111618042,-0.024304479360580444,-0.015017874538898468,0.6530452629408768,-0.4254413905676972,-0.6116564339824598,-0.1356754869464876,-0.4002964790620982,-1.6907958156653202,-0.8595353303624806
1781116027441097216,3.2582902908325195,-0.03265732526779175,0.07597368210554123,-0.0634554922580719,-0.9146404266357422,0.38901856541633606,0.10998737812042236,-0.02214229106903076,-0.017894327640533447,-0.038194797933101654,0.6530478076649473,-0.42535259876305315,-0.6116116869242378,-0.1361424352040992,-0.3995659892796923,-1.6904737090167634,-0.8599485439690295
1781116027451131392,3.268324375152588,-0.011842326261103153,0.089431032538414,-0.06753439456224442,-0.9149895906448364,0.3883989751338959,0.10927165299654007,-0.014102816581726074,-0.002611011266708374,-0.04938089847564697,0.6532241238383095,-0.4251674359631172,-0.6114478542983507,-0.13661040743715852,-0.39889352229268543,-1.6896573258820868,-0.8601073334838873
1781116027461166336,3.2783594131469727,0.023990772664546967,0.06997504085302353,-0.07860888540744781,-0.9153621196746826,0.3877434730529785,0.10847537219524384,0.007494807243347168,0.015576779842376709,-0.04332030564546585,0.6534467187514987,-0.424863628921411,-0.6113334463850806,-0.13700216920059316,-0.3981822833097275,-1.6887516255120478,-0.8599325796151799
1781116027471200256,3.288393259048462,0.05482032522559166,0.019144486635923386,-0.09963107854127884,-0.9157510995864868,0.38698112964630127,0.10791389644145966,0.025797545909881592,0.024121075868606567,-0.03892888128757477,0.6536060230283388,-0.42443816841460064,-0.6113993710340614,-0.13726669937534536,-0.3973553932414207,-1.6880973050336396,-0.8594049829760323
1781116027481234432,3.2984273433685303,0.1041141077876091,-0.025948157534003258,-0.12030812352895737,-0.9161697030067444,0.3860613703727722,0.10765468329191208,0.025026023387908936,0.015916168689727783,-0.03860867768526077,0.6536831563793934,-0.42384654597223287,-0.61170372553711,-0.13737151702268657,-0.3963581035906565,-1.6877651224999994,-0.8584106420267387
1781116027491269376,3.308462381362915,0.12649103999137878,-0.035167623311281204,-0.13440503180027008,-0.9166272282600403,0.38501569628715515,0.10750502347946167,0.01767098903656006,0.00029921531677246094,-0.026160486042499542,0.6537436181594106,-0.42309028035054824,-0.6121659314588094,-0.1373560984299794,-0.39522482685419225,-1.6875462233433705,-0.8569724421733342
1781116027501303296,3.3184962272644043,0.0660649910569191,-0.0151941804215312,-0.14199477434158325,-0.9171279668807983,0.38386622071266174,0.10734513401985168,0.011610448360443115,-0.013367563486099243,-0.016616351902484894,0.6537850026602592,-0.4223642553234228,-0.6126018316958279,-0.13745029433863945,-0.39397966982899585,-1.6873110767036548,-0.8557361083140346
1781116027511337216,3.3285303115844727,0.01398554164916277,-0.0035935835912823677,-0.1524636596441269,-0.9176868796348572,0.38255438208580017,0.10725367814302444,0.016411006450653076,-0.030732423067092896,-0.012862779200077057,0.6537467033194594,-0.4217882756197409,-0.6129612451552093,-0.13779908878683067,-0.39255940834760156,-1.6871424336668694,-0.85512886462725
1781116027521372416,3.3385653495788574,-0.058634333312511444,-0.030809756368398666,-0.15211638808250427,-0.9182578325271606,0.3811206817626953,0.10746915638446808,0.030898213386535645,-0.041688889265060425,-0.01803743839263916,0.6535516886577438,-0.4213928413413979,-0.613321002319774,-0.13833157454393746,-0.391008168779192,-1.6873022416587757,-0.855151530871261
1781116027531406336,3.348599433898926,-0.12710979580879211,-0.080720454454422,-0.15472255647182465,-0.9187802076339722,0.37961244583129883,0.10833954811096191,0.03154265880584717,-0.04025697708129883,-0.017259836196899414,0.6530755566794747,-0.4212717632281269,-0.6137588091649389,-0.1390058485962541,-0.3893773581373687,-1.688171040190536,-0.8559775990309477
1781116027541441280,3.3586342334747314,-0.17687202990055084,-0.11187251657247543,-0.154638409614563,-0.919258713722229,0.3780241906642914,0.10982348769903183,0.014504075050354004,-0.024447500705718994,-0.013632059097290039,0.6523429872025327,-0.4213662307874946,-0.6142981726838984,-0.13977449422147836,-0.38766117693470337,-1.6897023708538657,-0.857426827046716
1781116027551475712,3.368668794631958,-0.18790684640407562,-0.12036094814538956,-0.15236087143421173,-0.9197088479995728,0.3764030933380127,0.11160831898450851,-0.012008070945739746,-0.0034019947052001953,-0.007497549057006836,0.6514810718193657,-0.4215823585846273,-0.6148759825900743,-0.14059969133707395,-0.3859107979132468,-1.6915576455090309,-0.8592228253866734
