time,seconds_elapsed,rotationRateX,rotationRateY,rotationRateZ,gravityX,gravityY,gravityZ,accelerationX,accelerationY,accelerationZ,quaternionW,quaternionX,quaternionY,quaternionZ,pitch,roll,yaw
1780771245751599616,0.2881124019622803,0.018384134396910667,0.00865001417696476,-0.0729786604642868,0.022232700139284134,-0.3714287281036377,-0.9281952381134033,0.02242976799607277,0.015731096267700195,-0.0011107921600341797,0.6750733937548521,0.12181838473743414,0.14512978499535023,0.7130032690288738,0.3805473550294743,0.023948031880898904,1.6208211527304186
1780771245761634560,0.29814743995666504,0.0036603163462132215,-0.006224539130926132,-0.07094532996416092,0.02252088487148285,-0.3715032637119293,-0.9281584620475769,0.02517808973789215,0.005643278360366821,-0.003909409046173096,0.6753250550633728,0.12179166830627731,0.14521554366742223,0.7127519774787959,0.38062763853704507,0.02425929168706622,1.6200359779979527
1780771245771669504,0.3081824779510498,-0.009739645756781101,-0.012317584827542305,-0.07046676427125931,0.022685173898935318,-0.37146711349487305,-0.9281689524650574,0.031010502949357033,-0.0008625984191894531,-0.000587761402130127,0.6755925173813702,0.12177208872115976,0.14521395122366867,0.7125021216697751,0.3805887114598112,0.024435917183093167,1.6192569050033956
1780771245781703680,0.31821656227111816,-0.018113689497113228,-0.019706791266798973,-0.06015234440565109,0.02278359979391098,-0.3713095486164093,-0.928229570388794,0.02602926269173622,0.008867532014846802,0.013495683670043945,0.6758559435712218,0.12173010799613132,0.14514473771253308,0.7122735328872228,0.38041899665934864,0.024540292662785405,1.6185292278850192
1780771245791738624,0.32825136184692383,-0.03082016296684742,-0.02639918401837349,-0.0422162190079689,0.022761669009923935,-0.37109681963920593,-0.9283151626586914,0.021824516355991364,0.01597905158996582,0.021927833557128906,0.6760710665239613,0.12170171358165832,0.1450210663482592,0.7120993609914494,0.3801899170295369,0.024514421490531003,1.617975024906622
1780771245801773568,0.3382863998413086,-0.04413303732872009,-0.03507816046476364,-0.02222520299255848,0.022592253983020782,-0.37072962522506714,-0.9284660220146179,0.01892690733075142,0.013628214597702026,0.03114241361618042,0.6762331050096517,0.12165835568343258,0.144797241677959,0.7119984541184619,0.3797945201340536,0.024328081874494208,1.6176350255498853
1780771245811807744,0.34832048416137695,-0.06277117133140564,-0.046355847269296646,-0.0043551246635615826,0.022271541878581047,-0.3702377676963806,-0.9286699891090393,0.017248723655939102,0.011473119258880615,0.03242975473403931,0.6763462847414979,0.12161354872013272,0.14448231509583778,0.7119626632132249,0.3792649683625826,0.023977595286239047,1.6174917780958618
1780771245821842688,0.3583555221557617,-0.09260363131761551,-0.05187258496880531,0.019605867564678192,0.021778766065835953,-0.3695209324359894,-0.9289671778678894,0.01645975187420845,0.01560857892036438,0.032345473766326904,0.6764009760381322,0.12153523165461982,0.14403335170542994,0.7120150712433062,0.3784934109162624,0.02343977081065368,1.6175971933428577
1780771245831877632,0.3683905601501465,-0.11567512899637222,-0.06523792445659637,0.0396948903799057,0.0211170744150877,-0.3685663640499115,-0.9293615818023682,0.017289288341999054,0.016591876745224,0.033182382583618164,0.6764009716076754,0.12141841489654145,0.14344610910832764,0.7121535107583051,0.3774663476220852,0.022718220749150458,1.6179416241082938
1780771245841911552,0.37842440605163574,-0.15583187341690063,-0.07968557626008987,0.0645722821354866,0.020247166976332664,-0.36730700731277466,-0.929879367351532,0.017533596605062485,0.010388672351837158,0.03151816129684448,0.6763508630859585,0.12125353813719912,0.14268113177597222,0.712382699902416,0.3761119819478496,0.0217705325800258,1.6185330646256428
1780771245851946496,0.3884594440460205,-0.20213066041469574,-0.09346117824316025,0.09055780619382858,0.019154448062181473,-0.365664541721344,-0.9305496215820312,0.02131185680627823,0.0016508698463439941,0.02532196044921875,0.6762416930486672,0.12101519579931515,0.1417057725438465,0.7127214643541212,0.3743466816023823,0.02058110985042298,1.619414232197178
1780771245861980672,0.39849352836608887,-0.23725375533103943,-0.12134766578674316,0.11366499215364456,0.017800958827137947,-0.36356472969055176,-0.931398868560791,0.028646791353821754,-3.695487976074219e-05,0.013475894927978516,0.6760859414779818,0.1206928095702362,0.14047712579775506,0.7131670111705998,0.3720916343917551,0.019109742646712526,1.6205693736766684
1780771245872015616,0.40852856636047363,-0.24586935341358185,-0.14853601157665253,0.13470742106437683,0.016069086268544197,-0.3613277077674866,-0.9323003888130188,0.035291995853185654,0.00770530104637146,0.0030859708786010742,0.6758853887645778,0.12045128966783077,0.13907293897650405,0.7136729288248704,0.3696914196434549,0.017234245925251582,1.6219481265418392
1780771245882050560,0.4185633659362793,-0.24134516716003418,-0.1632864624261856,0.17620053887367249,0.014073625206947327,-0.35905563831329346,-0.9332100749015808,0.03652452304959297,0.03791916370391846,-0.003359198570251465,0.675591321519944,0.12027792636174897,0.13757978504004717,0.714269847820858,0.36725585336870287,0.015079733150904325,1.6236394476041507
1780771245892084480,0.42859745025634766,-0.24700039625167847,-0.19135378301143646,0.21313032507896423,0.011696616187691689,-0.3568185567855835,-0.9341004490852356,0.044776156544685364,0.055518537759780884,-0.0009428262710571289,0.6751535944560311,0.12023383193924014,0.13599112861031337,0.7149950213598796,0.36486005756563006,0.012521142144271934,1.625790381979336
1780771245902119680,0.4386324882507324,-0.26983967423439026,-0.23254649341106415,0.22093285620212555,0.008925204165279865,-0.35439300537109375,-0.9350539445877075,0.05424618721008301,0.045021116733551025,0.002711474895477295,0.6746773374079441,0.12026149362876094,0.1342020420579764,0.7157775251762225,0.36226487761527104,0.009544832167035838,1.6281486723467977
1780771245912154624,0.4486675262451172,-0.28614887595176697,-0.2456003725528717,0.24833624064922333,0.005820542108267546,-0.3518221378326416,-0.9360487461090088,0.04744789004325867,0.03346279263496399,0.010511696338653564,0.6741721755711986,0.12035734693898775,0.1322487143490636,0.7166004781684695,0.35951697725280024,0.006218123833527163,1.630661429593641
1780771245922188544,0.45870137214660645,-0.3069228529930115,-0.23120839893817902,0.29731443524360657,0.0026260477025061846,-0.3490144610404968,-0.9371136426925659,0.029753105714917183,0.040710628032684326,0.017954707145690918,0.6735255284818537,0.12037794298755974,0.13020108644107187,0.7175793966800396,0.35651923556389675,0.002802265032415826,1.6336067903395137
1780771245932221952,0.4687347412109375,-0.30085432529449463,-0.22426952421665192,0.3306172788143158,-0.0006143914652056992,-0.34616270661354065,-0.938174307346344,0.02766822837293148,0.04239073395729065,0.023089468479156494,0.6727205176483996,0.12037737318094095,0.12814891291467434,0.7187031622375607,0.3534778403921007,-0.0006548797912558203,1.6369836126989703
1780771245942256896,0.47876977920532227,-0.313345342874527,-0.227755606174469,0.3617307245731354,-0.0039034660439938307,-0.34324994683265686,-0.9392359852790833,0.03826625645160675,0.02771344780921936,0.018520653247833252,0.6718041366915304,0.12036025951767401,0.12607701872772037,0.719928621891004,0.35037489465945404,-0.004155977481773206,1.6406620791801378
1780771245952290816,0.4888036251068115,-0.3360975384712219,-0.24294599890708923,0.41013339161872864,-0.007438586559146643,-0.340177983045578,-0.9403316378593445,0.057899393141269684,0.007566899061203003,0.018136203289031982,0.6707530756942643,0.12036125988051784,0.12388437754555794,0.7212879020920241,0.3471061546076595,-0.007910434068647988,1.6447567717641816
1780771245962325760,0.4988386631011963,-0.3851947784423828,-0.28682026267051697,0.45665696263313293,-0.011395396664738655,-0.3367559313774109,-0.941523015499115,0.0794801115989685,-0.014135181903839111,0.01391071081161499,0.6695657493343108,0.12037810216093399,0.12143972033649107,0.7228023553192441,0.34346947281392565,-0.012102561816852077,1.6493274155029538
1780771245972360960,0.508873701095581,-0.45619624853134155,-0.3768821060657501,0.5132619738578796,-0.01613966003060341,-0.33271661400794983,-0.9428887367248535,0.09336438775062561,-0.007066100835800171,0.0022759437561035156,0.6682489655589811,0.12045495533849271,0.11851682117390919,0.7244913514074673,0.3391828643846853,-0.017115576679641878,1.65444844849323
1780771245982394880,0.5189077854156494,-0.5354881286621094,-0.45683127641677856,0.5428879857063293,-0.021837126463651657,-0.32791534066200256,-0.9444546699523926,0.10234250128269196,-0.0008047223091125488,-0.021197736263275146,0.6668989675145788,0.12062309861282136,0.11499010913178011,0.7262734017232674,0.3340960704571391,-0.023117293403420953,1.6598792197112526
1780771245992430080,0.5289428234100342,-0.5744216442108154,-0.5462979078292847,0.5738661885261536,-0.028398187831044197,-0.32247796654701233,-0.9461508989334106,0.09744422137737274,0.007399231195449829,-0.041397929191589355,0.6654792622601033,0.1208954399143543,0.11094526646734972,0.7281570606281216,0.3283461508014575,-0.030005431165972842,1.6656554218001183
1780771246002464768,0.5389776229858398,-0.5116648077964783,-0.6055455207824707,0.6139485836029053,-0.03580207750201225,-0.3170752227306366,-0.9477244019508362,0.08963508158922195,0.0611395537853241,-0.05464071035385132,0.6639638582913561,0.12150835910204183,0.10664672622026171,0.7300782472152871,0.3226439906540332,-0.03775893082552776,1.6717236072022261
1780771246012498944,0.5490117073059082,-0.3659374415874481,-0.6392486095428467,0.6966967582702637,-0.04378535598516464,-0.3126198351383209,-0.9488686323165894,0.09067560732364655,0.13357320427894592,-0.060256123542785645,0.6621662752028866,0.12266683087012635,0.1025598845552689,0.7320999008214449,0.31794986441369716,-0.04611209166045189,1.6784228162472568
1780771246022533888,0.559046745300293,-0.2454243302345276,-0.66620272397995,0.7996993064880371,-0.05230660364031792,-0.30934709310531616,-0.9495095610618591,0.09146065264940262,0.15785783529281616,-0.04997164011001587,0.6599289508394202,0.12441983472838995,0.0988176236487022,0.7343355899304015,0.31450637633415457,-0.05503239855717886,1.6861560483289595
1780771246032568832,0.5690817832946777,-0.2683373987674713,-0.7292882204055786,0.8795936107635498,-0.06151535362005234,-0.3065483272075653,-0.9498652219772339,0.09603074193000793,0.0953514575958252,-0.022043287754058838,0.6573308161373317,0.12658677261412887,0.09509559040579167,0.7367826542615704,0.31156465523257587,-0.06467187624745022,1.694815392790762
1780771246042602752,0.579115629196167,-0.3898443877696991,-0.8754265308380127,0.9188182353973389,-0.07195449620485306,-0.30282843112945557,-0.9503249526023865,0.12742020189762115,0.02882632613182068,0.009986817836761475,0.6545607880942296,0.12891328573075364,0.09065812071497673,0.7394001306539143,0.30765902803745865,-0.07557148611091599,1.7040935483487603
1780771246052637696,0.5891506671905518,-0.5982186198234558,-1.0086458921432495,0.896026611328125,-0.08367208391427994,-0.29741135239601135,-0.9510759711265564,0.14815571904182434,-0.008527368307113647,0.017375409603118896,0.6519275212768033,0.13119598953140713,0.08514480102102512,0.7419760359305551,0.3019801717742245,-0.08775031095719182,1.713179772672683
1780771246062672896,0.5991857051849365,-0.8435218334197998,-1.1221892833709717,0.9204784631729126,-0.09653947502374649,-0.28973573446273804,-0.9522254467010498,0.11581133306026459,-0.026945143938064575,-0.02500838041305542,0.6494635232334661,0.13320609548768667,0.07837985596789476,0.7445199481814929,0.2939507157008187,-0.10103777225745261,1.7219369889718006
1780771246072706816,0.6092197895050049,-0.896714985370636,-1.1852272748947144,1.0032700300216675,-0.11027783155441284,-0.2800716161727905,-0.9536239504814148,0.07527416944503784,-0.00046119093894958496,-0.07361292839050293,0.6469427790660816,0.1349223972915971,0.07059715305449576,0.7471793751374197,0.28386870870293585,-0.11512940490023894,1.7308174257093993
1780771246082742016,0.6192548274993896,-0.6032463908195496,-1.2105470895767212,1.181666612625122,-0.12476517260074615,-0.2716490924358368,-0.9542748332023621,0.07966019213199615,0.10557243227958679,-0.12522345781326294,0.6437788303888686,0.13737642503194117,0.06316888540816011,0.7501241677317775,0.2751061362697287,-0.13000601709755014,1.7411090438191201
1780771246092776704,0.6292896270751953,-0.39462608098983765,-1.2534505128860474,1.4573792219161987,-0.14005762338638306,-0.2650969624519348,-0.9539955258369446,0.14780908823013306,0.21523123979568481,-0.19659346342086792,0.6395409383352288,0.14078563280173706,0.05640606072581138,0.7536478933328524,0.26830448813425284,-0.14577027112818003,1.7539462299818427
1780771246102810880,0.6393237113952637,-0.4115520715713501,-1.3804476261138916,1.6483664512634277,-0.15668588876724243,-0.25918048620224,-0.9530346393585205,0.20418649911880493,0.154779851436615,-0.198408842086792,0.6342481417793212,0.14496406503667222,0.04968001827410685,0.757790574941505,0.26217358837173543,-0.16294960860346072,1.7693615762921577
1780771246112845824,0.6493587493896484,-0.7352352738380432,-1.599138855934143,1.7122503519058228,-0.17523252964019775,-0.2509700655937195,-0.9520018696784973,0.20060789585113525,-0.03900796175003052,-0.12827461957931519,0.6285522528089663,0.1492350418314344,0.04156877987408782,0.7621830192830001,0.2536822790282298,-0.18202989695009092,1.785657710681
1780771246122881024,0.6593937873840332,-0.9483388066291809,-1.78385329246521,1.874732255935669,-0.1957230120897293,-0.2392733246088028,-0.9510208964347839,0.1551651507616043,-0.1570432037115097,-0.09438925981521606,0.6227283372806566,0.15327831745355533,0.031548396995250666,0.7666288751376763,0.2416173699985432,-0.2029691401606857,1.8019313313800733
1780771246132914688,0.6694276332855225,-0.998689591884613,-1.890543818473816,1.9990112781524658,-0.2178657054901123,-0.22618535161018372,-0.9494075775146484,0.2119758129119873,-0.09987971186637878,-0.21909523010253906,0.6161604661623463,0.15770276656815857,0.02064113789917465,0.7713948903831135,0.22815975821664825,-0.22557011838096747,1.8195760984064029
1780771246142949888,0.6794626712799072,-1.295922040939331,-2.04838490486145,1.979026436805725,-0.24097411334514618,-0.21062792837619781,-0.9474003314971924,0.2822186350822449,-0.11519299447536469,-0.23492693901062012,0.6094957701232736,0.16194862670388374,0.008513853012121464,0.7760252021224112,0.21221726045002867,-0.2490713943460138,1.8366987210025605
1780771246152984832,0.689497709274292,-1.4302854537963867,-2.1344563961029053,2.0098202228546143,-0.26487013697624207,-0.19253304600715637,-0.9448676109313965,0.30362746119499207,-0.13144156336784363,-0.08119440078735352,0.6028931077092742,0.16595964152342818,-0.004855996735403962,0.7803548966984157,0.19374283808754522,-0.27331016038065525,1.852713510695186
1780771246163019008,0.6995317935943604,-1.4488085508346558,-2.1382079124450684,2.1196963787078857,-0.2889454662799835,-0.17321448028087616,-0.9415451288223267,0.2690022587776184,-0.13095420598983765,0.043977439403533936,0.5958757185139443,0.16993718053003495,-0.0186756543519529,0.7846685266068141,0.1740925569055003,-0.2977606652752756,1.8687919697653974
1780771246173053952,0.7095668315887451,-1.5660430192947388,-2.0088982582092285,2.1970300674438477,-0.31203317642211914,-0.1525629758834839,-0.9377418756484985,0.18530893325805664,-0.1770268678665161,0.11982500553131104,0.5883724511721709,0.17339317193759157,-0.03261699928943544,0.7891063048150737,0.1531610865657467,-0.3212250477252281,1.8850708754528236
1780771246183087872,0.7196006774902344,-1.8852667808532715,-1.8680914640426636,2.238504409790039,-0.33335673809051514,-0.12925972044467926,-0.933897852897644,0.10420024394989014,-0.25695550441741943,0.18670547008514404,0.5806813059067055,0.1756047362484995,-0.04705367988800045,0.7935729579130051,0.1296223996588829,-0.3428546795026638,1.900653079034835
1780771246193122816,0.7296357154846191,-2.2864060401916504,-1.7579247951507568,2.260319948196411,-0.3528798818588257,-0.10202938318252563,-0.9300891160964966,0.09464016556739807,-0.30473941564559937,0.27249640226364136,0.5730352745450976,0.17617636340513404,-0.06258850940058402,0.797919283055066,0.10220723977870969,-0.362626433620239,1.9147228002407541
1780771246203158016,0.7396707534790039,-2.752454996109009,-1.6541787385940552,2.296603202819824,-0.370725154876709,-0.07035338133573532,-0.9260741472244263,0.09669256210327148,-0.3088885545730591,0.35042107105255127,0.5655116226410043,0.17502653060541934,-0.07955283085390003,0.8020185556409885,0.07041154813711377,-0.380781426226429,1.9268731451858163
1780771246213191936,0.7497048377990723,-3.362774133682251,-1.5182100534439087,2.3309264183044434,-0.38663116097450256,-0.03334135189652443,-0.9216315150260925,0.08346953988075256,-0.27503877878189087,0.3949439525604248,0.5581263546487835,0.17180993304286665,-0.09831366117976653,0.8057982450563144,0.03334753234344789,-0.3972091124835846,1.9367691441339419
1780771246223226880,0.7597396373748779,-4.119194507598877,-1.2887928485870361,2.213303327560425,-0.39978063106536865,0.010138258337974548,-0.9165547490119934,0.05215489864349365,-0.21213410794734955,0.4209797978401184,0.5513095227236505,0.1658169171768507,-0.11927853100658617,0.8089098146463864,-0.010138431562719243,-0.41129994132486924,1.9430110804635292
1780771246233261824,0.7697746753692627,-4.803055763244629,-1.1485297679901123,2.01515793800354,-0.41017040610313416,0.05966353416442871,-0.9100552201271057,0.015166133642196655,-0.1727006435394287,0.4411068558692932,0.5455299551426054,0.1570766153917991,-0.14247569344229002,0.8108173602851385,-0.0596989879996238,-0.42344367527537197,1.944263305247546
1780771246243296000,0.779808759689331,-5.44158411026001,-1.082222819328308,1.8684945106506348,-0.41860896348953247,0.11445200443267822,-0.9009258151054382,0.00852900743484497,-0.13535654544830322,0.48870962858200073,0.5407031717167997,0.14608980341062494,-0.16791328316271772,0.8112355387355633,-0.11470336263222605,-0.43496419747802645,1.9404200032682288
1780771246253330944,0.7898437976837158,-5.312817096710205,-1.0033307075500488,1.7028523683547974,-0.42546674609184265,0.17088206112384796,-0.8886942267417908,0.004034250974655151,-0.05432015657424927,0.49480384588241577,0.5362865361072623,0.13403724414123638,-0.1941311752014726,0.8103973944752667,-0.1717248255992746,-0.4465075649059543,1.9333210261736762
1780771246263365888,0.7998788356781006,-4.8377838134765625,-0.8538325428962708,1.592011570930481,-0.4304586350917816,0.222722128033638,-0.8747000694274902,-0.029212385416030884,-0.0492754727602005,0.43060827255249023,0.5319036659753775,0.12255846697692334,-0.21824157077960615,0.8089676036952409,-0.22460584549042442,-0.4573249010217933,1.9258386829753742
1780771246273399808,0.8099126815795898,-4.79414176940918,-0.6259788870811462,1.5060820579528809,-0.4330558478832245,0.2710947096347809,-0.8596338033676147,-0.06840899586677551,-0.041373640298843384,0.32408082485198975,0.5275993210008013,0.11104453418011212,-0.24052485398754508,0.8071281384534778,-0.27453015219472815,-0.46665730512647435,1.9180507858272613
1780771246283434752,0.8199477195739746,-5.024775505065918,-0.4366896450519562,1.4131534099578857,-0.43321657180786133,0.3192720413208008,-0.842845618724823,-0.10450312495231628,-0.04699423909187317,0.3348195552825928,0.5235893853234469,0.09841873829057045,-0.26247082805425986,0.8045352153675814,-0.32496121921829546,-0.474779057971906,1.9084388644762589
1780771246293469952,0.8299827575683594,-5.480773448944092,-0.28993040323257446,1.2272671461105347,-0.4317038953304291,0.3688376843929291,-0.823158860206604,-0.12835469841957092,-0.12245401740074158,0.3491140604019165,0.5201613288028551,0.08434859111892563,-0.28514184451647195,0.8006321120703905,-0.3777582271501362,-0.4830140509551298,1.8951802942462606
1780771246303503872,0.8400168418884277,-6.056065082550049,-0.14795677363872528,1.0869579315185547,-0.4289263188838959,0.4207666218280792,-0.7993608117103577,-0.1731855571269989,-0.18980953097343445,0.4096055030822754,0.5174459156828833,0.06849481064227539,-0.3092378385075559,0.7949404508550559,-0.43429021609030394,-0.49248671329279853,1.876752217480537
1780771246313538816,0.8500516414642334,-6.516339302062988,0.011043529957532883,1.0624196529388428,-0.42466023564338684,0.4749401807785034,-0.7707758545875549,-0.19654029607772827,-0.2001294195652008,0.4818660020828247,0.5149774491020228,0.0507373622693022,-0.334720456713731,0.7875189081443904,-0.4948960573420433,-0.503573550526099,1.8535437547509959
1780771246323573760,0.8600866794586182,-6.813753604888916,0.16706189513206482,1.102264165878296,-0.4185373783111572,0.5300694108009338,-0.7374637722969055,-0.19953510165214539,-0.1808873414993286,0.5054692029953003,0.5122682019115635,0.03128760112015602,-0.36095595220904897,0.778661097766638,-0.5586824422517648,-0.5162069467826672,1.8266391621691933
1780771246333607936,0.8701207637786865,-6.916350364685059,0.318387895822525,1.1099450588226318,-0.41059085726737976,0.5842621922492981,-0.7000377178192139,-0.21128109097480774,-0.1345856785774231,0.5186870098114014,0.5091355069727099,0.010662060061699227,-0.38712717580412287,0.768635120509488,-0.6239706770046587,-0.5304537777519516,1.7967595621986359
1780771246343642880,0.8801558017730713,-6.672095775604248,0.41665348410606384,1.060489296913147,-0.40134456753730774,0.6353395581245422,-0.6597470045089722,-0.21234863996505737,-0.047479450702667236,0.49952971935272217,0.5057222568545697,-0.010365525145131624,-0.4123336623380865,0.7577060557807154,-0.688448177639188,-0.5465227470583645,1.7642376166536884
1780771246353678080,0.890190839767456,-5.833810329437256,0.48485317826271057,0.8791232705116272,-0.3919968008995056,0.6795324683189392,-0.6201403141021729,-0.1893324851989746,0.09956598281860352,0.4464953541755676,0.5023431345823973,-0.03000500451681797,-0.4347752656808784,0.746807503391461,-0.747125186879439,-0.5636956867606678,1.7312940095050102
1780771246363711744,0.9002246856689453,-4.940201282501221,0.4766556918621063,0.7247033715248108,-0.38351449370384216,0.7151780128479004,-0.5843262076377869,-0.15115347504615784,0.3517928123474121,0.3403838872909546,0.49944720618832034,-0.04712504460987781,-0.4534491558423029,0.7366923638069536,-0.7968787505842962,-0.5808166965354894,1.6997373229789965
1780771246373746944,0.9102597236633301,-3.8127546310424805,0.42335066199302673,0.6836935877799988,-0.3757888376712799,0.7429966330528259,-0.5538399815559387,-0.1268203854560852,0.6692347526550293,0.2883676290512085,0.49668860317627045,-0.06139800309460327,-0.46830576243834326,0.7281623731844107,-0.8375366196620154,-0.5961606186111145,1.6725417889283787
1780771246383781888,0.9202947616577148,-2.5742573738098145,0.43243417143821716,0.5822679400444031,-0.36870697140693665,0.7626806497573853,-0.5313881039619446,-0.14493435621261597,0.8314507603645325,0.16015708446502686,0.49430161445834786,-0.07233207028514416,-0.4786167802585936,0.7220525638160451,-0.8674477096979696,-0.6065907649799829,1.653118266810514
1780771246393815808,0.9303286075592041,-1.5791945457458496,0.5339089035987854,0.4547536075115204,-0.36218222975730896,0.7754638195037842,-0.5171844959259033,-0.21359288692474365,0.8260833621025085,0.012484848499298096,0.49279648678930216,-0.08044084425124513,-0.4847030278383774,0.7181529975890306,-0.8874493245123395,-0.6109245964454993,1.641221158318341
1780771246403850752,0.9403636455535889,-0.9277400374412537,0.6497337818145752,0.34198737144470215,-0.35600507259368896,0.7832211256027222,-0.5097302794456482,-0.26557692885398865,0.6905642151832581,-0.04503345489501953,0.49229927668971846,-0.08658285237979939,-0.4874815626042873,0.7158955874259739,-0.8998298807001922,-0.6096638001087753,1.6351859792758452
1780771246413885952,0.9503986835479736,-0.5491189360618591,0.6599780917167664,0.25897371768951416,-0.3502649962902069,0.788004457950592,-0.5063233971595764,-0.2747197151184082,0.4766286611557007,-0.07434976100921631,0.4925308710002906,-0.09150512357543811,-0.4883289022421348,0.7145453350724777,-0.9075610122859048,-0.6051886638905595,1.6323884920903424
1780771246423919872,0.960432767868042,-0.24242454767227173,0.5969021916389465,0.2222582995891571,-0.34516441822052,0.7908627986907959,-0.5053687691688538,-0.2356003224849701,0.2875368595123291,-0.09628534317016602,0.4930242379225622,-0.09533327326336462,-0.4880852313737551,0.7138707854964774,-0.9122175411110331,-0.5992219361183246,1.6319459623373318
1780771246433955072,0.9704678058624268,0.0103027718141675,0.38134369254112244,0.14476510882377625,-0.3411571979522705,0.792089581489563,-0.5061678886413574,-0.184218168258667,0.1875399351119995,-0.12798738479614258,0.49352647886776013,-0.09786288416967462,-0.4871744275432801,0.7138036418768623,-0.9142247530847777,-0.593062428127776,1.6333949590618504
1780771246443990016,0.9805028438568115,0.3268221318721771,0.22425714135169983,0.07152605801820755,-0.3388812839984894,0.7916215062141418,-0.5084239840507507,-0.14492911100387573,0.16104573011398315,-0.10328567028045654,0.49391237902730784,-0.09872535844688486,-0.4858408428828833,0.7143267084222624,-0.9134583038106969,-0.5879099864095709,1.6363389960430461
1780771246454023936,0.9905366897583008,0.7157371640205383,0.2404695302248001,0.022505518049001694,-0.33733293414115906,0.789125382900238,-0.5133105516433716,-0.11007001996040344,0.15934568643569946,-0.24277770519256592,0.49457761537851086,-0.09839125415516768,-0.48338790968340006,0.715575579218548,-0.9093837852358859,-0.5813999678440472,1.6416080249042981
1780771246464058880,1.0005717277526855,1.1159883737564087,0.1826150119304657,-0.005945564713329077,-0.3361262083053589,0.7844089269638062,-0.5212693810462952,-0.10689744353294373,0.11088520288467407,-0.31601089239120483,0.4955109264600851,-0.09692103472776473,-0.479553571339054,0.7177071876470141,-0.9017426260912577,-0.5727268916242598,1.6498711527633407
1780771246474093824,1.0106067657470703,1.2518259286880493,0.1375383585691452,-0.11359106749296188,-0.3357881009578705,0.7777886986732483,-0.5313107967376709,-0.08994737267494202,0.03013366460800171,-0.2944948673248291,0.49667040439579463,-0.09430050047484541,-0.4748178857564896,0.7203984499446886,-0.8911398426167738,-0.5636167905308304,1.6595855339073973
1780771246484127744,1.0206406116485596,1.000163197517395,0.17317651212215424,-0.1606837511062622,-0.3360961675643921,0.7711908221244812,-0.5406515002250671,-0.06183779239654541,-0.021175622940063477,-0.25587254762649536,0.49809386775869935,-0.09167832467557659,-0.4703927538396361,0.7226535811131883,-0.8807096495933934,-0.5561869096215838,1.6671846651849327
1780771246494162688,1.0306756496429443,0.670331597328186,0.17165891826152802,-0.11924096196889877,-0.3362303674221039,0.7661451697349548,-0.5476958155632019,-0.022473245859146118,-0.059770047664642334,-0.1757844090461731,0.4993997838143659,-0.08988773397775024,-0.46698210665021894,0.7241876384606764,-0.872821340525665,-0.5505773042759164,1.6721966576718137
1780771246504197888,1.040710687637329,0.34383198618888855,0.12780757248401642,-0.12127428501844406,-0.33628416061401367,0.7629664540290833,-0.5520825982093811,0.015880107879638672,-0.11747390031814575,-0.13605821132659912,0.5004043358098827,-0.08890180542436797,-0.46481733789026136,0.7250081707175797,-0.8678896611090521,-0.5470978613777358,1.6747532678273924
1780771246514231808,1.0507447719573975,0.05709131807088852,0.10135745257139206,-0.15363755822181702,-0.3367455005645752,0.7614336609840393,-0.553914487361908,0.03170707821846008,-0.1488085389137268,-0.11641937494277954,0.5012522632243274,-0.08849369334391582,-0.46390907296234213,0.7250540991753042,-0.8655218890355834,-0.5462356405521671,1.6744448212066585
1780771246524267008,1.0607798099517822,-0.06906475126743317,0.11478004604578018,-0.1485424041748047,-0.33733129501342773,0.761014461517334,-0.5541341304779053,0.03473427891731262,-0.11977910995483398,-0.10199379920959473,0.5020559119825895,-0.08857047597853755,-0.46377601506946947,0.724573698009479,-0.8648754456166995,-0.5468313095667648,1.6722497489046058
1780771246534301696,1.070814609527588,-0.003804257605224848,0.12868866324424744,-0.13328194618225098,-0.337750107049942,0.7607963681221008,-0.5541785359382629,0.028256118297576904,-0.06125718355178833,-0.10931944847106934,0.502824314216233,-0.08879089672030956,-0.4637099536490707,0.7240559658228011,-0.8645393089902875,-0.5473470020820345,1.6700077548802292
1780771246544335872,1.0808486938476562,0.16327261924743652,0.14468201994895935,-0.11013135313987732,-0.33792129158973694,0.7599610090255737,-0.5552192330360413,0.03019729256629944,-0.01817023754119873,-0.12716907262802124,0.5036373601320233,-0.08882374970232969,-0.4631422289957982,0.7238500636067542,-0.8632530815088648,-0.546738600308335,1.6689542324755653
1780771246554370816,1.090883731842041,0.4630427956581116,0.08150184899568558,-0.040069714188575745,-0.33788278698921204,0.7579856514930725,-0.5579363107681274,0.046195805072784424,0.006342291831970215,-0.11877566576004028,0.5043213234262439,-0.08828071336393051,-0.4617773879434019,0.724312150061576,-0.8602193208624829,-0.544522445848183,1.6703721454886906
1780771246564406016,1.1009187698364258,0.7614660263061523,0.09251321852207184,0.025413690134882927,-0.337491512298584,0.7545015811920166,-0.562873899936676,0.0783209502696991,0.02372729778289795,-0.08925628662109375,0.5048092834043723,-0.08700005026558283,-0.459340884707328,0.725675328449244,-0.8548943170634637,-0.5401152993775041,1.6751261862036864
1780771246574439680,1.110952615737915,0.9877611994743347,0.07027556002140045,0.07427337765693665,-0.33663031458854675,0.7496282458305359,-0.5698575377464294,0.09664008021354675,0.02484685182571411,-0.08566004037857056,0.505195687375577,-0.08517099223117242,-0.45586964753775244,0.727809130304268,-0.8475001784341116,-0.5335733167564953,1.682715901957595
1780771246584474880,1.1209876537322998,0.827165424823761,0.04401759058237076,0.09056047350168228,-0.3356859087944031,0.7445545196533203,-0.5770213603973389,0.11067983508110046,-0.018297195434570312,-0.10982251167297363,0.5054024359339737,-0.08319972502947895,-0.4522909796364492,0.7301227023626856,-0.8398672564278752,-0.52689712804109,1.6909282126447305
1780771246594509824,1.1310226917266846,0.5097008943557739,0.05674776807427406,0.0999784767627716,-0.33472439646720886,0.7410045862197876,-0.5821268558502197,0.10395050048828125,-0.05109375715255737,-0.106181800365448,0.5054349034819441,-0.08189154003731479,-0.44970028054616495,0.731846224258563,-0.8345651648430504,-0.5218361629807028,1.6971340263457557
1780771246604544000,1.141056776046753,0.20150282979011536,0.11976854503154755,0.09641063958406448,-0.3334440588951111,0.7392393946647644,-0.5850984454154968,0.08275744318962097,-0.0823027491569519,-0.0656735897064209,0.5054064533166513,-0.08153546524626913,-0.44811018276219033,0.7328803685418095,-0.8319402550699669,-0.5179884783063948,1.7011290079302053
1780771246614578944,1.1510918140411377,-0.1275128871202469,0.10363538563251495,0.039903681725263596,-0.33225223422050476,0.7392721772193909,-0.5857347249984741,0.08112308382987976,-0.05743318796157837,-0.004643082618713379,0.5054313630183678,-0.08203377148798087,-0.4476640431020396,0.73308020469229,-0.8319889111018621,-0.5159829549406786,1.7022577407422617
1780771246624613888,1.1611266136169434,-0.4688073694705963,-0.008150272071361542,-0.04275071620941162,-0.3319616913795471,0.740958571434021,-0.5837650895118713,0.118537038564682,0.02419334650039673,0.09009760618209839,0.5054146470091433,-0.08293912625404185,-0.4485961955184464,0.732419590320721,-0.8344966520440258,-0.5170537351914123,1.7001638627404678
1780771246634647808,1.1711606979370117,-0.5432791709899902,-0.008773451671004295,-0.08137160539627075,-0.33260577917099,0.7440000772476196,-0.5795146822929382,0.15418478846549988,0.17247331142425537,-0.04545480012893677,0.505434950833783,-0.08415516471414196,-0.4507333674233329,0.7309533735574079,-0.8390370987397431,-0.5210361760381341,1.6949588469631198
1780771246644683008,1.1811957359313965,0.035636890679597855,0.04359814152121544,0.06236638128757477,-0.3326101303100586,0.7454468607902527,-0.5776498913764954,0.11990264058113098,0.24042350053787231,-0.16635334491729736,0.5053732323895591,-0.0848124904067367,-0.4516435337045904,0.7303580298883406,-0.8412050239483007,-0.5224344018022886,1.6929666222027904
1780771246654717952,1.1912307739257812,0.2684597373008728,0.14365750551223755,0.05348234251141548,-0.3315486013889313,0.7446393370628357,-0.5792993307113647,0.057531267404556274,0.0862017273902893,-0.22050535678863525,0.5054377234732312,-0.08487771021797608,-0.45071731343997845,0.730877816993125,-0.8399943750415609,-0.5198230411655135,1.6951273516582268
1780771246664751872,1.2012646198272705,0.29944002628326416,0.1300641894340515,0.06744609773159027,-0.33028629422187805,0.7431751489639282,-0.5818948745727539,0.02215033769607544,-0.05634653568267822,-0.1885061264038086,0.505671460281155,-0.08481210734565703,-0.4492877487745515,0.7316035404065973,-0.8378033459493687,-0.5162588281524372,1.6979870944681907
1780771246674786816,1.2112996578216553,0.40558910369873047,0.11905228346586227,0.03632466122508049,-0.3291477859020233,0.741303563117981,-0.5849193930625916,0.0672612190246582,-0.12048453092575073,-0.15633726119995117,0.505881186842673,-0.08449235310717028,-0.44766208288586823,0.7324915684956269,-0.8350105405021779,-0.5125590752618108,1.7013360653904603
1780771246684821760,1.22133469581604,0.36398279666900635,0.07249543815851212,-0.0045982711017131805,-0.32851773500442505,0.7389798760414124,-0.5882048606872559,0.08385831117630005,-0.13442659378051758,-0.13681650161743164,0.5062418942057058,-0.08385549816454507,-0.44594374392285013,0.7333632589760711,-0.8315549062846507,-0.5093525741497272,1.7043429151951273
1780771246694855936,1.2313687801361084,0.2810328006744385,-0.011398663744330406,0.018291065469384193,-0.3282577097415924,0.7371515035629272,-0.5906391143798828,0.06833949685096741,-0.10467469692230225,-0.1299419403076172,0.5063997404117168,-0.08318962726365013,-0.44470205432902715,0.7340837166558679,-0.8288451293779221,-0.5072600221960378,1.7067708087466482
1780771246704890880,1.2414038181304932,0.14208877086639404,-0.026434604078531265,-0.056137628853321075,-0.32850441336631775,0.7357591390609741,-0.5922358632087708,0.018766283988952637,-0.07329881191253662,-0.15413254499435425,0.5064807444186332,-0.08248643498640088,-0.44393473271643685,0.7345714509727097,-0.8267869312389786,-0.5064331091816869,1.7082525767623404
1780771246714924800,1.2514376640319824,0.03638843446969986,-0.02684779092669487,-0.06335852295160294,-0.32918164134025574,0.7350853681564331,-0.5926964282989502,-0.043117523193359375,0.027426838874816895,-0.1655738353729248,0.5067262283461703,-0.08205186387673685,-0.44375589097936596,0.7345589066037982,-0.8257925579059517,-0.5069771290771335,1.707835546289831
1780771246724959744,1.2614727020263672,0.007317635230720043,-0.010462161153554916,-0.044399213045835495,-0.3296459913253784,0.7347536087036133,-0.5928497314453125,-0.07327759265899658,0.06820964813232422,-0.080230712890625,0.5068542781540408,-0.08179081047043173,-0.4437176924783571,0.7345228517369011,-0.8253033874298422,-0.5074657957008145,1.707477471808526
1780771246734994944,1.271507740020752,-0.03173282742500305,0.03604089096188545,-0.0802895650267601,-0.33003607392311096,0.7346523404121399,-0.592758059501648,-0.10923391580581665,0.007596135139465332,-0.031707823276519775,0.507126892002824,-0.08175466566978691,-0.44377601140158474,0.7343032710101451,-0.825154090270015,-0.5080339789488444,1.706478063809632
1780771246745028864,1.2815418243408203,0.017239240929484367,0.05060545355081558,-0.06581155955791473,-0.3303183913230896,0.7344686985015869,-0.5928284525871277,-0.1039925217628479,-0.002901315689086914,-0.01019895076751709,0.5074856250801062,-0.08177424427839787,-0.44373274817122166,0.7340794485290406,-0.8248834465318455,-0.5083470094148895,1.7054700672152776
1780771246755063808,1.291576623916626,0.08372452855110168,0.10198356211185455,-0.07505565881729126,-0.33036789298057556,0.7339600324630737,-0.5934305787086487,-0.07682815194129944,0.03285515308380127,0.008530676364898682,0.5079291618153808,-0.08178391220629297,-0.4433915949850871,0.7339777636044501,-0.8241341972659761,-0.5079791658578651,1.7049214388080065
1780771246765098752,1.3016116619110107,0.18391264975070953,0.11091926693916321,-0.0683029443025589,-0.3302665650844574,0.7328639626502991,-0.594839870929718,-0.0639289915561676,0.012558400630950928,0.014258146286010742,0.5085051394099097,-0.08165708296293896,-0.44261969396123646,0.7340589398141667,-0.8225218746626242,-0.5068415012208751,1.7049789238006179
1780771246775132928,1.311645746231079,0.10180153697729111,0.06343124061822891,-0.06953785568475723,-0.33017438650131226,0.7317456007003784,-0.5962661504745483,-0.030177175998687744,-0.07403075695037842,-0.01242220401763916,0.5090209685892526,-0.08148018336725187,-0.4418460303246225,0.7341871659245075,-0.8208795775430056,-0.5057074733629585,1.705212733843269
1780771246785167872,1.3216807842254639,-0.08058531582355499,-0.026447253301739693,-0.03366933763027191,-0.33046451210975647,0.7314720153808594,-0.5964411497116089,-0.00628170371055603,-0.13561630249023438,-0.024561047554016113,0.5092676052865049,-0.08138664322767585,-0.4417642415673198,0.7340757448684868,-0.8204782100737479,-0.5059553799238046,1.7046252039069352
1780771246795203072,1.3317158222198486,-0.27092039585113525,-0.09271269291639328,-0.012198666110634804,-0.3309832811355591,0.7324668765068054,-0.5949305295944214,-0.006708979606628418,-0.14215010404586792,-0.03779041767120361,0.5091364818765809,-0.0815703613202138,-0.44258447348111474,0.7336520409760656,-0.8219384370705289,-0.507697268817832,1.7030821211355998
1780771246805236736,1.341749668121338,-0.30647093057632446,-0.10767167061567307,0.023177966475486755,-0.33161407709121704,0.7342735528945923,-0.5923466086387634,-0.03325408697128296,-0.08044970035552979,-0.0540003776550293,0.5087682811411799,-0.08195019009173121,-0.4439716872292642,0.7330267330826481,-0.8245959415943285,-0.5103597441184806,1.7009232305414952
1780771246815271936,1.3517847061157227,-0.13299712538719177,-0.05294637382030487,0.029605770483613014,-0.33184003829956055,0.7356623411178589,-0.5904939770698547,-0.04593706130981445,0.006631970405578613,-0.014104962348937988,0.5083805122409469,-0.08228210526289945,-0.4449524169943672,0.7326638284550063,-0.8266439756742939,-0.5119869067354612,1.699792520528807
1780771246825306880,1.3618197441101074,-0.10211537778377533,-0.02326224558055401,0.012103743851184845,-0.3319406509399414,0.736423671245575,-0.5894875526428223,-0.029112815856933594,0.10000211000442505,0.034876346588134766,0.508180595130851,-0.0824814758159268,-0.44548065829456307,0.7324591013605017,-0.8277687164417684,-0.5128453633934524,1.699155022168743
1780771246835341056,1.3718538284301758,0.08531736582517624,0.006554106250405312,0.020890044048428535,-0.33185288310050964,0.7365255951881409,-0.5894096493721008,-0.0007429122924804688,0.16189664602279663,0.09972459077835083,0.5080919567701706,-0.08251018109502324,-0.44551906715852646,0.7324939775593051,-0.8279193371564191,-0.5127888447746575,1.699342641564376
1780771246845375744,1.3818886280059814,0.0678238570690155,0.04740193858742714,0.022255446761846542,-0.33154207468032837,0.736072838306427,-0.5901495814323425,-0.003647744655609131,0.111125648021698,0.0750281810760498,0.5081140572428102,-0.08243110667384478,-0.4451183153713606,0.7327310789318021,-0.8272502662881689,-0.5118524448256933,1.7002447968893784
1780771246855410688,1.3919236660003662,-0.025032581761479378,0.07999476790428162,0.04588913545012474,-0.33091095089912415,0.7360488772392273,-0.5905337333679199,-0.015417754650115967,0.016239941120147705,0.07240629196166992,0.5081509710732028,-0.08268938830072406,-0.44485459699545576,0.7328366402098253,-0.8272148517482677,-0.5107616874695424,1.7008277633690685
1780771246865444864,1.4019577503204346,-0.15385180711746216,0.08717917650938034,0.05358327552676201,-0.3300141990184784,0.7367311716079712,-0.5901846289634705,-0.009066611528396606,-0.07405716180801392,0.06273406744003296,0.5081185393621251,-0.08334385488894039,-0.44492862444642817,0.7327400369165963,-0.828223290754479,-0.5098570997285502,1.7008731921721816
1780771246875480064,1.4119927883148193,-0.2707163989543915,0.04689633846282959,0.052420806139707565,-0.32923299074172974,0.7381944060325623,-0.5887908339500427,0.011773854494094849,-0.10641950368881226,0.046752870082855225,0.5079970935080924,-0.08426994485172154,-0.44553692429815517,0.7323485370188412,-0.8303898324529012,-0.5098546987313889,1.6999322113320747
1780771246885515008,1.422027826309204,-0.24453191459178925,0.003995208069682121,0.07195642590522766,-0.328624963760376,0.739960253238678,-0.5869109034538269,0.027538567781448364,-0.08815056085586548,0.032711684703826904,0.5077076694073325,-0.08517206987405176,-0.4464193921353564,0.7319073268029985,-0.8330112976021318,-0.5104297910203647,1.6988276276759282
1780771246895548928,1.4320616722106934,-0.23505105078220367,-0.002368282526731491,0.08027907460927963,-0.3281116485595703,0.7415911555290222,-0.5851370096206665,0.0046253204345703125,-0.05575436353683472,-0.040503859519958496,0.5073267750633841,-0.08591931172501825,-0.4472687767113221,0.7315655177730851,-0.8354391130119637,-0.5110539576234177,1.6980534273534467
1780771246905583872,1.4420967102050781,-0.13160748779773712,0.02320552058517933,0.09869243204593658,-0.3273775279521942,0.7430040240287781,-0.5837541222572327,-0.044906407594680786,-0.012840449810028076,-0.06869637966156006,0.5069404274718157,-0.08664712534234323,-0.4479008818199553,0.7313606230249171,-0.8375476014121772,-0.5111078264093446,1.6978280439510598
1780771246915618816,1.452131748199463,0.07619550824165344,0.05539102107286453,0.10866011679172516,-0.326365202665329,0.7435587644577026,-0.5836146473884583,-0.08211258053779602,0.03308308124542236,-0.05856674909591675,0.5066324239681885,-0.08712109301753179,-0.4478868104197681,0.7315263562294688,-0.8383768600063669,-0.5098894157913034,1.6989252450976378
1780771246925652992,1.4621658325195312,0.18266069889068604,0.10645473748445511,0.10468374937772751,-0.32509735226631165,0.7430933117866516,-0.5849137306213379,-0.06784695386886597,0.07273310422897339,-0.053895413875579834,0.5065010329364193,-0.0873147602078801,-0.4471233202745904,0.7320611822439502,-0.8376810187694652,-0.5072882793540598,1.701286577576138
1780771246935688704,1.4722015857696533,0.30341267585754395,0.100112684071064,0.10769205540418625,-0.3236789405345917,0.7419822216033936,-0.5871067643165588,-0.023778945207595825,0.10764241218566895,-0.010061264038085938,0.5064538532613252,-0.08731241867905455,-0.44589591347853447,0.7328423517554228,-0.8360222586961795,-0.5038498590579547,1.7044879747223365
1780771246945723648,1.482236623764038,0.27966073155403137,0.07113189995288849,0.10021842271089554,-0.3223955035209656,0.7405340671539307,-0.5896359086036682,0.016929835081100464,0.07370543479919434,0.014989912509918213,0.5064033883078067,-0.08709831585239826,-0.44451763573021835,0.733739538314674,-0.833864771451322,-0.500360362951131,1.7080077932760485
1780771246955757824,1.4922707080841064,0.15981850028038025,0.027117837220430374,0.08271932601928711,-0.3214285671710968,0.7394781708717346,-0.5914860367774963,0.03708106279373169,-0.01431947946548462,0.031045973300933838,0.5062691357787579,-0.08689856788589809,-0.44351507003362833,0.7344621195422356,-0.83229484585203,-0.4977815634672456,1.7108476586256838
1780771246965792768,1.5023057460784912,-0.027242738753557205,0.012090418487787247,0.05258166044950485,-0.3208255171775818,0.7393066883087158,-0.5920274257659912,0.033792465925216675,-0.0860474705696106,0.034028828144073486,0.5060825931683435,-0.08694307392457314,-0.4432010633822455,0.7347748019214464,-0.8320401760062622,-0.4966107872397298,1.7122096109458333
1780771246975827968,1.512340784072876,-0.14218050241470337,0.032274916768074036,0.03934521600604057,-0.32035303115844727,0.7399939298629761,-0.5914244055747986,0.012003421783447266,-0.09798043966293335,0.020410001277923584,0.5059279885309816,-0.08736070720030689,-0.44345903359686184,0.7346760967419894,-0.8330613746491023,-0.49642033745625697,1.7121524825320946
1780771246985861888,1.5223746299743652,-0.1164860650897026,0.06149937957525253,0.02555457130074501,-0.319846510887146,0.7409037351608276,-0.5905588865280151,-0.021584153175354004,-0.07583421468734741,0.011869370937347412,0.5058458200288017,-0.08794116385273518,-0.4438320721075534,0.7344381462713292,-0.8344150043405625,-0.4963709635789014,1.7116194371210576
1780771246995896832,1.53240966796875,-0.020724918693304062,0.0748336985707283,0.010537272319197655,-0.3192875385284424,0.7413753271102905,-0.5902696251869202,-0.03460955619812012,-0.05060988664627075,-0.03735494613647461,0.5059111000620751,-0.08842448392887017,-0.4438989766161418,0.7342948732241696,-0.8351174573878056,-0.4958438514124952,1.7113525098073694
1780771247005931776,1.5424447059631348,0.03250101953744888,0.03587537631392479,0.005032251589000225,-0.3188881576061249,0.7413290739059448,-0.5905433893203735,-0.023885250091552734,-0.0552634596824646,-0.09198218584060669,0.5060153517419448,-0.08862330051155268,-0.4437050982392057,0.7343160760260501,-0.8350485171231524,-0.495126343762722,1.711541482840833
1780771247015965952,1.5524787902832031,-0.032179441303014755,-0.0014020875096321106,-0.025561610236763954,-0.3188582956790924,0.7412712574005127,-0.5906320810317993,-0.019825756549835205,-0.09217768907546997,-0.10829669237136841,0.5060875949854299,-0.0886513529731941,-0.4436495300065934,0.7342964872451989,-0.8349624119454215,-0.4950244277828955,1.7114563937292004
1780771247026000640,1.5625135898590088,-0.11772150546312332,-0.022982746362686157,-0.045537449419498444,-0.3192158639431,0.7416114211082458,-0.5900115966796875,-0.04441630840301514,-0.11093515157699585,-0.10455322265625,0.5061561867998008,-0.08871298003619099,-0.44398672675217554,0.7340379130712767,-0.8354693213059123,-0.4959328804071964,1.7104254711341143
1780771247036035840,1.5725486278533936,-0.10234041512012482,-0.027182286605238914,-0.05206751823425293,-0.31972458958625793,0.7421539425849915,-0.5890530943870544,-0.07148021459579468,-0.09145820140838623,-0.0991639494895935,0.50622815246283,-0.08881361693209669,-0.44450599486519,0.7336617079660356,-0.836278432710471,-0.49728095729393984,1.7089415007907078
1780771247046069760,1.582582712173462,0.008486762642860413,0.025171466171741486,-0.06228393688797951,-0.3201829195022583,0.7422536611557007,-0.5886785387992859,-0.0838545560836792,-0.054326415061950684,-0.1375330090522766,0.5064061419094315,-0.08878829172607736,-0.4447216708399078,0.7334112598728917,-0.8364271598707934,-0.4981486915555663,1.7078437537499171
1780771247056104960,1.5926177501678467,0.10321327298879623,0.06140470504760742,-0.05771395564079285,-0.32037079334259033,0.7416951656341553,-0.5892798900604248,-0.08748137950897217,-0.021953344345092773,-0.1522972583770752,0.5067833493285815,-0.08867727955162731,-0.4444056500755081,0.73335566389443,-0.8355941164549217,-0.49796639046498326,1.7074119381757287
1780771247066139904,1.6026527881622314,0.23318299651145935,0.08229614049196243,-0.029220793396234512,-0.3203023374080658,0.7405763268470764,-0.5907225608825684,-0.06933087110519409,-0.001577913761138916,-0.12094736099243164,0.5071722828024183,-0.08840816590655998,-0.4436470749964965,0.7335785939851527,-0.8339276342095567,-0.49685144604210524,1.707998568652835
1780771247076173824,1.6126866340637207,0.3185594081878662,0.10704595595598221,-0.04817504435777664,-0.3199906349182129,0.738784909248352,-0.5931298732757568,-0.02281332015991211,-0.01438915729522705,-0.12537598609924316,0.5076403383710575,-0.08796506905200817,-0.4423767831350145,0.734075198455559,-0.8312655731802878,-0.4947422669788506,1.709544600163879
1780771247086208768,1.6227216720581055,0.4302544891834259,0.08881369233131409,-0.05639222636818886,-0.31979477405548096,0.7363814115524292,-0.5962162017822266,-0.012678980827331543,-0.0031965970993041992,-0.11404991149902344,0.5082274442779491,-0.08726243791321246,-0.44076884176415343,0.7347196774624202,-0.8277062191954115,-0.49232153450385496,1.7114609616208616
1780771247096243968,1.6327567100524902,0.4803245961666107,0.09543750435113907,-0.06042558327317238,-0.3197040259838104,0.7333905100822449,-0.5999398231506348,0.0007953643798828125,0.021934807300567627,-0.14081335067749023,0.5088228413281974,-0.08625311537061944,-0.4388513203868091,0.7355741591646909,-0.8232960546355071,-0.4896148149646697,1.7139989720615427
1780771247106277888,1.6427907943725586,0.5086111426353455,0.09655816107988358,-0.05244089663028717,-0.3195786476135254,0.7302761077880859,-0.6037933230400085,-0.02250811457633972,0.013360977172851562,-0.17362672090530396,0.5094668866786537,-0.08523652293767872,-0.43685017996547687,0.7364375526324297,-0.8187260584862232,-0.48680009283995734,1.7165371156880405
1780771247116312832,1.6528255939483643,0.636646032333374,0.08912967890501022,-0.01061302050948143,-0.31925636529922485,0.7266517281532288,-0.6083195209503174,-0.05493488907814026,-0.021894097328186035,-0.18741101026535034,0.5100336818531609,-0.08402529574075278,-0.43448819760227714,0.7375807219236032,-0.8134355458468449,-0.48330344475824266,1.7200695231950154
1780771247126347776,1.662860631942749,0.7834045886993408,0.11790619790554047,0.03144335374236107,-0.31854909658432007,0.7223519682884216,-0.6137866377830505,-0.06884101033210754,-0.021576881408691406,-0.1766338348388672,0.5105085441931586,-0.08261688935754602,-0.4316029632022514,0.7391037078968437,-0.8071974182133022,-0.47872388915937775,1.724979543177112
1780771247136381952,1.6728947162628174,0.9550304412841797,0.2080806940793991,0.04763563722372055,-0.31725165247917175,0.7170665264129639,-0.6206182241439819,-0.08423757553100586,0.006612062454223633,-0.14457952976226807,0.511066858646301,-0.08106608398610399,-0.42792428086554174,0.7410261182233309,-0.7995844539598882,-0.47255673246658053,1.7312865419686092
1780771247146416896,1.6829297542572021,1.0560020208358765,0.282938688993454,0.06768258661031723,-0.3152998685836792,0.7109188437461853,-0.6286337971687317,-0.0962449312210083,0.025104105472564697,-0.08695763349533081,0.5117954532592003,-0.07951849183521974,-0.42350905272567463,0.7432243329621396,-0.7908039106677417,-0.4648977517285416,1.7385311495794424
1780771247156451840,1.692964792251587,1.074346661567688,0.35757526755332947,0.1059785783290863,-0.3126707971096039,0.7043087482452393,-0.6373274922370911,-0.08742988109588623,0.030646085739135742,-0.01776289939880371,0.5125789625157824,-0.07810588927932383,-0.41861167951613154,0.7456049154519779,-0.7814488999265014,-0.45609678692202027,1.746448832710437
1780771247166485760,1.7029986381530762,0.5187036991119385,0.43360796570777893,0.20579969882965088,-0.30900007486343384,0.6992817521095276,-0.6446115374565125,-0.07927504181861877,-0.028123974800109863,0.05324190855026245,0.5132037745514243,-0.07774543972063612,-0.414306517568309,0.7476146613890133,-0.7743922544169848,-0.44699855596269106,1.7535916756929217
1780771247176520704,1.713033676147461,-0.36329105496406555,0.2146335244178772,0.19105590879917145,-0.3052876889705658,0.6995370984077454,-0.6461015343666077,-0.062418609857559204,-0.19137370586395264,0.047575533390045166,0.5131170133793027,-0.0793004984145292,-0.4131109655919504,0.7481721501078059,-0.7747495246380016,-0.44141254693948995,1.756725789153173
1780771247186555904,1.7230687141418457,-0.852019190788269,-0.054692208766937256,0.127895325422287,-0.30373960733413696,0.7041362524032593,-0.6418212056159973,-0.015687882900238037,-0.3759196996688843,-0.14339607954025269,0.5124708941303574,-0.08155569275971872,-0.41525662646064077,0.747184232591039,-0.7812059659730108,-0.4420166332228835,1.754732192333479
1780771247196589824,1.733102798461914,-0.7056244015693665,-0.22604770958423615,0.15629073977470398,-0.30370405316352844,0.709753692150116,-0.6356205940246582,-0.024405688047409058,-0.34410732984542847,-0.2525019645690918,0.5112998825051868,-0.08336950980006556,-0.418615853531368,0.7459106633037661,-0.789148511927799,-0.4457362271106756,1.7515885402075906
1780771247206624768,1.7431375980377197,-0.20923809707164764,-0.2734580934047699,0.2202521413564682,-0.3040282726287842,0.7132992744445801,-0.6314830780029297,-0.06399843096733093,-0.07595497369766235,-0.33172792196273804,0.5098844846190626,-0.08400295832765134,-0.4209536299183687,0.7454926410760976,-0.7941944755653197,-0.44869874029586054,1.7510239947752348
1780771247216659712,1.7531726360321045,0.5655723810195923,-0.3499503433704376,0.32977649569511414,-0.3040073812007904,0.7130345106124878,-0.6317920684814453,-0.11280167102813721,0.16506296396255493,-0.3234691023826599,0.508297687732197,-0.08299948823727799,-0.42096918269178074,0.7466789151502546,-0.7938167895792426,-0.4484807345117609,1.7556025101756174
1780771247226693888,1.7632067203521729,1.3491039276123047,-0.2652099132537842,0.39175572991371155,-0.30347132682800293,0.7079943418502808,-0.6376904845237732,-0.12230992317199707,0.24082767963409424,-0.29407215118408203,0.5066432203535928,-0.08009221249203956,-0.41801911935461455,0.749771882399035,-0.786654117507849,-0.4441752593295041,1.7662348985523817
1780771247236728832,1.7732417583465576,1.9481165409088135,-0.17265759408473969,0.4414425790309906,-0.3019023537635803,0.6984716057777405,-0.6488392353057861,-0.12908214330673218,0.19557136297225952,-0.26262927055358887,0.505302655446518,-0.07592646265876225,-0.412086822444191,0.7543797331127954,-0.7732595200435158,-0.43550109253154123,1.7815471328563206
1780771247246764032,1.7832767963409424,2.343684434890747,-0.18547965586185455,0.48495224118232727,-0.299854040145874,0.6855965852737427,-0.663358747959137,-0.11623784899711609,0.12151700258255005,-0.17659181356430054,0.5039805884172902,-0.07071353594555951,-0.40412897370704787,0.7600545029344185,-0.7554228972122522,-0.42453576494393297,1.7999542622739089
1780771247256797696,1.7933106422424316,2.5196709632873535,-0.17482313513755798,0.536328136920929,-0.29765552282333374,0.670629620552063,-0.6794534921646118,-0.09251168370246887,0.060220539569854736,-0.10907489061355591,0.502506541200042,-0.06484414013480887,-0.395055055851836,0.766298810074048,-0.7350572813145546,-0.41289782897078464,1.8198432574015806
1780771247266832896,1.8033456802368164,2.4771475791931152,-0.13157448172569275,0.6090843677520752,-0.2949182391166687,0.654951810836792,-0.6957451701164246,-0.0875280499458313,0.010133028030395508,-0.04548102617263794,0.5007865578864519,-0.059032404278729356,-0.38554194548485393,0.7727129657697094,-0.7141188201969142,-0.4009286546636253,1.8402186057828238
1780771247276867840,1.8133807182312012,2.3567426204681396,-0.09134969115257263,0.6645848751068115,-0.29156041145324707,0.6397026181221008,-0.7111771702766418,-0.09415122866630554,-0.029702067375183105,0.01626145839691162,0.498774141072527,-0.053733094378853846,-0.37619697324354673,0.7789819311138261,-0.6941113363935125,-0.3890704828458641,1.8602681109308492
1780771247286901760,1.8234145641326904,2.395855665206909,-0.13712435960769653,0.7226423621177673,-0.28790202736854553,0.6247371435165405,-0.7258208394050598,-0.09108048677444458,-0.0397915244102478,0.02197873592376709,0.4964995644355601,-0.048757562791819545,-0.3670317167359976,0.7851105344526425,-0.6747948633262122,-0.37762128938394146,1.8799239928955538
1780771247296936704,1.8334496021270752,2.633605718612671,-0.16731195151805878,0.7775018811225891,-0.2846134603023529,0.6082910299301147,-0.7409299612045288,-0.0641109049320221,-0.019225478172302246,0.02356851100921631,0.4937829710933223,-0.04311572628241276,-0.35731787908358836,0.791608041821919,-0.6539056868525321,-0.36675097791613,1.900539353585327
1780771247306971904,1.84348464012146,2.9378397464752197,0.06833198666572571,0.8178037405014038,-0.28018084168434143,0.5896313190460205,-0.7575180530548096,-0.03892621397972107,0.05296206474304199,-0.0027968883514404297,0.49110340461662644,-0.037467654735957784,-0.3461750253852275,0.7984838715538817,-0.6306023106440515,-0.3542628146370615,1.9221298321578955
1780771247317005824,1.8535187244415283,3.2263972759246826,0.16837923228740692,0.8951004147529602,-0.27427271008491516,0.5682139992713928,-0.7758269309997559,-0.05417272448539734,0.10656017065048218,-0.01065683364868164,0.4884111067492214,-0.0318182919692155,-0.3332778654488336,0.8058338312432967,-0.6043337678814295,-0.3398099517783364,1.9449637869466345
1780771247327041024,1.863553762435913,3.486863136291504,0.21035757660865784,0.9351125359535217,-0.26761752367019653,0.5442610383033752,-0.7950853705406189,-0.03845852613449097,0.09561622142791748,0.017146587371826172,0.48548649496455165,-0.025911934798454272,-0.3190389913417409,0.8135388683257199,-0.5755079982824668,-0.3246783695870639,1.9686549531505044
1780771247337075968,1.8735888004302979,3.7144041061401367,0.23750023543834686,0.9551975727081299,-0.2608835697174072,0.5175284147262573,-0.8149258494377136,-0.013515233993530273,0.049915432929992676,0.05607575178146362,0.4823769081759911,-0.019472788787515714,-0.303575178328512,0.8214471964932087,-0.5439599155062751,-0.3098223851895513,1.9925922231719677
1780771247347109888,1.883622646331787,3.822695255279541,0.3110692799091339,1.0021849870681763,-0.25368040800094604,0.48878535628318787,-0.8347066044807434,0.016940295696258545,0.045409590005874634,0.08374530076980591,0.4790371719114051,-0.012943790803967936,-0.2871918542999473,0.8293832999417354,-0.5106969293646174,-0.2950452757448423,2.016501528023033
1780771247357144832,1.8936576843261719,3.830415964126587,0.35182908177375793,0.9897502064704895,-0.24612100422382355,0.4587949216365814,-0.8537749648094177,0.03164346516132355,0.07028833031654358,0.07173150777816772,0.4755161351360317,-0.006544100308506426,-0.2703140735272136,0.8371211955866569,-0.4766384917347751,-0.28066444990488143,2.0398130577139524
1780771247367179776,1.9036927223205566,3.861922025680542,0.3794766664505005,0.9641007781028748,-0.23868197202682495,0.4278402030467987,-0.871770441532135,0.03465670347213745,0.0878305733203888,0.05936199426651001,0.4719465264024011,-0.00018955189499555254,-0.2532088976906592,0.8444831113359323,-0.4421018689177026,-0.26724087711510264,2.061958092548758
1780771247377213696,1.913726568222046,3.9191830158233643,0.44500309228897095,0.9882431030273438,-0.23100203275680542,0.39578065276145935,-0.8888170719146729,0.04876631498336792,0.11149778962135315,0.05269646644592285,0.4682595394248994,0.006026146498470061,-0.2357014194620751,0.851552447518711,-0.40691774643579054,-0.254272790309115,2.083344141131711
1780771247387248640,1.9237616062164307,3.9556267261505127,0.48379629850387573,1.0115936994552612,-0.22303183376789093,0.36258435249328613,-0.904869794845581,0.05814535915851593,0.11872363090515137,0.044182538986206055,0.46431488599880605,0.01212507643368901,-0.21775691795167681,0.8583976900572508,-0.3710394711044589,-0.24166248828434725,2.104350545870055
1780771247397283840,1.9337966442108154,3.9762978553771973,0.550165057182312,1.0175458192825317,-0.21480639278888702,0.3284384608268738,-0.9197751879692078,0.05968552827835083,0.09838038682937622,0.044958293437957764,0.4601714465055471,0.018053001071193765,-0.19946552746601437,0.86494499436908,-0.3346498535701242,-0.22943007457443132,2.124800292269632
1780771247407317760,1.9438307285308838,3.9944357872009277,0.5869555473327637,1.0363608598709106,-0.20630942285060883,0.2935710549354553,-0.9334090352058411,0.058909520506858826,0.05072823166847229,0.08758383989334106,0.4558348637142864,0.023744850825919775,-0.18091893035761755,0.8711596150711454,-0.29796037985913115,-0.2175305202061597,2.1446672080123546
1780771247417352960,1.9538657665252686,3.931878089904785,0.6302700638771057,1.029381275177002,-0.19775398075580597,0.25810572504997253,-0.9456610679626465,0.06755074858665466,0.024715930223464966,0.09695196151733398,0.45128617555105444,0.029273070350843113,-0.16221149096452092,0.8770241290987165,-0.26106097152443486,-0.20614652752578294,2.1639721538633414
1780771247427387648,1.9639005661010742,3.6911332607269287,0.7038094997406006,1.0020809173583984,-0.18892942368984222,0.22365885972976685,-0.9561811685562134,0.07419858872890472,0.058994948863983154,0.10243666172027588,0.44669574487143526,0.034145966825393344,-0.14402596400642664,0.8823567899432588,-0.22556681929202996,-0.19507475469595797,2.1821533591805244
1780771247437421824,1.9739346504211426,3.5133299827575684,0.71428382396698,0.9281419515609741,-0.18008878827095032,0.19079533219337463,-0.9649689793586731,0.07735136151313782,0.06916865706443787,0.1356995701789856,0.44222652695776715,0.03836159485433505,-0.12666447511469303,0.8870852206095208,-0.1919723047193272,-0.18450398558803183,2.1988580899021795
1780771247447456768,1.9839696884155273,3.266704797744751,0.738115668296814,0.8432515859603882,-0.1715223789215088,0.1592443585395813,-0.9722249507904053,0.08767533302307129,0.0227319598197937,0.11356711387634277,0.4380345808420778,0.04213833709396354,-0.1100540629672242,0.8912004073715484,-0.15992519217826134,-0.17462558742943285,2.213897510583667
1780771247457491968,1.994004726409912,2.9436919689178467,0.7504940629005432,0.8010367155075073,-0.1629946231842041,0.13030053675174713,-0.9779849052429199,0.0821535736322403,0.012628525495529175,0.1204867959022522,0.4340618787216402,0.04513756232545835,-0.09471080539379102,0.8947528417870104,-0.130672092234829,-0.16514582872406922,2.2274180084647
1780771247467525632,2.0040385723114014,2.7966864109039307,0.7082880139350891,0.7543736100196838,-0.15492641925811768,0.10330940783023834,-0.9825095534324646,0.07329189777374268,0.013954386115074158,0.0584067702293396,0.43021334277925993,0.04774694003262481,-0.08040812395830993,0.8978703893385949,-0.10349406135700795,-0.15639664747130969,2.2398202919107755
1780771247477560832,2.014073610305786,2.6078357696533203,0.7101852297782898,0.6985697746276855,-0.14727015793323517,0.07768496125936508,-0.9860408306121826,0.08174893260002136,0.03857175260782242,-0.016385257244110107,0.4265310748933796,0.05009835422550246,-0.06685605556672292,0.9006062892193245,-0.07776330895015231,-0.14825910675029058,2.2511966094365423
1780771247487595776,2.024108648300171,2.5774927139282227,0.6713238954544067,0.6062638163566589,-0.13998092710971832,0.05311661586165428,-0.9887284636497498,0.10914291441440582,0.10682600736618042,-0.012980520725250244,0.4231165766631981,0.052255821373801095,-0.05389897037464611,0.9029599548452039,-0.05314162395520957,-0.14064200746222907,2.261440545361276
1780771247497629952,2.0341427326202393,2.7226436138153076,0.6511896848678589,0.5351715087890625,-0.13324324786663055,0.027565034106373787,-0.9906999468803406,0.12184493243694305,0.14099881052970886,-0.009254276752471924,0.41999753839814824,0.054755874987582574,-0.04064252775279254,0.9049596953871407,-0.027568525643628633,-0.13369179401916578,2.270701655693634
1780771247507664896,2.044177770614624,2.8402109146118164,0.6564755439758301,0.5138622522354126,-0.1266767680644989,0.0006003620219416916,-0.991943895816803,0.1124860942363739,0.18839499354362488,0.04028373956680298,0.4169425287880954,0.0575364214294961,-0.02678854980319875,0.9067143329905711,-0.0006003620727859718,-0.12701805756490803,2.279542940034169
1780771247517699840,2.0542125701904297,2.9344115257263184,0.663953423500061,0.44340506196022034,-0.12018843740224838,-0.027614369988441467,-0.9923669695854187,0.08532210439443588,0.21943260729312897,0.0517846941947937,0.4139584742206361,0.06052397790489269,-0.012384127349271652,0.9081971264025752,0.027617880128023138,-0.12052587673632079,2.287921719066101
1780771247527733760,2.064246654510498,2.8021535873413086,0.672329843044281,0.38252201676368713,-0.11369986832141876,-0.055821921676397324,-0.9919456839561462,0.05486198514699936,0.19641640782356262,0.021822452545166016,0.4112172022190436,0.06342800817002425,0.0020105800358687265,0.9093257025870268,0.055850952050736855,-0.11412500632604981,2.2953833004209776
1780771247537768960,2.074281692504883,2.590850353240967,0.648970365524292,0.35368478298187256,-0.10736601799726486,-0.08226072788238525,-0.9908106327056885,0.04782622307538986,0.17810118198394775,0.026607751846313477,0.40862608423964064,0.06597133369232551,0.015571355689181193,0.9101812536082374,0.08235378527035034,-0.10794061985404221,2.302082860753137
1780771247547803904,2.0843167304992676,2.322155714035034,0.609748899936676,0.3112126886844635,-0.1014571413397789,-0.10632100701332092,-0.9891421794891357,0.040772944688797,0.11724631488323212,0.011999905109405518,0.40621952326089183,0.0681685032879872,0.027963467836304608,0.9108000675803415,0.10652234804407443,-0.10221338080054748,2.3079964920730616
1780771247557838848,2.0943517684936523,2.056797981262207,0.5704848766326904,0.28392326831817627,-0.09598398208618164,-0.12770390510559082,-0.9871569275856018,0.01714181900024414,0.05034184455871582,0.022603094577789307,0.4040049131024808,0.06997809550738632,0.03904619142342019,0.9112400813199392,0.1280535756750011,-0.09692805930274476,2.3131797558390192
1780771247567872768,2.1043856143951416,1.8746957778930664,0.5423152446746826,0.25036051869392395,-0.09083374589681625,-0.14683252573013306,-0.9849819540977478,-0.011201776564121246,0.008877813816070557,0.0354580283164978,0.40197427027879695,0.07144730587740691,0.04903374431827132,0.9115413793712522,0.1473653298176654,-0.09195859711699682,2.3177251737165614
1780771247577907712,2.1144206523895264,1.8962881565093994,0.5285896062850952,0.2415854036808014,-0.08595124632120132,-0.16510330140590668,-0.9825239181518555,-0.04634244740009308,0.02182328701019287,0.059840261936187744,0.4000257401663049,0.07284119553896742,0.05858491758718356,0.9117244216835498,0.1658627544022762,-0.08725791522967277,2.321919801978188
1780771247587941888,2.1244547367095947,2.0590147972106934,0.5779020190238953,0.2132006287574768,-0.08092613518238068,-0.18431822955608368,-0.9795293807983398,-0.07764320820569992,0.07700316607952118,0.08832454681396484,0.39807667830602933,0.07433973878429866,0.06862161915477351,0.9117563984563541,0.18537816579661365,-0.08243015769411513,2.3259427287280316
1780771247597976832,2.1344897747039795,2.2562944889068604,0.6143423318862915,0.15591897070407867,-0.07543068379163742,-0.20539899170398712,-0.9757671356201172,-0.10291404277086258,0.14772076904773712,0.08215141296386719,0.39618724556487805,0.07598826859451405,0.07963808079682813,0.9115477331397762,0.20687137200467579,-0.07715054516403433,2.3296050307300376
1780771247608011776,2.144524574279785,2.415905475616455,0.5858203768730164,0.11239732801914215,-0.06982117891311646,-0.22814887762069702,-0.9711195230484009,-0.10728759318590164,0.18759101629257202,0.02563917636871338,0.39442229296499937,0.07792362249856023,0.09147763233387371,0.9110383154112449,0.23017599851447781,-0.07177411219368739,2.332744787347881
1780771247618045696,2.1545586585998535,2.4191269874572754,0.564396858215332,0.08221971988677979,-0.0644877478480339,-0.2516807019710541,-0.9656594395637512,-0.0872456505894661,0.16189798712730408,-0.03147190809249878,0.39273414481894536,0.0801485643719467,0.10366525613174768,0.9102690612105419,0.2544164714204884,-0.06668203374661125,2.3354848073070613
1780771247628080896,2.1645936965942383,2.369189500808716,0.5308349132537842,0.040263209491968155,-0.0593794621527195,-0.27473095059394836,-0.9596858620643616,-0.0744553804397583,0.12130382657051086,-0.05589336156845093,0.39117553656494175,0.08239162281345797,0.11562300245240144,0.909299011384097,0.2783098618590558,-0.061795074101112034,2.33772583653498
1780771247638115840,2.174628734588623,2.3847708702087402,0.4961602985858917,0.033816494047641754,-0.05458031967282295,-0.29751139879226685,-0.9531568288803101,-0.07528723776340485,0.08408671617507935,-0.07993948459625244,0.3897157034822049,0.08474018065889698,0.1274389195823483,0.9081300947196931,0.3020849528742374,-0.05720021933422089,2.339555602849392
1780771247648149760,2.1846625804901123,2.4279510974884033,0.4704991281032562,0.03631347417831421,-0.05010103061795235,-0.32040420174598694,-0.9459550976753235,-0.07874418795108795,0.10002151131629944,-0.07937449216842651,0.38818228101696667,0.08726151948031906,0.1393121671191595,0.9068032490845618,0.3261561545626207,-0.05291399304035748,2.341351859871456
1780771247658184704,2.194697618484497,2.519679307937622,0.44361811876296997,0.013115745037794113,-0.04587831348180771,-0.34372204542160034,-0.937950074672699,-0.08141051232814789,0.15329235792160034,-0.06812292337417603,0.38663628200661565,0.09000592466381872,0.15140639126833705,0.9052555270649203,0.35087758765034377,-0.04887443211962,2.3429588534861714
1780771247668219904,2.204732656478882,2.5841946601867676,0.44185084104537964,-0.009702751412987709,-0.04174836352467537,-0.3676871061325073,-0.9290120005607605,-0.08354155719280243,0.17396152019500732,-0.045093834400177,0.3851082382641678,0.0929575999539076,0.16386851415139525,0.9034365749268182,0.3765206628539361,-0.04490823930791448,2.3442574698466156
1780771247678254848,2.2147676944732666,2.5343103408813477,0.4700285792350769,-0.024124301970005035,-0.03742476552724838,-0.3914785087108612,-0.919425904750824,-0.10162857174873352,0.1681813895702362,-0.0025101304054260254,0.3835955845516677,0.09581253598887549,0.17637181124263665,0.9014251631116871,0.40223779251123215,-0.04068203616460582,2.345226024202508
1780771247688289024,2.224801778793335,2.4671413898468018,0.5181079506874084,-0.020087216049432755,-0.03281129524111748,-0.41437146067619324,-0.9095162153244019,-0.12134824693202972,0.14888378977775574,0.035492777824401855,0.3820231071953635,0.09835374310808181,0.188595989175815,0.8993422114357644,0.4272520871835209,-0.036059909190413596,2.3460465736976053
1780771247698323712,2.2348365783691406,2.437300682067871,0.5676184892654419,-0.03307598456740379,-0.027799559757113457,-0.4366292357444763,-0.8992119431495667,-0.1190815418958664,0.11321920156478882,0.02962881326675415,0.38038426213974763,0.1005826725290116,0.20069170492219635,0.8971698925864355,0.45184847281144913,-0.030905625599417258,2.346679956941856
1780771247708358656,2.2448716163635254,2.3769233226776123,0.6436232328414917,-0.005581243894994259,-0.022289201617240906,-0.45827534794807434,-0.8885307312011719,-0.1069069653749466,0.07961323857307434,0.018962860107421875,0.3786420231366913,0.10244447712840121,0.21269640189580538,0.8949276675052049,0.47605383160315123,-0.025080199778121818,2.347161117951963
1780771247718392832,2.2549057006835938,2.311892509460449,0.714390754699707,0.05244370922446251,-0.0164228156208992,-0.4790430963039398,-0.8776377439498901,-0.0956377387046814,0.01970776915550232,0.05636394023895264,0.37656363561190775,0.10388148631281444,0.22447663294203118,0.892759123038639,0.4995642702265223,-0.018710337659740235,2.348056005792716
1780771247728427776,2.2649407386779785,2.101712703704834,0.7260977625846863,0.07344087213277817,-0.010435262694954872,-0.49835947155952454,-0.8669076561927795,-0.08838064968585968,-0.08628103137016296,0.09821569919586182,0.3742805897564794,0.10489061596377112,0.2356779938720486,0.8907119976208457,0.5217054960178381,-0.012036759276450176,2.349203220603211
1780771247738462976,2.2749757766723633,1.8834565877914429,0.7197988033294678,0.0538884736597538,-0.004542812239378691,-0.5155832171440125,-0.8568274974822998,-0.04243900626897812,-0.10934048891067505,0.1448829174041748,0.37205840500344445,0.10548354676941386,0.24588508172565438,0.8888117657567778,0.5416881364423463,-0.005301848667325269,2.350186760972129
1780771247748496896,2.2850096225738525,1.7755018472671509,0.7193378210067749,0.03852922469377518,0.0013857738813385367,-0.5310839414596558,-0.8473180532455444,0.022158531472086906,-0.02075016498565674,0.15739190578460693,0.369989118878443,0.10570247292438144,0.2552801333001541,0.8869989702564252,0.5598793354170017,0.0016354810471905182,2.3507599882417316
1780771247758531840,2.2950446605682373,1.80814528465271,0.7157434821128845,0.019016776233911514,0.0072420150972902775,-0.5462344884872437,-0.8376010656356812,0.05292338877916336,0.07341033220291138,0.10911595821380615,0.3679661027258221,0.10589123393987829,0.2645496706025174,0.8850997406549875,0.5778621558251156,0.008645923742110203,2.351030311650222
1780771247768566784,2.305079698562622,1.8385634422302246,0.71480792760849,0.0076469434425234795,0.01315128244459629,-0.5614595413208008,-0.8273996710777283,0.040330782532691956,0.10194110870361328,0.04665321111679077,0.3659689719864046,0.10608715390660733,0.27394467610835443,0.8830438642533138,0.5961485373491513,0.01589337728953471,2.350924399012526
1780771247778600960,2.3151137828826904,1.827866792678833,0.6713497042655945,-0.004594809375703335,0.018873825669288635,-0.5766301155090332,-0.8167873024940491,0.032624587416648865,0.09010368585586548,-0.00012248754501342773,0.3640098951429519,0.10638238066517072,0.28335340403443554,0.8808463316032745,0.6145979494432364,0.0231032836645523,2.3505073474482723
1780771247788635648,2.325148582458496,1.6861892938613892,0.6083840131759644,0.0038207797333598137,0.024067441001534462,-0.590961754322052,-0.8063405156135559,0.05329462140798569,0.047626793384552,-0.04630535840988159,0.36215769561911915,0.1067764683192873,0.29228160942201825,0.878642227573,0.6322505468678512,0.02983887975430853,2.349909869069845
1780771247798670848,2.335183620452881,1.5551905632019043,0.5550559163093567,0.0026433963794261217,0.02872072160243988,-0.6039992570877075,-0.7964671850204468,0.07522214949131012,0.036906421184539795,-0.03838688135147095,0.36040704305203186,0.10716056144117442,0.30047132025898815,0.8765502694480949,0.6485096312381696,0.03604452635097902,2.349287451136026
1780771247808704768,2.345217704772949,1.3764628171920776,0.5166323781013489,0.005878338124603033,0.03293924033641815,-0.6156477928161621,-0.7873327732086182,0.07104939967393875,0.04281759262084961,-0.026830434799194336,0.3587902683708697,0.10746714426371033,0.30787081594458604,0.8746062247523649,0.6632077554864044,0.041812107025046626,2.3486049491210528
1780771247818739968,2.355252742767334,1.1450402736663818,0.4795351028442383,-0.0007723739836364985,0.03682616725564003,-0.6255481243133545,-0.7793159484863281,0.04947755113244057,0.022063016891479492,-0.015682220458984375,0.3573143624048271,0.10755322431654589,0.3142838560017504,0.8729171370154031,0.6758339259163157,0.04721935063214073,2.3479439428478464
1780771247828774912,2.3652877807617188,0.8690614700317383,0.44974496960639954,0.021506566554307938,0.040379997342824936,-0.6333903074264526,-0.7727782130241394,0.030085094273090363,-0.05139356851577759,0.004559218883514404,0.3559970541498871,0.10734034659617862,0.3195136214596944,0.8715819504817972,0.685926585337721,0.05220554661105278,2.347409627382503
1780771247838808832,2.375321626663208,0.6361429691314697,0.43419066071510315,0.04346459358930588,0.04356967657804489,-0.6392101645469666,-0.7677968740463257,0.024606600403785706,-0.09296756982803345,0.030492186546325684,0.3547394613820313,0.10681004387584311,0.3235632517338814,0.870665450896295,0.6934707743643483,0.05668556615919248,2.347306944443136
1780771247848843776,2.3853566646575928,0.509842574596405,0.4188116788864136,0.061799392104148865,0.04652033746242523,-0.6435174942016602,-0.7640164494514465,0.022113699465990067,-0.062460899353027344,0.04284024238586426,0.3535225365321177,0.10602041572771315,0.32672841395577523,0.870074766311926,0.6990848985776538,0.060814104116192605,2.347546254413781
1780771247858878976,2.3953917026519775,0.5940765142440796,0.4718397557735443,0.13865289092063904,0.04947296157479286,-0.6477832794189453,-0.7602165341377258,0.026912540197372437,0.021730482578277588,0.0688866376876831,0.35212095072043736,0.10514547880819214,0.32990324710494784,0.8695510696047675,0.7046710924471171,0.06498582430096886,2.3481662809484316
1780771247868912896,2.405425786972046,0.5870918035507202,0.350039541721344,0.0734856128692627,0.051591116935014725,-0.6524462103843689,-0.7560769319534302,0.055083081126213074,0.0852770209312439,0.06567776203155518,0.350561455384404,0.10471653652802293,0.3331606101012486,0.8689908239781022,0.7108078344002926,0.06812967032827498,2.3494079858259873
1780771247878947840,2.4154605865478516,0.9084829092025757,0.26042914390563965,-0.004492277279496193,0.053824182599782944,-0.6576902270317078,-0.7513630986213684,0.06069303676486015,0.08405131101608276,-0.1622721552848816,0.34969474574841636,0.10464553183733026,0.3367012949374634,0.867983381713198,0.7177484084065031,0.07151322181363143,2.348780429107512
1780771247888982784,2.4254956245422363,1.2633522748947144,0.24045035243034363,0.05731196701526642,0.05556444823741913,-0.6661638021469116,-0.743732750415802,0.10359998047351837,0.2172197699546814,-0.174144446849823,0.3484822837249165,0.10552785999882877,0.3420489873590399,0.8662715925837031,0.7290532217970658,0.07457170184300155,2.3481885433537357
1780771247899016960,2.4355297088623047,1.2003538608551025,0.1909579038619995,-0.02402523346245289,0.056984253227710724,-0.6754809617996216,-0.7351723313331604,0.10526244342327118,0.2848254442214966,-0.06261825561523438,0.3473617380626214,0.10684106139555918,0.34784886935447046,0.8642488200728163,0.7416167425081227,0.07735675254959026,2.3471775816170015
1780771247909051904,2.4455647468566895,0.5258889198303223,0.1300354301929474,-0.12382372468709946,0.058688439428806305,-0.681937575340271,-0.729051947593689,0.033199988305568695,0.01717323064804077,-0.06202465295791626,0.3469329346771175,0.107549740552759,0.35200435666711005,0.8626490729755106,0.7504084454577731,0.08032645539104152,2.345186550459679
1780771247919086848,2.455599784851074,-0.0372660793364048,0.10906356573104858,-0.14843294024467468,0.060472577810287476,-0.6835053563117981,-0.7274362444877625,0.017881307750940323,-0.1235014796257019,0.03191018104553223,0.34720802650212584,0.10720334207282757,0.35325530662455956,0.862070029700031,0.7525541079399307,0.08294039316983676,2.3430386347469416
1780771247929120768,2.4656336307525635,-0.282822847366333,0.10770881921052933,-0.14713971316814423,0.06226744130253792,-0.682067334651947,-0.7286336421966553,0.03514466807246208,-0.04667717218399048,0.06475424766540527,0.34774565541919017,0.10615256994600882,0.3527248386105495,0.8622005995970763,0.7505858797552039,0.08525069152504727,2.341253642071263
1780771247939156224,2.4756691455841064,-0.35685738921165466,0.10857129096984863,-0.15888558328151703,0.06409123539924622,-0.6796044111251831,-0.7307737469673157,0.03977532684803009,0.024590373039245605,0.043441593647003174,0.3483865214466436,0.10485616436275137,0.35159396281785854,0.8625623659563242,0.747223211587847,0.08747941625734248,2.339557236069872
1780771247949191168,2.485703945159912,-0.4013068974018097,0.10588388890028,-0.15124709904193878,0.06595809757709503,-0.6766815185546875,-0.7333154678344727,0.04456130415201187,0.046630918979644775,0.014473974704742432,0.34907425322827973,0.10343696719679281,0.3502042930898473,0.8630207926155571,0.7432461539091839,0.08970366352657327,2.3378882324371904
1780771247959225088,2.4957380294799805,-0.31846821308135986,0.048724595457315445,-0.10266571491956711,0.06743144243955612,-0.6738222241401672,-0.7358101606369019,0.053875938057899475,0.059594929218292236,-0.023711323738098145,0.3496943605681268,0.10220318470723845,0.34878279830788894,0.8634922514173691,0.7393695933472906,0.09138718075699688,2.3365802960832087
1780771247969260288,2.5057730674743652,-0.31106409430503845,0.002880408428609371,-0.029660748317837715,0.06803451478481293,-0.671547532081604,-0.7378314137458801,0.05858291685581207,0.045403122901916504,-0.08980530500411987,0.3500815936768239,0.1014598037600222,0.3475488463875112,0.8639204300636514,0.7362953419447448,0.09194874287373374,2.3360995653528143
1780771247979295232,2.51580810546875,-0.399231493473053,-0.018034594133496284,-0.03689016401767731,0.06816248595714569,-0.6689260601997375,-0.7401971817016602,0.05756992846727371,0.04716092348098755,-0.06549739837646484,0.3503853941141416,0.10082574873369736,0.34602830983820393,0.8644817656236387,0.7327630862897145,0.09182795442622278,2.3361809678530334
1780771247989329152,2.5258419513702393,-0.5277169942855835,-0.050169359892606735,-0.0638354942202568,0.06826736032962799,-0.6654399633407593,-0.7433231472969055,0.05062912404537201,0.06074941158294678,-0.018105745315551758,0.35090453853198467,0.10006330848643968,0.3439851326783591,0.8651748989477328,0.7280830425642106,0.09158384457466998,2.336047587750566
1780771247999364096,2.535876989364624,-0.6510605216026306,-0.077976755797863,-0.06814794987440109,0.0682137981057167,-0.6609761714935303,-0.7473000884056091,0.045174263417720795,0.08254599571228027,0.01735013723373413,0.3516046048661221,0.09919669537319543,0.3413355575094122,0.8660394735207743,0.7221188614777635,0.09102807064704141,2.335877622447006
1780771248009399296,2.545912027359009,-0.8004377484321594,-0.061251040548086166,-0.07678963989019394,0.06814122200012207,-0.6554917097091675,-0.7521219253540039,0.018269307911396027,0.09898841381072998,0.034852027893066406,0.3523930726074189,0.09811234893908805,0.33810206594709835,0.8671101519087979,0.7148335094668956,0.090351973810777,2.3358084371157672
1780771248019434240,2.5559470653533936,-1.0217591524124146,-0.03917290270328522,-0.10844717174768448,0.06836108863353729,-0.6485366225242615,-0.7581074833869934,-0.011049076914787292,0.10054779052734375,0.04749041795730591,0.3533195943981454,0.09656521215102404,0.3340979348138198,0.8684577229780817,0.7056603608052231,0.08993012321032223,2.335686805937243
1780771248029468416,2.565981149673462,-1.285290241241455,-0.03803546354174614,-0.13153305649757385,0.06888098269701004,-0.6396098136901855,-0.7656074166297913,-0.026614144444465637,0.07491254806518555,0.04827648401260376,0.3544621806340102,0.09446080754506994,0.32904928796618593,0.8701496452972546,0.6939905610463352,0.08972747996509921,2.3354597355042506
1780771248039503104,2.5760159492492676,-1.4067511558532715,-0.06416826695203781,-0.1058306097984314,0.06926700472831726,-0.6290314197540283,-0.7742878198623657,-0.03806278854608536,0.04121708869934082,0.018397927284240723,0.3557102885088702,0.0920611347640858,0.3230802430462897,0.8721320258401355,0.6803066528861522,0.08922148494254348,2.3354655761526035
1780771248049538048,2.5860509872436523,-1.349733591079712,-0.12550699710845947,-0.05104806274175644,0.0690515786409378,-0.6180344820022583,-0.7831125259399414,-0.04842168837785721,0.027137935161590576,-0.03474324941635132,0.3568387786298357,0.08982828235712281,0.31681953627451775,0.8741980423262968,0.6662400394233344,0.08794834180194729,2.336050620256431
1780771248059572224,2.5960850715637207,-1.1035736799240112,-0.16072861850261688,0.018252182751893997,0.06798799335956573,-0.6083272099494934,-0.7907690405845642,-0.05073029547929764,0.03998309373855591,-0.07290893793106079,0.3576931957731372,0.08824952629148225,0.31117117994200294,0.876036642985708,0.6539512782764032,0.08576613711191435,2.337192888833554
1780771248069607168,2.6061201095581055,-0.8803746700286865,-0.1600670963525772,0.09302416443824768,0.06636231392621994,-0.6004568934440613,-0.7968987226486206,-0.04615967720746994,0.07744663953781128,-0.0713263750076294,0.35812058446470346,0.08725909139038018,0.30649060157493674,0.8776098413578727,0.6440723437764777,0.08308401188466676,2.3389808087114474
1780771248079642368,2.6161551475524902,-0.7374215126037598,-0.1548924446105957,0.1392180174589157,0.06439030915498734,-0.5940943956375122,-0.801814079284668,-0.04217351973056793,0.11135208606719971,-0.04416370391845703,0.3582003332889185,0.08669442237640161,0.30261700319645163,0.8789764544921248,0.6361393443670514,0.08013382350645624,2.3412519165078725
1780771248089676032,2.6261889934539795,-0.7632277607917786,-0.16285502910614014,0.17832574248313904,0.06217395141720772,-0.5882323384284973,-0.8062984347343445,-0.039682500064373016,0.059622108936309814,-0.029898464679718018,0.3580559330299964,0.08630230789765934,0.29900283946476236,0.880309779129327,0.628871289708814,0.07695805537019837,2.3439491341843075
1780771248099711232,2.6362240314483643,-0.9321121573448181,-0.17105676233768463,0.21254895627498627,0.059677865356206894,-0.5815074443817139,-0.8113492727279663,-0.03994825482368469,-0.03331494331359863,0.013436675071716309,0.35781876821059716,0.08581889679230419,0.29489062121813603,0.8818391800433476,0.6205803919017061,0.07342163697891221,2.347109437740872
1780771248109746176,2.646259069442749,-1.1756209135055542,-0.19097773730754852,0.25590813159942627,0.0568048357963562,-0.5730683207511902,-0.817536473274231,-0.0481225810945034,-0.07288199663162231,0.024216771125793457,0.3574992265002694,0.08509973516866375,0.28980993318731485,0.8837208401278214,0.6102450946837494,0.06937144086786476,2.3509099286510846
1780771248119780352,2.6562931537628174,-1.4588427543640137,-0.19125151634216309,0.28238049149513245,0.05371749773621559,-0.5623405575752258,-0.8251590728759766,-0.05966843292117119,-0.07669752836227417,0.024133682250976562,0.3571362074563144,0.08395834287845556,0.2834985817154855,0.8860210596095732,0.5972135837863111,0.06500783295632508,2.355261022600121
1780771248129815040,2.666327953338623,-1.6107734441757202,-0.21313737332820892,0.32099446654319763,0.05033612623810768,-0.5495777130126953,-0.8339248299598694,-0.05807233601808548,-0.07343864440917969,0.029206812381744385,0.3567208501275226,0.08250842707753493,0.2760977234882376,0.8886577383293471,0.5818586846168404,0.060287361629251815,2.3600842552929175
1780771248139850240,2.676362991333008,-1.5154637098312378,-0.21622876822948456,0.37696266174316406,0.046621862798929214,-0.5364774465560913,-0.8426258563995361,-0.03517776355147362,-0.05194723606109619,0.021672487258911133,0.35612667315203117,0.08113313693430084,0.26852279195197076,0.8913398325466164,0.5662575077451754,0.055272902083221956,2.365286532833138
1780771248149884160,2.686397075653076,-1.2736809253692627,-0.24071307480335236,0.4565592110157013,0.04248259216547012,-0.5247370600700378,-0.8502036333084106,-0.016023855656385422,-0.018140137195587158,0.018920063972473145,0.35510985972313136,0.08018874894719845,0.2616638064527787,0.8938673023159315,0.552406216475861,0.04992602803245489,2.3711308684636534
1780771248159919360,2.696432113647461,-1.0099939107894897,-0.2722025513648987,0.4929713010787964,0.037765294313430786,-0.5152106881141663,-0.8562310934066772,0.0024568773806095123,-0.01773303747177124,-0.037933945655822754,0.35375775480570026,0.07995707777882945,0.25591269588156557,0.8960864445561235,0.5412534333629722,0.04407785814992445,2.377364066252152
1780771248169954304,2.7064671516418457,-0.9101549386978149,-0.2797968089580536,0.5140515565872192,0.03279109671711922,-0.507175087928772,-0.8612189888954163,0.01898198574781418,-0.04319417476654053,-0.06538623571395874,0.3522286531070485,0.08015856874348444,0.2509285047279062,0.8980781693833572,0.5319038900150769,0.03805683075376657,2.383691537269517
1780771248179988224,2.716500997543335,-0.8532620668411255,-0.29242420196533203,0.5667976140975952,0.02759775146842003,-0.49969905614852905,-0.8657593131065369,0.028920799493789673,-0.06719547510147095,-0.031243860721588135,0.3505083402373097,0.08056256778088113,0.24623162780306504,0.9000130626777215,0.5232513226791612,0.03186614233228721,2.390305549305396
1780771248190023168,2.7265360355377197,-0.9195867776870728,-0.2834632098674774,0.6050792336463928,0.022126371040940285,-0.4922095835208893,-0.8701955080032349,0.03484993800520897,-0.10814747214317322,0.016588330268859863,0.34856253568140033,0.08106523928358714,0.241517466538391,0.901998877921579,0.5146262909142907,0.025421419966680504,2.3973895302285673
1780771248200058112,2.7365710735321045,-1.0686644315719604,-0.235230952501297,0.629352867603302,0.01684226468205452,-0.48361098766326904,-0.875120997428894,0.02920876070857048,-0.11187851428985596,0.09538161754608154,0.34649575372939007,0.0812433292086995,0.2363028131703158,0.9041577906218439,0.5047755510267057,0.0192432653244805,2.4047061198909567
1780771248210092288,2.746605157852173,-0.9890185594558716,-0.24580076336860657,0.6659314036369324,0.011654290370643139,-0.47446393966674805,-0.8801977634429932,0.03853187337517738,-0.06401869654655457,0.13175421953201294,0.34425321933812797,0.081253219391748,0.2308658118121308,0.9064152075874041,0.49435495173269817,0.013239762376649623,2.4123135046596373
1780771248220127232,2.7566399574279785,-0.9041910171508789,-0.22831499576568604,0.6740455031394958,0.006343373097479343,-0.46620485186576843,-0.8846540451049805,0.07741212099790573,-0.05929258465766907,0.10813426971435547,0.3418497784999227,0.08150501181518445,0.22589800100387314,0.9085514309840891,0.48499602697390753,0.007170333137427116,2.4200726090921543
1780771248230162176,2.7666749954223633,-0.9211042523384094,-0.14754025638103485,0.6331683993339539,0.0016805750783532858,-0.45808982849121094,-0.888904333114624,0.10928133875131607,-0.05185890197753906,0.16479849815368652,0.3394366209452715,0.08150867865206507,0.22114288754771066,0.9106233617277418,0.4758450946295024,0.0018906118773949034,2.4275375071890424
1780771248240197120,2.776710033416748,-0.8616238832473755,-0.1734904944896698,0.6302695274353027,-0.0025683364365249872,-0.4500438868999481,-0.8930027484893799,0.1093951165676117,-0.04017522931098938,0.18813824653625488,0.33709967445674216,0.08138051317332713,0.21650828137612332,0.912614537315756,0.4668144971681575,-0.002876059817250144,2.43461118654649
1780771248250231296,2.7867441177368164,-0.57655268907547,-0.19697904586791992,0.6705256104469299,-0.00717666232958436,-0.4434913098812103,-0.8962499499320984,0.10612990707159042,-0.05304494500160217,0.10138911008834839,0.3346209656179068,0.08172125975479674,0.21259507147777204,0.9144144324691379,0.4594902616232402,-0.008007263141526156,2.4418568630601856
1780771248260266240,2.796779155731201,-0.4686957895755768,-0.15301518142223358,0.6652911305427551,-0.011718607507646084,-0.4388256072998047,-0.8984958529472351,0.10494980961084366,-0.08250617980957031,0.04119604825973511,0.3319288713554216,0.08237743602138083,0.20968080476780915,0.9160083162493788,0.4542913163265213,-0.013041732990294647,2.449312760605138
1780771248270301184,2.806813955307007,-0.2751859724521637,-0.09120801091194153,0.6105008721351624,-0.015635713934898376,-0.43523409962654114,-0.9001815319061279,0.09731601178646088,-0.05103299021720886,0.04292750358581543,0.3292626021214699,0.08296626033368604,0.20742666603517504,0.9174295694711548,0.4502982658352183,-0.017367764463604045,2.456413252569263
1780771248280335104,2.816848039627075,-0.29832059144973755,0.09881506115198135,0.5583894848823547,-0.018062766641378403,-0.4328876733779907,-0.901266872882843,0.0820733830332756,-0.005222678184509277,0.07523232698440552,0.3267024927464314,0.0831122983949193,0.20605558449331965,0.9186396897640833,0.44769368729570697,-0.020038845711483934,2.4627788261015695
1780771248290370304,2.82688307762146,-0.2553006708621979,0.2343963235616684,0.6234502196311951,-0.019012251868844032,-0.42988014221191406,-0.9026857614517212,0.05271891504526138,0.09487342834472656,0.3162752389907837,0.32395162346906325,0.0823843908898501,0.20462141533810638,0.9199990998323841,0.4443600319340506,-0.02105875761534103,2.4692228684405246
1780771248300405248,2.8369181156158447,0.09868856519460678,0.39705103635787964,0.8244717717170715,-0.019244013354182243,-0.42911866307258606,-0.9030430912971497,0.09160119295120239,0.11381104588508606,0.28616076707839966,0.320350230624563,0.08155298041182373,0.2045178597253109,0.9213562796716691,0.443516806329755,-0.02130695828413621,2.4771585521191906
1780771248310439168,2.846951961517334,0.2864272892475128,0.38151681423187256,1.111135721206665,-0.019722966477274895,-0.4305541217327118,-0.9023492336273193,0.14803412556648254,-0.11761787533760071,0.32674193382263184,0.3153930592228783,0.0809502489852778,0.2056026129461628,0.9228769622248086,0.4451066298208247,-0.021853872814828926,2.4879260582082123
1780771248320474112,2.8569869995117188,0.731089174747467,0.21368306875228882,1.1297773122787476,-0.02205728553235531,-0.4351775646209717,-0.9000744223594666,0.21762917935848236,-0.4023163318634033,0.28625911474227905,0.3095255818102125,0.08162046666275535,0.2080886640536929,0.9242462133254014,0.45023548566963173,-0.02450116414553751,2.500892555327901
1780771248330509312,2.8670220375061035,0.36668485403060913,0.1832314133644104,0.9867640137672424,-0.024927562102675438,-0.44007354974746704,-0.8976156711578369,0.2796730399131775,-0.48227447271347046,0.15657258033752441,0.30423017864089297,0.08270910283704534,0.21059764804856634,0.9253387891363779,0.4556805856472424,-0.02776372733504867,2.5127418860204767
1780771248340543232,2.877056121826172,0.5827867984771729,0.20570209622383118,0.9550966024398804,-0.02750183269381523,-0.443523645401001,-0.8958406448364258,0.25392699241638184,-0.18219351768493652,0.2786226272583008,0.29930559102626514,0.08346089352072762,0.21240046050162323,0.9264645830908301,0.45952633926894754,-0.03068983117452768,2.523815156677966
1780771248350578432,2.8870911598205566,1.1658086776733398,0.1079355925321579,0.7380819916725159,-0.029857756569981575,-0.45136332511901855,-0.8918405771255493,0.18209469318389893,0.039849042892456055,-0.027379393577575684,0.2947504088266103,0.08495063147669364,0.21647884301132192,0.9268454402061499,0.4682925568715734,-0.03346630348669721,2.5337738538941372
1780771248360613120,2.8971259593963623,1.2716560363769531,0.1792888641357422,0.524822473526001,-0.031611114740371704,-0.46197906136512756,-0.88632732629776,0.1294657289981842,0.4172860383987427,-0.4829201102256775,0.29118702202564806,0.08684044236561715,0.22202494758837835,0.9264846872414063,0.480225349706417,-0.03565017100608956,2.541288242003502
1780771248370647296,2.9071600437164307,1.1842689514160156,0.2191222906112671,0.3292343020439148,-0.03172652795910835,-0.4731476902961731,-0.8804116249084473,6.454810500144958e-05,0.6897004842758179,-0.10407012701034546,0.2884323661647384,0.08819449313928059,0.22806996803805274,0.9257496921854004,0.49286030210732396,-0.03602043017423207,2.546586244801275
1780771248380682240,2.9171950817108154,0.5422244668006897,0.1626608818769455,0.2595455050468445,-0.031480930745601654,-0.48075979948043823,-0.876287043094635,-0.052518703043460846,0.34054678678512573,-0.12618488073349,0.2864367920411261,0.08891772735877262,0.2322716408902061,0.9252554222085552,0.5015210238049431,-0.035909920797090426,2.550354612563367
1780771248390717184,2.9272301197052,-0.1963912844657898,0.14942072331905365,0.0412491112947464,-0.03080163151025772,-0.48213887214660645,-0.8755531311035156,-0.008718622848391533,-0.14815589785575867,-0.0842399001121521,0.28549486916464023,0.08858742820905655,0.23318595552949367,0.9253481167002597,0.5030944589037994,-0.03516512328031575,2.552108066251609
1780771248400751104,2.9372639656066895,-0.4619918167591095,0.055465325713157654,-0.020861396566033363,-0.030040627345442772,-0.4789285659790039,-0.8773397207260132,0.04415500909090042,-0.2010641098022461,-0.056803345680236816,0.2855142307932782,0.08765237237801789,0.23161865280234611,0.9258247416853552,0.4994337813379061,-0.03422721491917382,2.5520521351836365
1780771248410786048,2.947299003601074,-0.4198872447013855,0.07699857652187347,-0.2282814383506775,-0.02887950837612152,-0.4749450981616974,-0.8795414566993713,0.05951915681362152,0.09323123097419739,-0.15910905599594116,0.28618277454719293,0.08654753355518574,0.2296493163294574,0.9262127883966674,0.4949016383829486,-0.03282294030264363,2.5505326410542213
1780771248420821248,2.957334041595459,-0.3964197337627411,0.09627161175012589,-0.2895336151123047,-0.02680826745927334,-0.4716416299343109,-0.8813827037811279,0.0016312692314386368,0.1774674654006958,-0.2208053469657898,0.28751619040188425,0.085276120111288,0.22811538172275495,0.9262968223097469,0.4911515618890914,-0.030406773558857608,2.54728557003215
1780771248430855168,2.9673681259155273,-0.749735951423645,0.11669538915157318,-0.3288743495941162,-0.024389760568737984,-0.46671897172927856,-0.8840693235397339,-0.015557754784822464,0.00019675493240356445,-0.1593571901321411,0.2890612178087752,0.0836001280449232,0.22577942741413082,0.926541125413866,0.4855772486727405,-0.027581067519827307,2.543604298627384
1780771248440890368,2.977403163909912,-1.100531816482544,0.08603521436452866,-0.27732354402542114,-0.022037364542484283,-0.4585711359977722,-0.8883844017982483,-0.025631088763475418,-0.2554638683795929,0.042666077613830566,0.29077893558713186,0.08143212982056375,0.22175798435907598,0.9271676107712594,0.47638664129860014,-0.024801028079396353,2.5398036434582782
1780771248450925056,2.9874379634857178,-1.5524190664291382,0.0729881227016449,-0.17927128076553345,-0.020323270931839943,-0.4468155801296234,-0.8943952322006226,-0.04170370474457741,-0.3989180624485016,0.11189401149749756,0.2922819256859021,0.07889721433359914,0.21581847939752882,0.9283151066220826,0.46320265121492976,-0.022719009429408184,2.536898325366099
1780771248460960256,2.9974730014801025,-1.8224470615386963,0.1321439892053604,-0.13674379885196686,-0.01868298463523388,-0.43137937784194946,-0.9019771814346313,-0.07531115412712097,-0.29623597860336304,0.09049952030181885,0.29355685046714997,0.07571524563221554,0.20803515001424994,0.9299532161879062,0.4460211668036252,-0.02071040730706492,2.5347520351670765
1780771248470994176,3.007507085800171,-1.567375898361206,0.1468867063522339,-0.06942334026098251,-0.016926929354667664,-0.4157407581806183,-0.9093256592750549,-0.08475764095783234,-0.11019915342330933,0.02199655771255493,0.2945613356985129,0.07239752208254799,0.20023931460490296,0.9316095770810625,0.4287571228714345,-0.018612667032784046,2.5331674876716535
1780771248481029376,3.0175421237945557,-1.1026692390441895,0.1663886457681656,-0.014219473116099834,-0.015336927957832813,-0.4034939408302307,-0.9148537516593933,-0.05772215127944946,0.03230863809585571,0.02406090497970581,0.29505825243096123,0.06964634819304656,0.19422281722097867,0.9329349026129108,0.41533224364704496,-0.016762779026412253,2.532495283457445
1780771248491064320,3.0275771617889404,-0.5355041027069092,0.16282907128334045,0.02056487277150154,-0.013774456456303596,-0.3960401713848114,-0.9181298613548279,-0.029133252799510956,0.1269514560699463,-0.03694826364517212,0.29517217269679846,0.06765042886014898,0.19067902782850085,0.9337763593932531,0.4072003860558234,-0.01500160688098608,2.532356867410392
1780771248501098240,3.0376110076904297,-0.42359036207199097,0.09490501135587692,-0.01597609557211399,-0.01259963121265173,-0.39194533228874207,-0.9199022054672241,0.007335354574024677,0.13953444361686707,-0.15047132968902588,0.2951276173428037,0.066381137689187,0.18879204054472234,0.9342648052563034,0.402745160401835,-0.013695850572354467,2.5324426835727376
1780771248511133184,3.0476460456848145,-0.6609304547309875,0.05986180156469345,-0.21012906730175018,-0.01155643817037344,-0.387001097202301,-0.9220068454742432,0.028554730117321014,0.14746862649917603,-0.18462157249450684,0.2957746244172144,0.06517460128119526,0.18641045264370643,0.934623299269662,0.3973770309074646,-0.01253334903427397,2.53113194785813
1780771248521168128,3.057681083679199,-0.9853433966636658,0.08829770982265472,-0.3891291618347168,-0.009732946753501892,-0.3794778883457184,-0.9251496195793152,0.009031047113239765,0.18457737565040588,-0.12813407182693481,0.2973679066959687,0.06334284889686838,0.18279191476225118,0.9349583049660357,0.38923191939432233,-0.010520015492044519,2.52779148638406
1780771248531202304,3.0677151679992676,-1.4063268899917603,0.25873708724975586,-0.5207891464233398,-0.006474104709923267,-0.3684200644493103,-0.9296368956565857,-0.04297962784767151,0.2852749228477478,0.0781659483909607,0.2997786834356706,0.060374205356919855,0.17758523486817057,0.9353882173119635,0.3773089776589826,-0.006964009617380926,2.522635025702918
1780771248541236992,3.0777499675750732,-1.8183354139328003,0.4381019175052643,-0.5110606551170349,-0.0012360633118078113,-0.3532603681087494,-0.9355242252349854,-0.11424244940280914,0.3114665448665619,0.33502984046936035,0.3023805504052267,0.05578653228769281,0.17066268379009403,0.936123930717715,0.36105388964320356,-0.0013212512381460973,2.5169657041019606
1780771248551272192,3.087785005569458,-2.201101779937744,0.4869128465652466,-0.5048080682754517,0.004909745417535305,-0.3343663513660431,-0.9424303770065308,-0.12817025184631348,0.1961674988269806,0.35377681255340576,0.3048955880210304,0.05011538611808784,0.16209026691441114,0.9371520062114175,0.34093280998683123,0.005209616384054314,2.5116121865170435
1780771248561306112,3.0978190898895264,-2.500513792037964,0.4356480836868286,-0.47507205605506897,0.010966816917061806,-0.31177788972854614,-0.9500917196273804,-0.07503847032785416,0.014887630939483643,0.20912492275238037,0.3074274769186158,0.04387393130812811,0.15175381821745268,0.9383678133814846,0.31706362902737845,0.011542390841349151,2.5065488662286146
1780771248571341312,3.107854127883911,-2.3542897701263428,0.27464747428894043,-0.37622830271720886,0.015643911436200142,-0.2882702350616455,-0.9574213027954102,-0.003085929900407791,-0.09539675712585449,0.06902408599853516,0.3096725073711417,0.03809636679935202,0.14084750118097802,0.9395815514873176,0.29241988149663584,0.016338177254448773,2.5024390283514477
1780771248581376256,3.117889165878296,-1.9211255311965942,0.04988573491573334,-0.3392569422721863,0.01819247007369995,-0.2675269842147827,-0.9633786082267761,0.07380276918411255,-0.08156359195709229,-0.13281279802322388,0.3116241691231492,0.033746664411698796,0.13104143860450812,0.940520939648913,0.2708255496737254,0.018881785001025813,2.4991244111325805
1780771248591410176,3.127923011779785,-1.5955418348312378,-0.050692006945610046,-0.3166901171207428,0.018950026482343674,-0.25056561827659607,-0.9679141044616699,0.11517472565174103,0.012757420539855957,-0.2802395224571228,0.3134507921511348,0.030847767847634933,0.12284685791930995,0.9411193643012598,0.253264477530676,0.019575709539921122,2.4960882340281283
1780771248601445120,3.13795804977417,-1.5494139194488525,-0.07057343423366547,-0.3191263973712921,0.019135262817144394,-0.2354135364294052,-0.9717069268226624,0.0664512887597084,0.05827425420284271,-0.30130332708358765,0.31521857355481975,0.028498239087546458,0.11547466470393043,0.9415363427181612,0.23764404007463347,0.019689877228166872,2.4931168440690636
1780771248611480320,3.1479930877685547,-1.50141179561615,-0.05810131877660751,-0.2552643120288849,0.01915007270872593,-0.22026032209396362,-0.9752531051635742,-0.01838713139295578,0.05735749006271362,-0.23121356964111328,0.3168430205708078,0.0261991056434793,0.10810662114188471,0.9419326303492151,0.222081332032719,0.019633478231928056,2.490431546125179
1780771248621515264,3.1580281257629395,-1.4671545028686523,0.014074472710490227,-0.23576891422271729,0.01946726255118847,-0.20580700039863586,-0.9783989191055298,-0.05953684449195862,0.07963208854198456,-0.10093146562576294,0.3181965152662027,0.02382879296455317,0.10115688599846935,0.942311161468776,0.20728829285772787,0.01989443446766772,2.488214210807987
1780771248631549184,3.1680619716644287,-1.6196883916854858,0.06085822358727455,-0.16244356334209442,0.020233100280165672,-0.19075210392475128,-0.9814296960830688,-0.10011285543441772,0.16809280216693878,0.07220423221588135,0.3193313258149306,0.02111543321834531,0.09401748956698658,0.9427312932596476,0.19192825535805544,0.02061302415117204,2.486409093644475
1780771248641584128,3.1780970096588135,-2.0441980361938477,0.08746519684791565,-0.03678843379020691,0.021237878128886223,-0.1727411299943924,-0.984738290309906,-0.11373665928840637,0.1622278243303299,0.258175790309906,0.31993207449230404,0.01775020871811513,0.08553243744458373,0.943404725466302,0.1736119630895979,0.021563686084184637,2.485808099410592
1780771248651619072,3.1881320476531982,-2.4030730724334717,0.07139701396226883,-0.025858286768198013,0.022055571898818016,-0.1504526138305664,-0.9883711934089661,-0.11890310794115067,0.004624366760253906,0.28523093461990356,0.3201960793229365,0.013753845346572225,0.07500164870441127,0.9442775959775123,0.15102607587411895,0.022311366941245418,2.4860576199553397
1780771248661653248,3.1981661319732666,-2.0368826389312744,0.03486683964729309,0.07538711279630661,0.022632794454693794,-0.12794345617294312,-0.9915232062339783,-0.14873142540454865,-0.16444545984268188,0.23209327459335327,0.3202410951578017,0.009832964652121592,0.0643561931406788,0.9450964654929843,0.12829511907073277,0.02282232624039765,2.486721211846354
1780771248671688192,3.2082011699676514,-1.4458860158920288,-0.06435801833868027,0.10184215754270554,0.022317849099636078,-0.11065902560949326,-0.9936078190803528,-0.12140842527151108,-0.20448073744773865,0.029084503650665283,0.31983607314766754,0.0071653345259811005,0.0560780668150327,0.9457847616409712,0.11088612505810834,0.022457650261574418,2.4881516993311488
1780771248681723136,3.218235969543457,-0.955887496471405,-0.01650300994515419,0.0956263393163681,0.021717242896556854,-0.09882774204015732,-0.9948675632476807,-0.09506624191999435,-0.005817033350467682,-0.14117980003356934,0.3194535308238693,0.005524675272312161,0.05035577038460262,0.9462469297982669,0.09898932529919548,0.02182581463195217,2.4893391588207776
1780771248691757312,3.2282700538635254,-0.7619603872299194,0.06806620210409164,0.10492289811372757,0.02191256359219551,-0.0904194638133049,-0.9956626892089844,-0.1263284534215927,0.1389119029045105,-0.10832595825195312,0.3189604946160137,0.004057446862110218,0.04639181174384896,0.9466232340706541,0.09054312651382027,0.022004467272788278,2.490599706774771
1780771248701792256,3.23830509185791,-0.821398138999939,0.11354181170463562,0.12043474614620209,0.02275165356695652,-0.08271563798189163,-0.9963134527206421,-0.15211567282676697,0.12809526920318604,-0.07325136661529541,0.31845186477012155,0.0024023790550687257,0.04286612864913294,0.946966243851158,0.08281025114046546,0.02283187079175255,2.491834771834455
1780771248711827200,3.248340129852295,-1.265444040298462,0.0686851218342781,0.22233261168003082,0.02367803454399109,-0.0724421814084053,-0.99709153175354,-0.1473200023174286,0.038521893322467804,-0.08069777488708496,0.31763845419962056,0.0002888160126064707,0.03813346505738945,0.947444804581255,0.07250569613788159,0.023742641168314847,2.4937680385322407
1780771248721861120,3.258373975753784,-1.4989534616470337,-0.09696216136217117,0.3264526128768921,0.0233292318880558,-0.058375608175992966,-0.9980220794677734,-0.1005081832408905,-0.027928102761507034,-0.12661170959472656,0.31630629559194884,-0.001829161844995602,0.031394640659195894,0.948135711108874,0.058408814564593306,0.02337121139550355,2.4969131894071275
1780771248731896064,3.268409013748169,-1.5159300565719604,-0.16779667139053345,0.3474156856536865,0.021807005628943443,-0.04334218055009842,-0.9988222718238831,-0.05758886784315109,-0.12577098608016968,-0.24135106801986694,0.31469249746285627,-0.003528501099104721,0.024008726884297733,0.948883402900357,0.04335576080386111,0.02182924995134182,2.5006586310304955
1780771248741931264,3.2784440517425537,-1.6170707941055298,-0.26103606820106506,0.4131867289543152,0.019546369090676308,-0.02775375172495842,-0.9994236826896667,-0.06771836429834366,-0.18768508732318878,-0.25748854875564575,0.3128838594037855,-0.00494057746252723,0.016240583329347236,0.9496397117016678,0.027757316072591756,0.019555148549402684,2.504770674786156
1780771248751966208,3.2884790897369385,-1.792125940322876,-0.30426716804504395,0.46102187037467957,0.016551902517676353,-0.010760077275335789,-0.9998050928115845,-0.085750512778759,-0.1747104972600937,-0.22871053218841553,0.3107535278871419,-0.006194526279694007,0.007685929845311989,0.9504392767977693,0.010760285060513878,0.016553616049838255,2.50950033118044
1780771248762000384,3.298513174057007,-1.8981541395187378,-0.306807279586792,0.46579426527023315,0.01346765086054802,0.007793526165187359,-0.9998789429664612,-0.10817895829677582,-0.15719233453273773,-0.20629781484603882,0.30848667334989377,-0.007607753505350069,-0.0016293921020790515,0.9511968391427733,-0.007793605272898684,0.013468466893115975,2.514422088454935
1780771248772035072,3.3085479736328125,-1.7197433710098267,-0.4583241045475006,0.5443218350410461,0.009853444993495941,0.02615322172641754,-0.9996094107627869,-0.10973747819662094,-0.13464321196079254,-0.16930538415908813,0.3060397740529857,-0.008693487276085644,-0.010942200407026027,0.951916178258803,-0.026156203295663396,0.009856976466502585,2.519598002635741
1780771248782070272,3.3185830116271973,-1.12594735622406,-0.5990740060806274,0.6144932508468628,0.00457746209576726,0.040336973965168,-0.9991756677627563,-0.04765302315354347,-0.087578184902668,-0.17079198360443115,0.3030997318102886,-0.008297054870327279,-0.018529300197378983,0.9527425218521731,-0.04034792114896253,0.004581206625776367,2.525666443944767
1780771248792104192,3.3286170959472656,-0.8797871470451355,-0.5217805504798889,0.46444350481033325,-0.0009084841003641486,0.05027332901954651,-0.9987350702285767,0.015267005190253258,-0.02482166886329651,-0.19814908504486084,0.3004051758824668,-0.007122577756759229,-0.02411901899751146,0.9534800934852774,-0.05029452840971653,-0.0009096344383108217,2.5311356525883455
1780771248802139392,3.3386521339416504,-0.5173985958099365,-0.45992958545684814,0.44960570335388184,-0.005493393633514643,0.05742442235350609,-0.9983347654342651,0.011841049417853355,0.10575306415557861,-0.07696735858917236,0.29816897261935676,-0.005945482327388326,-0.02823614858009928,0.9540767731842519,-0.05745603081080445,-0.005502501278196652,2.5356265549596064
1780771248812174336,3.348687171936035,-0.04825987294316292,-0.3601648807525635,0.40735065937042236,-0.009457500651478767,0.060307636857032776,-0.9981350302696228,0.007275492884218693,0.21984373033046722,-0.015399515628814697,0.2960226300478119,-0.0044158269472812225,-0.030215622070156895,0.9546926904089736,-0.06034425301668788,-0.009474887747493579,2.539965591722507
1780771248822208256,3.3587210178375244,0.46933186054229736,-0.2799864411354065,0.41213715076446533,-0.012330391444265842,0.05826452746987343,-0.9982250332832336,-0.03663506358861923,0.23262903094291687,0.025904476642608643,0.2940693047935894,-0.002679548871205755,-0.029669950874329217,0.9553197419113592,-0.05829754186395173,-0.012351688617011343,2.5439960674945854
1780771248832243200,3.368756055831909,0.5775680541992188,-0.19416926801204681,0.5006276369094849,-0.014519485644996166,0.052765991538763046,-0.9985013604164124,-0.03076860122382641,0.13703808188438416,0.057369768619537354,0.2918346151665752,-0.0007591680894212142,-0.02736332624465769,0.9560769335154211,-0.052790509496966544,-0.014540252960917903,2.5486911075154493
1780771248842278144,3.378791093826294,0.4933525025844574,-0.07916253060102463,0.4899675250053406,-0.015658346936106682,0.04743359237909317,-0.9987516403198242,-0.02097800374031067,0.04364611580967903,0.098666250705719,0.2894074598858685,0.0006281529703680787,-0.02497553568441098,0.956879873003606,-0.04745139571553137,-0.01567663364643187,2.553816281874267
1780771248852312064,3.388824939727783,0.2798580825328827,0.041626472026109695,0.4377157688140869,-0.015567905269563198,0.043598566204309464,-0.9989278316497803,-0.05222689360380173,-0.07101860642433167,0.11909079551696777,0.28717893490013635,0.0011942354670863022,-0.023122713890332616,0.9575970491864575,-0.04361239075062315,-0.015583353255587195,2.5585311158382007
1780771248862347008,3.398859977722168,0.02880854532122612,0.08456222712993622,0.4477281868457794,-0.014751632697880268,0.04208903759717941,-0.9990049600601196,-0.06817988306283951,-0.15933758020401,0.17928755283355713,0.2850752265572272,0.0010691043744164462,-0.02227956391840202,0.9582456048601826,-0.04210147467733177,-0.014765252643834815,2.5629639724319
1780771248872382208,3.4088950157165527,-0.22684799134731293,0.1705748587846756,0.5095362067222595,-0.013325133360922337,0.04330183565616608,-0.9989731907844543,-0.06818731874227524,-0.15751387178897858,0.25904399156570435,0.282804102656858,0.0002659699688101815,-0.02265711643645625,0.9589099805407258,-0.04331537897328256,-0.013338039192571927,2.5677196382834477
1780771248882417152,3.4189300537109375,-0.10650107264518738,0.31244638562202454,0.6083642244338989,-0.01069257128983736,0.045293666422367096,-0.998916506767273,-0.06924822181463242,-0.0875452533364296,0.25285327434539795,0.280132535003503,-0.0012140529839724985,-0.023243951834362498,0.9596791974106769,-0.04530916665775968,-0.010703760797586939,2.5733277510751855
1780771248892451328,3.428964138031006,0.20488610863685608,0.4688202738761902,0.6380347609519958,-0.0065141962841153145,0.04482988268136978,-0.9989733695983887,-0.06691109389066696,-0.05071977898478508,0.15771061182022095,0.27714941444601865,-0.0030852344536181566,-0.02244511315731054,0.9605597049404591,-0.044844913892492386,-0.006520798089162171,2.5796462752987783
1780771248902486272,3.4389991760253906,0.4406208395957947,0.5794892907142639,0.6279155611991882,-0.0009388995240442455,0.04161222651600838,-0.9991334080696106,-0.04970502108335495,-0.03367765620350838,0.1005738377571106,0.27416438111567076,-0.00525521662750241,-0.020141629280046005,0.9614575213834345,-0.041624246857738655,-0.0009397136306492124,2.5860081400733317
1780771248912521216,3.4490339756011963,0.563194990158081,0.606324315071106,0.664396345615387,0.0052714161574840546,0.03643402084708214,-0.9993221759796143,-0.010932426899671555,0.005726013332605362,0.11367154121398926,0.27112590967925715,-0.007478158425201072,-0.01682255664103041,0.9623678393691616,-0.03644208545421438,0.005274943075624969,2.592468195165335
1780771248922555136,3.4590680599212646,0.6270360350608826,0.6347598433494568,0.6663694977760315,0.011677357368171215,0.030468184500932693,-0.9994675517082214,0.03208484873175621,0.045703690499067307,0.09025734663009644,0.26796575007918927,-0.009709142250656833,-0.013113778394406516,0.9632902350864366,-0.030472900474880216,0.011683046571570446,2.5991346989823048
1780771248932590848,3.4691035747528076,0.5611987113952637,0.6593485474586487,0.618588924407959,0.01838804967701435,0.024225546047091484,-0.9995374083518982,0.0456683486700058,0.025136636570096016,0.05143254995346069,0.26492630298835723,-0.012076192561330634,-0.009244913757188535,0.9641486973270341,-0.024227915406075846,0.018394484445190113,2.6054969214462673
1780771248942625792,3.4791386127471924,0.23679237067699432,0.614753246307373,0.6387224197387695,0.024916773661971092,0.020007818937301636,-0.9994893074035645,0.07479941099882126,-0.016193121671676636,0.03453874588012695,0.26198416704684874,-0.014646200146149861,-0.006390902911597107,0.9649398682324883,-0.020009154256482555,0.02492434339149494,2.6116174871177518
1780771248952659712,3.4891724586486816,-0.1899472326040268,0.5174858570098877,0.6601054668426514,0.030780667439103127,0.019547706469893456,-0.999334990978241,0.12751400470733643,-0.042847879230976105,0.007849454879760742,0.2588040870284525,-0.017398631060991085,-0.005457907833535676,0.9657577349339664,-0.019548952187283055,0.03079141525381201,2.618236787480813
1780771248962694656,3.4992074966430664,-0.7015388607978821,0.43614569306373596,0.5550624132156372,0.03560235723853111,0.023793712258338928,-0.9990827441215515,0.1363947093486786,-0.11516334116458893,0.08398264646530151,0.2558396566472166,-0.02025749541441542,-0.0069470362268774805,0.9664820428742272,-0.02379595854231898,0.035619970481571166,2.6244628468187514
1780771248972729600,3.509242534637451,-1.0548015832901,0.37576648592948914,0.5320926308631897,0.03990272805094719,0.03268232196569443,-0.998668909072876,0.10024924576282501,-0.12598982453346252,0.11040908098220825,0.25314480362613817,-0.023446935743505783,-0.010759858991021727,0.9670844068517641,-0.032688144572484285,0.03993466856834676,2.6302121859981287
1780771248982763776,3.5192766189575195,-0.9015641212463379,0.28927475214004517,0.5221827626228333,0.04331168159842491,0.0424639992415905,-0.9981587529182434,0.10869637131690979,-0.052122812718153,0.08130389451980591,0.2504647723998981,-0.026297355606168228,-0.015135055229293457,0.9676501287052054,-0.042476770805561274,0.04336437487589361,2.6359549791570798
1780771248992798720,3.5293116569519043,-0.710204005241394,0.35093411803245544,0.5295426249504089,0.04673080891370773,0.05020512267947197,-0.9976450800895691,0.14380568265914917,0.02723323181271553,0.04921978712081909,0.24785821064845506,-0.02887799453303523,-0.018534526349515322,0.9681884023945304,-0.050226237763698785,0.046806904620444525,2.641529315109477
1780771249002833664,3.53934645652771,-0.7689565420150757,0.3101206421852112,0.5824847221374512,0.05044105648994446,0.057095807045698166,-0.997093677520752,0.15329429507255554,0.07605238258838654,0.04599809646606445,0.24506554927798815,-0.03147439956896779,-0.021506543624856714,0.9687568559060543,-0.05712687219719148,0.0505449928832432,2.647494854929008
1780771249012868608,3.5493814945220947,-0.9323896765708923,0.3066851496696472,0.6408582329750061,0.053781647235155106,0.0654093474149704,-0.9964081048965454,0.1348627507686615,0.031331367790699005,0.13500374555587769,0.24201508746958372,-0.034042689548810144,-0.02523950655650932,0.969346606130022,-0.06545608008614609,0.0539231964791417,2.6540257111981758
1780771249022902784,3.559415578842163,-0.9564095139503479,0.3657554090023041,0.7956448793411255,0.05777245759963989,0.0744955837726593,-0.9955464601516724,0.09032934904098511,-0.1209433376789093,0.19183552265167236,0.23840054896764798,-0.03698245725649697,-0.029309869346400313,0.9700198348329571,-0.07456466146705645,0.05796588924551268,2.66177069756296
1780771249032937728,3.569450616836548,-0.8112016916275024,0.2512107193470001,0.8003315329551697,0.06153464689850807,0.08301784843206406,-0.994646430015564,0.07048439979553223,-0.26249173283576965,0.17651593685150146,0.2343158850266117,-0.0397008610308737,-0.0331756832497433,0.970782802161983,-0.08311350657185343,0.061787102800726794,2.670486494790941
1780771249042972928,3.5794856548309326,-0.2962305545806885,0.07841204851865768,0.6707351803779602,0.06387432664632797,0.08835673332214355,-0.9940388202667236,0.09774676710367203,-0.26363444328308105,0.04240918159484863,0.2306382783967553,-0.04133960935401929,-0.03565993845346281,0.9715067688013418,-0.08847210715558884,0.06416915602236561,2.6782587878977306
1780771249053006592,3.589519500732422,0.2709897458553314,-0.0028007803484797478,0.542982280254364,0.06463053077459335,0.08786670863628387,-0.9940333962440491,0.13631245493888855,-0.07678882777690887,-0.08696025609970093,0.22769486402758318,-0.04154422173432023,-0.03545975073149889,0.9721993918443296,-0.08798016599677178,0.0649270812500225,2.6843329821950723
1780771249063041792,3.5995545387268066,0.5982714891433716,-0.07285043597221375,0.4409824013710022,0.06477820873260498,0.08316005766391754,-0.9944285750389099,0.14884483814239502,0.20895421504974365,-0.10618788003921509,0.22537565359236347,-0.04099478270949468,-0.033243657750792896,0.9728412349010676,-0.08325620373625867,0.0650492315209432,2.6890000564824104
1780771249073076736,3.6095895767211914,0.8289377093315125,-0.11580828577280045,0.3426065444946289,0.06404595077037811,0.07557563483715057,-0.9950811266899109,0.1386060267686844,0.36590689420700073,-0.03183537721633911,0.2235959168601982,-0.0397186763956325,-0.029696227120108745,0.9734194292729899,-0.07564776612105001,0.06427388938591848,2.6924559596700424
1780771249083110912,3.6196236610412598,0.5146487951278687,0.04399961605668068,0.26260972023010254,0.06378007680177689,0.06833876669406891,-0.995621383190155,0.08995221555233002,0.3217369318008423,-0.00961238145828247,0.22228067877777719,-0.03873641636603644,-0.026245093104310304,0.9738592456110973,-0.0683920715608778,0.06397316321187368,2.694975718039033
1780771249093145600,3.6296584606170654,-0.07284989953041077,0.14344656467437744,0.2974952757358551,0.06511955708265305,0.06591399759054184,-0.9956981539726257,0.018986888229846954,0.16786590218544006,-0.04063302278518677,0.2209891771913031,-0.03908606657144387,-0.02496415231179043,0.9741729143659505,-0.06596181989398905,0.06530789789634593,2.6976027244735654
