time,seconds_elapsed,rotationRateX,rotationRateY,rotationRateZ,gravityX,gravityY,gravityZ,accelerationX,accelerationY,accelerationZ,quaternionW,quaternionX,quaternionY,quaternionZ,pitch,roll,yaw
1780770883271327232,0.2160332202911377,-0.13094888627529144,0.004778709728270769,0.011523707769811153,0.026026980951428413,-0.6176989674568176,-0.7859838008880615,0.0014235768467187881,0.015892326831817627,0.023639440536499023,-0.6279777938911183,-0.20690140146905997,-0.2533770193064465,-0.7061414267679704,0.6658133802905968,0.033101795399010044,1.6763920997386852
1780770883281361152,0.22606706619262695,-0.12704043090343475,-0.0025103618390858173,0.007490882184356451,0.02597201056778431,-0.6166877150535583,-0.7867793440818787,-0.003526335582137108,0.01512521505355835,0.028356492519378662,-0.6280767239152136,-0.2065068989970826,-0.2529134878955706,-0.7063350914477585,0.6645280725275807,0.03299855771356484,1.6765674863167153
1780770883291396096,0.23610210418701172,-0.12350349128246307,-0.004607867915183306,0.004870331380516291,0.02588726207613945,-0.6156988739967346,-0.7875562310218811,-0.010857369750738144,0.01099306344985962,0.035511553287506104,-0.6281848801031041,-0.2061378437275157,-0.2524462004605951,-0.7065139165436752,0.6632725596136813,0.03285853631731853,1.6767194051443746
1780770883301431296,0.24613714218139648,-0.1364336758852005,-0.004580304492264986,0.01670115813612938,0.02577373944222927,-0.6146868467330933,-0.7883500456809998,-0.020478926599025726,0.0034044981002807617,0.028294503688812256,-0.6282886294131167,-0.20576865863991317,-0.25196078729197435,-0.7067025105322308,0.6619889064264878,0.03268162859214001,1.676904812674757
1780770883311464960,0.25617098808288574,-0.15029649436473846,-0.011996675282716751,0.032555487006902695,0.025567224249243736,-0.6135620474815369,-0.7892324924468994,-0.021126924082636833,0.004553258419036865,0.033296823501586914,-0.6283584158807195,-0.20537412457655382,-0.2514064764558456,-0.7069525593050353,0.6605636365751871,0.03238372256679157,1.6772739609458602
1780770883321500160,0.2662060260772705,-0.16766110062599182,-0.019126223400235176,0.050733428448438644,0.02518218569457531,-0.6123243570327759,-0.7902054786682129,-0.019841624423861504,0.0020033717155456543,0.032896578311920166,-0.6283821980965429,-0.20498372397372064,-0.250756696218719,-0.7072754298180334,0.6589972084315003,0.03185711224590342,1.6778982781397853
1780770883331535104,0.2762410640716553,-0.18633438646793365,-0.024715932086110115,0.07202966511249542,0.02464250847697258,-0.6109433770179749,-0.7912906408309937,-0.018355894833803177,-0.003939986228942871,0.023331105709075928,-0.6283779114226556,-0.20458142319925807,-0.25000223618972045,-0.7076626357012082,0.6572516672371795,0.03113210815936736,1.6787267512964754
1780770883341569280,0.28627514839172363,-0.21662677824497223,-0.035313718020915985,0.10223736613988876,0.023869521915912628,-0.6093535423278809,-0.7925392389297485,-0.009327888488769531,0.005029201507568359,0.023999810218811035,-0.6283139425670244,-0.20415837472154355,-0.24909782417384616,-0.7081603954099506,0.65524501538241,0.03010867607483164,1.679908824962085
1780770883351604224,0.2963101863861084,-0.2212899774312973,-0.050111304968595505,0.11396033316850662,0.0228579044342041,-0.6076452732086182,-0.793879508972168,0.0019528828561306,0.0077460408210754395,0.033991873264312744,-0.6282085842787006,-0.2037639825513234,-0.24807355548972407,-0.7087267469426719,0.653092370168107,0.02878471073400639,1.681353571378607
1780770883361638912,0.30634498596191406,-0.24582220613956451,-0.05593497306108475,0.13218167424201965,0.021682385355234146,-0.6058136224746704,-0.7953110933303833,-0.004806162789463997,-0.00690305233001709,0.0298539400100708,-0.6280777063928655,-0.2033729438563431,-0.24694919063925538,-0.7093474976889743,0.6507880921320991,0.0272560206501848,1.6829823867919989
1780770883371673088,0.3163790702819824,-0.2688700258731842,-0.0662778913974762,0.14783760905265808,0.020338047295808792,-0.6037832498550415,-0.7968890070915222,-0.006315199658274651,0.0008322000503540039,0.03692501783370972,-0.6279135711716168,-0.2029522884112588,-0.24569465558343936,-0.7100485859398665,0.648238640486088,0.025516266474567232,1.684845617862183
1780770883381708032,0.3264141082763672,-0.30317234992980957,-0.07797329872846603,0.16395345330238342,0.018812889233231544,-0.601548433303833,-0.7986147999763489,0.00331234373152256,0.006089448928833008,0.03829985857009888,-0.6277398101628566,-0.20251332899649113,-0.24429684564887885,-0.7108095610985461,0.6454380477365275,0.023552545128478024,1.6868800198634022
1780770883391743232,0.33644914627075195,-0.3707503080368042,-0.09272640943527222,0.18627367913722992,0.01706680655479431,-0.5988941192626953,-0.8006463646888733,0.01004805974662304,-0.0031871795654296875,0.03396850824356079,-0.6275609000664627,-0.20198101947363215,-0.24265303492387558,-0.7116814922873177,0.6421194851347977,0.021313059316081927,1.6891674898925766
1780770883401777152,0.3464829921722412,-0.4787854254245758,-0.12171797454357147,0.20811451971530914,0.015020511113107204,-0.595530092716217,-0.8031925559043884,0.020578239113092422,-0.013860166072845459,0.04332011938095093,-0.6274185797416696,-0.20127717038437248,-0.24060593588251938,-0.712700693197127,0.6379253723559064,0.01869882933048861,1.6917251894188365
1780770883411812096,0.356518030166626,-0.5804763436317444,-0.15248095989227295,0.23339805006980896,0.01259581744670868,-0.5913019776344299,-0.8063518404960632,0.036506958305835724,-0.014197289943695068,0.05311697721481323,-0.6273278751254975,-0.2003752746485627,-0.23806266124362357,-0.7138876539493659,0.6326723450303993,0.015619475852199197,1.6945812987995568
1780770883421847040,0.36655306816101074,-0.7271955013275146,-0.18644943833351135,0.27226102352142334,0.009722955524921417,-0.5860545635223389,-0.8102132678031921,0.04859613627195358,-0.014134645462036133,0.07078760862350464,-0.6272782882735783,-0.1992387276161841,-0.23494102528338381,-0.7152822556272135,0.6261809221437962,0.011999912637692425,1.6978230025787608
1780770883431881216,0.3765871524810791,-0.9213881492614746,-0.21477562189102173,0.32338839769363403,0.006347023416310549,-0.5793816447257996,-0.8150317072868347,0.058670658618211746,-0.02482062578201294,0.09281796216964722,-0.6272620134303577,-0.19772292240281628,-0.23106232360848203,-0.7169786126464007,0.6179698209145149,0.007787298588061646,1.701595961513114
1780770883441916160,0.38662219047546387,-1.1216520071029663,-0.24422699213027954,0.37436553835868835,0.0024559632875025272,-0.5710079073905945,-0.8209409117698669,0.06617807596921921,-0.03926736116409302,0.11157506704330444,-0.6272797374611748,-0.19573165194367248,-0.226315410963512,-0.7190206005768981,0.607733044265102,0.0029916354787757815,1.7059337810564548
1780770883451951104,0.39665699005126953,-1.352550983428955,-0.26866015791893005,0.4421515166759491,-0.0019796027336269617,-0.5608089566230774,-0.8279429078102112,0.07192588597536087,-0.04536169767379761,0.12684732675552368,-0.627301867603328,-0.193236118950161,-0.22065436289193824,-0.7214318735473265,0.5953625192898413,-0.002390984927672832,1.7108868432912916
1780770883461985024,0.4066910743713379,-1.665920376777649,-0.3006885051727295,0.5266488790512085,-0.007025921251624823,-0.5482397079467773,-0.8362917304039001,0.07871171087026596,-0.04158884286880493,0.13774442672729492,-0.6273014586568172,-0.19005723940500113,-0.21385127042074661,-0.724319552105421,0.58025794489788,-0.008401082426275526,1.716616916468977
1780770883472020224,0.41672611236572266,-2.0802242755889893,-0.36352527141571045,0.6253805160522461,-0.01295542810112238,-0.5324395298957825,-0.8463689088821411,0.1005408763885498,-0.05033940076828003,0.1546422243118286,-0.6273133457439791,-0.18600564938914596,-0.20546881182301335,-0.7277791962975765,0.5614799441022251,-0.015305874625275979,1.7232182518331598
1780770883482054144,0.426760196685791,-2.596034526824951,-0.434422105550766,0.7211381793022156,-0.01988327130675316,-0.5123749375343323,-0.8585315942764282,0.13861192762851715,-0.06184375286102295,0.1987873911857605,-0.6273933152641576,-0.18079474388606623,-0.19505755418084936,-0.7318765955612524,0.5379480613040116,-0.023155487625983413,1.7306120884728238
1780770883492089088,0.4367949962615967,-3.1524455547332764,-0.5188423991203308,0.8287631869316101,-0.027895860373973846,-0.4872068166732788,-0.872840940952301,0.16342443227767944,-0.06540548801422119,0.24442297220230103,-0.6275544637856618,-0.17422581659813002,-0.1822769695609755,-0.7366110195279609,0.5088884273867234,-0.0319489698008045,1.7386544967875612
1780770883502124032,0.44683003425598145,-3.706027030944824,-0.595663845539093,0.9401208758354187,-0.03702631965279579,-0.4566095173358917,-0.8888964056968689,0.166954904794693,-0.06766721606254578,0.2784075140953064,-0.6276924034241896,-0.1662775474911804,-0.16704366930261288,-0.7419233918355642,0.4741804999576381,-0.04163019237143001,1.7472790475972975
1780770883512158208,0.4568641185760498,-4.2736101150512695,-0.6611270308494568,1.0486302375793457,-0.047069646418094635,-0.4202814996242523,-0.9061721563339233,0.15125665068626404,-0.07334032654762268,0.30262601375579834,-0.6277062840317997,-0.15686293254502595,-0.14935846192475494,-0.7477105443712829,0.4337555167187057,-0.05189674269704172,1.7562920228975336
1780770883522193152,0.46689915657043457,-4.864253520965576,-0.7196913957595825,1.1678051948547363,-0.05783958360552788,-0.3777652084827423,-0.9240930676460266,0.11641806364059448,-0.08009001612663269,0.3055780529975891,-0.6274944215922883,-0.14586000159899062,-0.12914456702823762,-0.7538549642412423,0.3873814788987752,-0.06250910155658272,1.7655058984093646
1780770883532228352,0.47693419456481934,-5.512086868286133,-0.8033913373947144,1.3176777362823486,-0.06934299319982529,-0.32840409874916077,-0.941988468170166,0.09394015371799469,-0.09102949500083923,0.2992424964904785,-0.6268520101538846,-0.1331531942648548,-0.10618842257996608,-0.7602966218888266,0.33461345994546143,-0.07348088274057848,1.7750228197135498
1780770883542262016,0.4869680404663086,-6.184410095214844,-0.9580055475234985,1.4595237970352173,-0.08189770579338074,-0.2715587019920349,-0.9589309692382812,0.10263440012931824,-0.09245496988296509,0.31510162353515625,-0.625633172892132,-0.11878868193456557,-0.0801483286793659,-0.7668433127928692,0.27501222202783593,-0.08519846816496786,1.7847207879426783
1780770883552297216,0.49700307846069336,-6.870826244354248,-1.1434190273284912,1.5857645273208618,-0.09575248509645462,-0.20692434906959534,-0.9736599922180176,0.14194083213806152,-0.08602914214134216,0.3368191719055176,-0.6237115106004936,-0.1029029440299843,-0.050803444551670546,-0.7731842409524489,0.20843021641877962,-0.09802762675814451,1.7942532715791764
1780770883562332160,0.5070381164550781,-7.642486572265625,-1.319144606590271,1.651793122291565,-0.11063402891159058,-0.133980393409729,-0.9847890138626099,0.19298571348190308,-0.072165846824646,0.37259113788604736,-0.6210227709158406,-0.08533932835458849,-0.017963885550009624,-0.778925701425691,0.13438451094677883,-0.11187379987056273,1.8029670964171571
1780770883572366336,0.5170722007751465,-8.478215217590332,-1.5326004028320312,1.6669795513153076,-0.1262865960597992,-0.05208083614706993,-0.9906256794929504,0.2259417623281479,-0.04975631833076477,0.4629615545272827,-0.6175678360345935,-0.06586525766756611,0.018679314500228486,-0.7835322757059533,0.05210441061060301,-0.12679771346811905,1.8099119893355307
1780770883582401024,0.5271070003509521,-9.24196720123291,-1.7714428901672363,1.650571584701538,-0.14285783469676971,0.03828522562980652,-0.9890024662017822,0.24544267356395721,-0.03952118381857872,0.5822031497955322,-0.6131425213571327,-0.04468629048147408,0.05917686920124075,-0.7864842743192834,-0.038294583418001016,-0.14345417203974964,1.8144867472972526
1780770883592435968,0.5371420383453369,-9.884453773498535,-1.9198163747787476,1.5479381084442139,-0.1597725749015808,0.1352442055940628,-0.9778454303741455,0.2358528971672058,-0.047414615750312805,0.590012788772583,-0.6076600401383937,-0.02203876392188074,0.10291533306909503,-0.7871924817486751,-0.13565992332944216,-0.16196127638896332,1.8157834594514186
1780770883602470144,0.5471761226654053,-10.213850975036621,-1.9763742685317993,1.3815720081329346,-0.17599885165691376,0.2355765551328659,-0.9557866454124451,0.18143098056316376,-0.0660208910703659,0.5895299315452576,-0.6011524312159826,0.0017519758799874482,0.1486728431405391,-0.7851808507400484,-0.23781176990970807,-0.18210039736704786,1.8129276366968554
1780770883612505088,0.55721116065979,-10.430968284606934,-1.9429500102996826,1.201751947402954,-0.19082427024841309,0.3351588249206543,-0.9226346015930176,0.13306976854801178,-0.10151627659797668,0.6305661797523499,-0.5936701621883009,0.026043953311202437,0.19494716839976337,-0.7803031496828359,-0.3417737895636776,-0.20394974820119374,1.8054982463084728
1780770883622540288,0.5672461986541748,-10.791015625,-1.883070707321167,0.934726893901825,-0.20399625599384308,0.4333363175392151,-0.8778411746025085,0.12135466933250427,-0.04377943277359009,0.6810943484306335,-0.585309148672183,0.05117812392788664,0.24178544788258777,-0.7722265354338983,-0.4481914563569662,-0.22833143980832774,1.792195570216191
1780770883632574208,0.5772800445556641,-10.65264892578125,-1.9267572164535522,0.5400924682617188,-0.21665334701538086,0.5268275141716003,-0.8218966722488403,0.12323904037475586,0.12948352098464966,0.7151461839675903,-0.5764890282721167,0.07624471719681036,0.28851067780544054,-0.7606634240609422,-0.5548637848164717,-0.25773871678537125,1.7707732331867556
1780770883642609152,0.5873150825500488,-9.751191139221191,-2.0109503269195557,0.06561917066574097,-0.23052437603473663,0.6088814735412598,-0.7590269446372986,0.13747628033161163,0.32413244247436523,0.5378660559654236,-0.5677188218926236,0.09868822736658484,0.3327869607541416,-0.7464642786435997,-0.6546498062477738,-0.29485733645012363,1.7404007935878325
1780770883652644096,0.5973501205444336,-8.491891860961914,-2.018455743789673,-0.366140753030777,-0.24637755751609802,0.6751250624656677,-0.6953447461128235,0.13805542886257172,0.6389618515968323,0.332139790058136,-0.5598305598352591,0.1167138888428072,0.37243187330252037,-0.7309324069302271,-0.7411342078910259,-0.34052202697287565,1.700983733076751
1780770883662678272,0.607384204864502,-6.8971381187438965,-1.9145253896713257,-0.5310055613517761,-0.26277127861976624,0.7256386280059814,-0.6359243988990784,0.12327545881271362,1.024407148361206,0.34167391061782837,-0.5528277720079724,0.1302421395930017,0.4062939701963476,-0.7157817960695823,-0.8119620345421171,-0.39184347106464396,1.6560838739992074
1780770883672712960,0.6174190044403076,-5.023348808288574,-1.7521932125091553,-0.6565483212471008,-0.27845609188079834,0.760487973690033,-0.586617648601532,0.07555997371673584,1.2277626991271973,0.21593594551086426,-0.5470642708012979,0.1388593368356051,0.43290789746362945,-0.702872392779523,-0.8640642772165796,-0.4431877976709614,1.6118071973178634
1780770883682748160,0.6274540424346924,-3.883056879043579,-1.573155403137207,-0.7560429573059082,-0.2933955192565918,0.7834769487380981,-0.5477982759475708,-0.0386967658996582,1.0895850658416748,0.1186295747756958,-0.5427261616656837,0.14348205145896956,0.4533362601472412,-0.6923492627887732,-0.900241454199385,-0.49171293359167767,1.5705858439294849
1780770883692782080,0.6374881267547607,-3.4514987468719482,-1.4179834127426147,-0.7840860486030579,-0.30749693512916565,0.8005556464195251,-0.5143503546714783,-0.13455015420913696,0.7633939385414124,0.19284766912460327,-0.5392929364034097,0.14643078591450617,0.47051338847171126,-0.6828896790824982,-0.9282218751737294,-0.5388265062241618,1.5300022372466409
1780770883702817280,0.6475231647491455,-3.257452964782715,-1.324318289756775,-0.7829323410987854,-0.3206884264945984,0.8148640394210815,-0.48286172747612,-0.1817682385444641,0.4126901626586914,0.21571084856987,-0.5361823367720591,0.14893624056343796,0.4861966043893024,-0.6737501828195726,-0.9524946452190872,-0.5862522579464915,1.4883130966026104
1780770883712852224,0.6575582027435303,-3.105541229248047,-1.2065190076828003,-0.7388181686401367,-0.33293795585632324,0.8272693157196045,-0.45252373814582825,-0.20812344551086426,0.19409292936325073,0.11861571669578552,-0.5332158516516012,0.15130910262258038,0.5008429692084174,-0.664787688918442,-0.9742295739108109,-0.6343093998552186,1.4452889375474154
1780770883722886144,0.6675920486450195,-2.978576898574829,-1.069689393043518,-0.6580793857574463,-0.3437724709510803,0.8382865786552429,-0.4231974184513092,-0.2449726164340973,0.1207587718963623,0.051371246576309204,-0.5302996060420615,0.15389046688501462,0.5145085138424199,-0.6560342823040832,-0.9941329783227973,-0.6822091847640012,1.4014843961711276
1780770883732921088,0.6776270866394043,-2.7838566303253174,-0.9476613998413086,-0.5758779644966125,-0.35312527418136597,0.8479871153831482,-0.3952470123767853,-0.28345611691474915,0.09355640411376953,-0.023042112588882446,-0.52742549610237,0.15663878698607042,0.5271060416766326,-0.6476463021153445,-1.0121759425076555,-0.72917299471953,1.357805418030964
1780770883742956288,0.6876621246337891,-2.644970178604126,-0.7861778736114502,-0.4703763723373413,-0.36095431447029114,0.8564977049827576,-0.36894944310188293,-0.31424713134765625,0.04650217294692993,-0.09508556127548218,-0.5246463292103404,0.15957821870064814,0.5385722520472888,-0.6397038443283122,-1.0284456272786626,-0.774444920648758,1.3149335440247596
1780770883752990208,0.6976962089538574,-2.546154260635376,-0.6380587220191956,-0.3446386754512787,-0.36701732873916626,0.8642876148223877,-0.3439553678035736,-0.33755725622177124,-0.011718034744262695,-0.1149221658706665,-0.5219052243474422,0.1630056029802256,0.5490459841299009,-0.6321334665885895,-1.0437324034965911,-0.8178240167063614,1.2728209192673607
1780770883763025152,0.7077310085296631,-2.4886372089385986,-0.5066103935241699,-0.2233620434999466,-0.3714071214199066,0.8716198801994324,-0.31989920139312744,-0.3454050123691559,-0.06954169273376465,-0.09964117407798767,-0.523048651085001,0.17049634553619322,0.5576570572195325,-0.6215864297736282,-1.0584973325541462,-0.8597688273073792,1.218536456054161
1780770883773060096,0.7177660465240479,-2.461876392364502,-0.36443302035331726,-0.10921309143304825,-0.37420654296875,0.8786516189575195,-0.296548068523407,-0.334381103515625,-0.09784412384033203,-0.07509493827819824,-0.5201884017586467,0.17515266306206045,0.5666105421659059,-0.6145551259047172,-1.0730307166256963,-0.9006627140340744,1.1768052732590162
1780770883783094272,0.7278001308441162,-2.3690969944000244,-0.26570284366607666,-0.042589861899614334,-0.3757430911064148,0.8853241205215454,-0.2738950252532959,-0.2999008893966675,-0.09249258041381836,-0.047714442014694214,-0.5173529152784866,0.1803034385759341,0.5749288239415018,-0.60769533222822,-1.0871906724574103,-0.9409089122958385,1.1347313187628192
1780770883793129216,0.737835168838501,-2.201706886291504,-0.20219923555850983,-0.010704366490244865,-0.37656354904174805,0.8912674188613892,-0.25267043709754944,-0.25110670924186707,-0.05731356143951416,-0.04208362102508545,-0.5146574553477629,0.1854443537972375,0.582473325554896,-0.601217876198191,-1.1001323593272698,-0.9798065212632182,1.093558582496329
1780770883803164160,0.7478702068328857,-2.1017379760742188,-0.1692693829536438,-0.017683979123830795,-0.3771376609802246,0.8965160250663757,-0.23243556916713715,-0.2229142189025879,0.029692471027374268,-0.04895174503326416,-0.5120894818653116,0.19044650659214168,0.5895017737736935,-0.5949640319663613,-1.1118414987138217,-1.018466856103559,1.052428322145242
1780770883813198080,0.757904052734375,-1.6684678792953491,-0.008266918361186981,0.14377547800540924,-0.3768385052680969,0.9009076356887817,-0.21530911326408386,-0.2604295015335083,0.11015486717224121,-0.06406405568122864,-0.5098775943021016,0.19513746030160947,0.5952031741979262,-0.5896433813994647,-1.121856332047702,-1.0517045873079494,1.016378846982383
1780770883823233024,0.7679390907287598,-1.5570495128631592,-0.2020491659641266,0.04841381311416626,-0.3759520649909973,0.9047792553901672,-0.20008660852909088,-0.2839600145816803,0.14322489500045776,-0.3615131378173828,-0.507628715233578,0.199417027923817,0.6001579340369304,-0.5851123440267334,-1.1308610993336368,-1.081711584389129,0.984157482814148
1780770883833268224,0.7779741287231445,-1.0134823322296143,-0.3732006847858429,-0.22541454434394836,-0.37728872895240784,0.9069250226020813,-0.18745720386505127,-0.29388436675071716,0.2133752703666687,-0.6941193342208862,-0.5057109877795376,0.2015226989077258,0.6046982731077191,-0.5813647662257448,-1.1359268219990857,-1.1096691369479053,0.9565540866415337
1780770883843301888,0.7880079746246338,-1.0539131164550781,-0.4894115924835205,-0.3395043611526489,-0.380810409784317,0.907621443271637,-0.17665374279022217,-0.2871430516242981,0.3313310742378235,-0.9555789232254028,-0.504296332429779,0.20195026955529227,0.6090067466545819,-0.5779376766552619,-1.1375828377327601,-1.1364525513207648,0.9316515116739744
1780770883853337088,0.7980430126190186,-1.0770139694213867,-0.795870840549469,-0.2942391335964203,-0.3847607970237732,0.9082503914833069,-0.16443970799446106,-0.2077074646949768,0.4878219962120056,-0.8751721382141113,-0.5021554565363118,0.20184350458388756,0.6140352988882708,-0.5745083196238595,-1.1390835494741922,-1.1669101432928062,0.9051751471219279
1780770883863372032,0.8080780506134033,-0.9991090297698975,-1.0108884572982788,-0.4305000603199005,-0.38945484161376953,0.9085429906845093,-0.15124374628067017,-0.12427806854248047,0.4006305932998657,-0.6874861121177673,-0.4992782471727712,0.20076893313894525,0.6197337824038942,-0.5712645428377245,-1.1397833281658636,-1.2003755427825258,0.8784431796361749
1780770883873406208,0.8181121349334717,-0.6465837359428406,-0.966788113117218,-0.5280385613441467,-0.39532461762428284,0.9078454375267029,-0.13976843655109406,-0.17242437601089478,0.3264227509498596,-0.5363942384719849,-0.49669002266424916,0.1984427673232913,0.6250889937107625,-0.568492124202381,-1.138116689092214,-1.2309592555376843,0.855889116511874
1780770883883441152,0.8281471729278564,-0.35694900155067444,-0.6953217387199402,-0.4930955171585083,-0.401268869638443,0.9064139723777771,-0.13189810514450073,-0.2246924638748169,0.34871309995651245,-0.37628060579299927,-0.49505837417918624,0.19562608419530675,0.6291115832812317,-0.5664506362929215,-1.1347153452555148,-1.2532192526521,0.840641358877727
1780770883893475072,0.8381810188293457,-0.2778560519218445,-0.38076725602149963,-0.32069605588912964,-0.4056380093097687,0.9051564335823059,-0.12708120048046112,-0.20474407076835632,0.2576853632926941,-0.08887642621994019,-0.4942232305827116,0.19354655300177567,0.6316637785798266,-0.5650521887757186,-1.1317475249653581,-1.267194441634935,0.8311590230230805
1780770883903510016,0.8482160568237305,-0.5542444586753845,-0.14053639769554138,-0.2505715489387512,-0.40848806500434875,0.9045143723487854,-0.12243879586458206,-0.10777780413627625,0.0413627028465271,0.06517261266708374,-0.49383322047043504,0.19293965031160232,0.6336835900758211,-0.563336631321323,-1.1302395637606024,-1.279581262900526,0.8202446795215849
1780770883913545216,0.8582510948181152,-0.8847553133964539,-0.016698885709047318,-0.18759791553020477,-0.4106091856956482,0.9044610261917114,-0.1155429258942604,0.01752755045890808,-0.08912301063537598,0.10397674143314362,-0.49352278283611045,0.1938147955171634,0.6361323458246245,-0.5605413560587235,-1.1301144390500024,-1.2964955185165994,0.8023701470843727
1780770883923579136,0.8682851791381836,-0.854797899723053,0.051696814596652985,-0.16419219970703125,-0.41211894154548645,0.9047417640686035,-0.10770407319068909,0.12349897623062134,-0.06694275140762329,0.03032679110765457,-0.49324223166753756,0.19553065635888572,0.638682804979685,-0.557282761507104,-1.1307731455647763,-1.3151714565159458,0.7813796814781627
1780770883933614080,0.8783199787139893,-0.7073813080787659,0.07795478403568268,-0.16247045993804932,-0.41360610723495483,0.9048639535903931,-0.1007532998919487,0.17602676153182983,0.009808838367462158,-0.059341900050640106,-0.4931398415453158,0.197123663326627,0.6409099873384422,-0.5542470138328346,-1.1310600395572936,-1.3318528197103499,0.7622420101268625
1780770883943649024,0.888355016708374,-0.5036521553993225,0.10720521211624146,-0.10143080353736877,-0.4146850109100342,0.9049166440963745,-0.0957181453704834,0.22214967012405396,0.10330772399902344,-0.09921287000179291,-0.49322035011714377,0.19846260498564938,0.6424589639655911,-0.5518991190934169,-1.1311838661132094,-1.343948001372748,0.747786159795873
1780770883953683200,0.8983891010284424,-0.2764062285423279,0.07713519781827927,-0.06653673946857452,-0.41534262895584106,0.9049463272094727,-0.09253475815057755,0.2525313198566437,0.14845943450927734,-0.11408454179763794,-0.4933556768318499,0.19942909090929564,0.6433977464932115,-0.5503340575569675,-1.131253585490787,-1.3515850734278378,0.7383132073841975
1780770883963718144,0.9084241390228271,-0.11662507802248001,0.02842624858021736,-0.05509313568472862,-0.41585251688957214,0.9048574566841125,-0.0911024808883667,0.22241684794425964,0.13330471515655518,-0.1056901142001152,-0.4935099660505921,0.19982241104099824,0.6438320940709095,-0.5495444653175129,-1.1310447072739254,-1.355129433206507,0.7338239108421236
1780770883973753088,0.9184591770172119,-0.08871515095233917,0.08394703269004822,-0.02860613539814949,-0.41618281602859497,0.9047726988792419,-0.09043364226818085,0.13592463731765747,0.08657550811767578,-0.04140228033065796,-0.49369239263684994,0.20007022789301934,0.6440148143764416,-0.549076209125521,-1.130845776758474,-1.3568294421627873,0.7313772163666798
1780770883983787008,0.9284930229187012,-0.09175701439380646,0.11229638010263443,-0.037184711545705795,-0.4163629710674286,0.9047242999076843,-0.0900883600115776,0.02750799059867859,0.030349552631378174,-4.5299530029296875e-05,-0.4940271651899118,0.20047390617586994,0.6440233157168546,-0.5486176942936306,-1.130732052060368,-1.357711273943922,0.7292424467122653
1780770883993822208,0.9385280609130859,-0.15208320319652557,0.11654092371463776,-0.05447821319103241,-0.41666895151138306,0.9046390652656555,-0.08952634781599045,-0.06334197521209717,-0.02402395009994507,-0.011410526931285858,-0.49439193841923046,0.20091129525326423,0.644105174407882,-0.5480325603933649,-1.1305320488225594,-1.3591520092981642,0.7264296155118111
1780770884003857152,0.9485630989074707,-0.2870197296142578,0.17500662803649902,-0.05681779980659485,-0.41707444190979004,0.9045827984809875,-0.08819650113582611,-0.14115303754806519,-0.0684623122215271,-0.031081490218639374,-0.494809775546531,0.20165178960067226,0.6443898701385324,-0.5470478958335538,-1.1304000414469217,-1.3624017557901653,0.7212186115211966
1780770884013891328,0.9585971832275391,-0.36384713649749756,0.20952200889587402,-0.006166873034089804,-0.4172172248363495,0.9047232270240784,-0.08605644851922989,-0.1896858513355255,-0.15334993600845337,-0.031894028186798096,-0.4952318136428382,0.20291571172106634,0.644823222407745,-0.5456864669467296,-1.130729610131,-1.3673860292444335,0.7134470300030984
1780770884023926016,0.9686319828033447,-0.46408000588417053,0.1663665473461151,0.03716462105512619,-0.41688311100006104,0.9051504731178284,-0.08313321322202682,-0.15587082505226135,-0.22170931100845337,-0.07503938674926758,-0.49537535469923594,0.20451337101405725,0.6454515287552269,-0.5442149215673765,-1.131733567541667,-1.3739622548971846,0.7040762586136022
1780770884033960960,0.9786670207977295,-0.5087544918060303,0.1475566327571869,0.04511602222919464,-0.41637560725212097,0.9057335257530212,-0.07923494279384613,-0.08498239517211914,-0.17277759313583374,-0.07138454914093018,-0.49524534162597555,0.20631272952853677,0.6463881079689655,-0.5425399092175948,-1.1331071730424562,-1.3827479486050462,0.6926636240823383
1780770884043995136,0.9887011051177979,-0.3774905204772949,0.1347602754831314,0.07080434262752533,-0.4157436788082123,0.9063188433647156,-0.07578608393669128,-0.030102908611297607,-0.045921385288238525,-0.0551038458943367,-0.49509304833142176,0.20799514635274058,0.6471823363508321,-0.5410877941802066,-1.1344901389839965,-1.3904857503587407,0.682532829943555
1780770884054030080,0.9987361431121826,-0.12019132077693939,0.07525034248828888,0.05411191284656525,-0.41510018706321716,0.906768262386322,-0.0739121362566948,0.03128063678741455,0.07945293188095093,-0.07675313204526901,-0.49500991005877304,0.20912492258863843,0.6475420438848886,-0.5402973119897279,-1.1355548847200205,-1.394584548321783,0.6768110615091727
1780770884064065280,1.0087711811065674,0.052368734031915665,0.042984817177057266,0.04740580543875694,-0.4145945906639099,0.9069995284080505,-0.07391462475061417,0.06530562043190002,0.150800883769989,-0.07798660546541214,-0.4950179737391014,0.20949449318187777,0.6474216119539298,-0.5402912244542399,-1.1361036530953668,-1.3943682649314224,0.6764640447952347
1780770884074098944,1.0188050270080566,0.11294100433588028,0.06588055193424225,0.08984541147947311,-0.41399112343788147,0.9071860909461975,-0.07499753683805466,0.050374239683151245,0.14530408382415771,-0.01208435744047165,-0.4951370246811189,0.20962234374878347,0.6469619026582161,-0.5406829374100961,-1.1365469115185525,-1.3915825812340359,0.6788914001115998
1780770884084134144,1.0288400650024414,0.12939400970935822,0.05097709968686104,0.13324694335460663,-0.41289401054382324,0.9075719714164734,-0.07636593282222748,0.03279760479927063,0.08423411846160889,0.027568340301513672,-0.4951406930681272,0.20984620132406442,0.6463602739706845,-0.5413120099455848,-1.1374649275646684,-1.3879101221966956,0.6823011335839572
1780770884094169088,1.0388751029968262,0.1047762855887413,0.07943510264158249,0.17298290133476257,-0.41146546602249146,0.9081057906150818,-0.07771755009889603,0.026272624731063843,0.03609281778335571,-0.0033981800079345703,-0.4950619510327087,0.21021384590003434,0.6457177132099098,-0.5420077522705176,-1.1387379943163292,-1.3841156982882215,0.6857749140685158
1780770884104203264,1.0489091873168945,0.029869016259908676,0.06217116490006447,0.23936006426811218,-0.40951207280158997,0.9089016914367676,-0.07872416824102402,0.02218303084373474,0.010608136653900146,0.024219758808612823,-0.4948218684122546,0.21090283880309763,0.6451030207539571,-0.5426908679738577,-1.140642732631087,-1.3808743325066974,0.688508142722979
1780770884114237952,1.0589439868927002,-0.020449014380574226,0.04537913575768471,0.24964891374111176,-0.4072204828262329,0.9099151492118835,-0.07890602201223373,0.016534417867660522,0.018704354763031006,0.029208116233348846,-0.4943087683368335,0.21184389387425856,0.6447240912945819,-0.543242130833702,-1.1430794973487117,-1.3794008501650799,0.6895773005626149
1780770884124273152,1.068979024887085,0.056096360087394714,0.06884850561618805,0.24895942211151123,-0.40490037202835083,0.9109195470809937,-0.07925380021333694,-0.008963704109191895,0.04463154077529907,-0.011200301349163055,-0.49383385594567986,0.2127808252096988,0.6442805458865787,-0.5438335959812192,-1.1455073964664375,-1.3775035891253808,0.6910085260330082
1780770884134307072,1.0790131092071533,0.16224117577075958,0.05930320546030998,0.23106111586093903,-0.40262436866760254,0.9118150472640991,-0.08054102957248688,-0.016015738248825073,0.0658612847328186,-0.01738988608121872,-0.4935055166083164,0.21347377786948246,0.6435514212806485,-0.5447226359235061,-1.147683003745466,-1.3733621800175375,0.6948147711992109
1780770884144342272,1.089048147201538,0.22876906394958496,0.04599898308515549,0.20607002079486847,-0.4005909562110901,0.9125285744667053,-0.08257374912500381,-0.008314043283462524,0.0642474889755249,0.0009850338101387024,-0.4932990204692456,0.21383330314517968,0.6426417692952149,-0.5458414627392136,-1.1494241579858417,-1.3675136923351787,0.700627820788994
1780770884154377216,1.0990831851959229,0.25964468717575073,0.06614313274621964,0.18322382867336273,-0.39876091480255127,0.9131007790565491,-0.08506829291582108,-0.014309734106063843,-0.006332039833068848,0.0067601874470710754,-0.49320244171581756,0.21398972324119245,0.6416184617137427,-0.5470698600837269,-1.1508252953566334,-1.360615424215347,0.7076032864026086
1780770884164411136,1.109117031097412,0.24424202740192413,0.11354979872703552,0.1715828776359558,-0.3970626890659332,0.9135823845863342,-0.08779828250408173,-0.03329622745513916,-0.08335167169570923,0.0054923295974731445,-0.4932950241973016,0.2141783572791189,0.6404908188859915,-0.5482327781869686,-1.15200803842433,-1.353178493964799,0.7147172153673845
1780770884174446080,1.1191520690917969,0.20111000537872314,0.11146028339862823,0.15201130509376526,-0.39546483755111694,0.9140307307243347,-0.0903066098690033,-0.02769187092781067,-0.10690188407897949,0.0015614703297615051,-0.4934481969095983,0.21445585030280703,0.6394180049782244,-0.5492377511175982,-1.1531119708537114,-1.3462902831739854,0.7210199044258838
1780770884184481024,1.1291871070861816,0.19242118299007416,0.13343508541584015,0.11204791814088821,-0.3941342830657959,0.9143846035003662,-0.09251419454813004,-0.010315179824829102,-0.09007436037063599,-0.030303768813610077,-0.49367108428800255,0.21474775048869435,0.6384561893527162,-0.5500417284076401,-1.1539852235593417,-1.3402425154558488,0.7263116692720536
1780770884194515200,1.13922119140625,0.2690509557723999,0.12631165981292725,0.07869156450033188,-0.3931296765804291,0.9145419597625732,-0.09519460797309875,0.008287817239761353,-0.06548196077346802,-0.04691045731306076,-0.49409614965416876,0.21485249321917016,0.6373704594936584,-0.5508777385260295,-1.1543741155633036,-1.3332236217878182,0.732488104571273
1780770884204550144,1.1492559909820557,0.25528454780578613,0.13690185546875,0.026485877111554146,-0.39251622557640076,0.9144908785820007,-0.09817039221525192,0.023818105459213257,-0.03143423795700073,-0.02588355541229248,-0.4946403573591894,0.2147003030066067,0.6362535530296165,-0.5517391702971489,-1.1542478270981011,-1.3257185568045822,0.7393174107133673
1780770884214585088,1.1592910289764404,0.23056191205978394,0.1731243133544922,-0.004258185625076294,-0.39228203892707825,0.9142881035804749,-0.10095588862895966,0.01053762435913086,0.014483869075775146,0.01448434591293335,-0.4953791734818515,0.21458348461795868,0.6351975935769184,-0.552338145376272,-1.1537469223651,-1.3189070243337546,0.7450183489618257
1780770884224619264,1.1693251132965088,0.24874889850616455,0.14910432696342468,-0.04129210487008095,-0.39234259724617004,0.9139391183853149,-0.10383975505828857,0.010445624589920044,0.013337552547454834,0.0033453702926635742,-0.4962331668905776,0.21435160540197318,0.6341399785525678,-0.5528766208023544,-1.152886139685587,-1.3120626871471444,0.7507057674972505
1780770884234654208,1.1793601512908936,0.2533862590789795,0.12619608640670776,-0.05575040355324745,-0.3926456868648529,0.9134810566902161,-0.1066848412156105,0.003302454948425293,-0.0015548467636108398,0.0035811737179756165,-0.4970741074375986,0.21394961445263,0.6331533324602696,-0.553407352819169,-1.1517589738404725,-1.3054935415251103,0.7563914378398361
1780770884244689152,1.1893951892852783,0.25117048621177673,0.12057720869779587,-0.0907648429274559,-0.39319148659706116,0.912915825843811,-0.10947702080011368,-0.01578986644744873,-0.006284356117248535,-0.005406379699707031,-0.49794081102344434,0.21342797213213566,0.6322262188424617,-0.5538894037257852,-1.1503719201196032,-1.2992423966887374,0.7618840370621123
1780770884254723072,1.1994290351867676,0.29252272844314575,0.09030186384916306,-0.09883155673742294,-0.39394983649253845,0.9122393131256104,-0.11235176771879196,-0.01260530948638916,0.004386603832244873,-0.0010515376925468445,-0.49883937673943946,0.21275977929621295,0.6313140200178584,-0.5543781345813141,-1.1487174616810867,-1.2929786056430899,0.7675468412645639
1780770884264758016,1.2094640731811523,0.33279532194137573,0.034543927758932114,-0.09508182853460312,-0.3947802782058716,0.9114807844161987,-0.11554794013500214,0.011998295783996582,0.009097158908843994,0.010704763233661652,-0.4996559948822886,0.21181586943269934,0.6303650257484935,-0.5550836474665923,-1.1468696787807349,-1.2860600634711683,0.7744421900892055
1780770884274793216,1.219499111175537,0.2523129880428314,0.016930313780903816,-0.10009549558162689,-0.39565011858940125,0.9107453227043152,-0.11833827197551727,0.014287203550338745,0.0015013813972473145,0.025229156017303467,-0.5003156113490574,0.21082995171640723,0.6295884326642227,-0.555745831940288,-1.1450852888282574,-1.2801669881343454,0.7806549120210892
1780770884284828416,1.229534387588501,0.212084099650383,0.023129621520638466,-0.06025301292538643,-0.3963943421840668,0.9101307988166809,-0.12055492401123047,-0.0077804625034332275,-0.003819763660430908,0.04575634002685547,-0.5008654617301854,0.21003853304396553,0.6289724591793288,-0.5562475035439679,-1.1435996837161297,-1.2755559956165847,0.7854806997411131
1780770884294863360,1.2395694255828857,0.15550497174263,0.009548564441502094,-0.026422344148159027,-0.39676547050476074,0.9097347259521484,-0.12231100350618362,-0.004494905471801758,-0.013372421264648438,0.05042684078216553,-0.5012324312934892,0.20948453012922705,0.6284590135768731,-0.5567060404162864,-1.142644722664747,-1.2717695033206626,0.7894585659118679
1780770884304898560,1.2496044635772705,0.09239178895950317,-0.01120185386389494,0.009729268960654736,-0.39686107635498047,0.9095394611358643,-0.123446524143219,0.011988669633865356,0.004233002662658691,0.03453357517719269,-0.5013913383168377,0.20913753629599244,0.6281227817745696,-0.5570725805558385,-1.1421746200473173,-1.269226364645732,0.7922569504715444
1780770884314932480,1.2596385478973389,0.033229660242795944,-0.04655158892273903,0.05652553588151932,-0.3965718150138855,0.9096046090126038,-0.12389607727527618,0.031261175870895386,0.01835864782333374,0.02613300085067749,-0.5012718496485824,0.20902041903273852,0.6279828217649928,-0.5573819092294152,-1.142331464472011,-1.2679863832949325,0.7939172684055447
1780770884324967424,1.2696733474731445,0.006807373836636543,-0.0843072235584259,0.09270351380109787,-0.3959834575653076,0.9098696708679199,-0.12383228540420532,0.03984329104423523,0.02637922763824463,0.01631884276866913,-0.5008815149419094,0.20901270298242264,0.6280107858250377,-0.557704183677195,-1.1429698588370096,-1.267710273119332,0.794948389223876
1780770884335001344,1.279707431793213,-0.03874786198139191,-0.10282151401042938,0.13705472648143768,-0.3950369358062744,0.9103544354438782,-0.12329047918319702,0.009691506624221802,0.03567516803741455,0.005202718079090118,-0.5002357403960912,0.20915796722591598,0.6281780826148241,-0.5580406781152344,-1.1441397147653776,-1.2682771795232055,0.7953767280630649
1780770884345036544,1.2897424697875977,-0.009674398228526115,-0.10257478058338165,0.17090509831905365,-0.3937486410140991,0.9110027551651001,-0.12262021005153656,-0.02461683750152588,0.06391167640686035,-0.03330933302640915,-0.4994558602888712,0.20943969149667474,0.6283509451318166,-0.5584387390105584,-1.145709142272601,-1.268897975675618,0.7957981096198735
1780770884355071488,1.2997775077819824,0.11853550374507904,-0.11435554176568985,0.19561390578746796,-0.3921906352043152,0.9116700887680054,-0.12265465408563614,-0.03671863675117493,0.09850752353668213,-0.07323771715164185,-0.4986534483159227,0.20959771923871184,0.6282845445488906,-0.5591708888521475,-1.1473301917154353,-1.267690598793803,0.7983001212742238
1780770884365105408,1.3098113536834717,0.21493980288505554,-0.09949257224798203,0.18735598027706146,-0.39054250717163086,0.9122248888015747,-0.12378311902284622,-0.02446603775024414,0.09866988658905029,-0.10009384155273438,-0.4979426002783719,0.20948139761609508,0.6278741791432804,-0.5603077108367879,-1.1486823673974953,-1.2638609649380077,0.8036953759959657
1780770884375140352,1.3198463916778564,0.3116423785686493,-0.11165149509906769,0.2221645563840866,-0.38882651925086975,0.9126787781715393,-0.12582352757453918,-0.002057880163192749,0.05979436635971069,-0.05067485570907593,-0.49734198904269705,0.20917152496414024,0.6271646576139779,-0.5617497896453146,-1.1497916045787737,-1.2578328996980674,0.8113971891126917
1780770884385175552,1.3298814296722412,0.3020171821117401,-0.1218082532286644,0.23476317524909973,-0.38685256242752075,0.9131760597229004,-0.12827597558498383,0.005611777305603027,-0.003981113433837891,0.0026503801345825195,-0.4966371301580663,0.20876124146687744,0.6263232028942687,-0.5634622131600558,-1.1510100904464318,-1.250616676902525,0.82064293353685
1780770884395209472,1.3399155139923096,0.15395447611808777,-0.04041912779211998,0.24660812318325043,-0.38475826382637024,0.9138044118881226,-0.13008740544319153,-0.04573792219161987,-0.03024423122406006,0.02640390396118164,-0.4959360019090097,0.20869677718837948,0.6256212523075471,-0.5648816331191375,-1.1525543961656513,-1.244760425894584,0.8279800702775099
1780770884405244672,1.3499505519866943,0.08485583961009979,0.021075258031487465,0.2783857583999634,-0.38237226009368896,0.9146567583084106,-0.13112840056419373,-0.08439409732818604,-0.050170063972473145,0.013513624668121338,-0.4953097580075121,0.20922237687837916,0.6250294389719454,-0.5658909229194296,-1.1546579408056048,-1.240430336511119,0.8327427871660638
1780770884415279360,1.3599853515625,0.05656587332487106,-0.005859686527401209,0.3072831928730011,-0.37964919209480286,0.9156889319419861,-0.1318347007036209,-0.033253610134124756,-0.09998458623886108,-0.031159698963165283,-0.49458782049105104,0.21000472662547018,0.6244843167941198,-0.5668335934126312,-1.1572188432173127,-1.236569923761718,0.8368205035875117
1780770884425313536,1.3700194358825684,0.053922154009342194,-0.058338336646556854,0.31223931908607483,-0.37684011459350586,0.9167934060096741,-0.13221733272075653,0.03257131576538086,-0.07531702518463135,-0.026458844542503357,-0.49365824303097416,0.21074431221255144,0.6240818601982138,-0.5678117753836546,-1.1599756681704165,-1.2333574230705904,0.8406923049011363
1780770884435348480,1.3800544738769531,0.131537064909935,-0.07570081949234009,0.30275848507881165,-0.37410199642181396,0.9178329706192017,-0.1327792853116989,0.04478684067726135,0.0010970830917358398,-0.009661495685577393,-0.49266361417182075,0.211292740090448,0.6236711737309162,-0.5689220057777467,-1.162586670179494,-1.2297380423496058,0.8453806011679568
1780770884445383424,1.390089511871338,0.21479280292987823,-0.10311166942119598,0.27580809593200684,-0.3715483844280243,0.9186862111091614,-0.13404284417629242,0.026669204235076904,0.06416290998458862,-0.012700915336608887,-0.4917424653780415,0.2115203856327319,0.6230872386785586,-0.5702725428048228,-1.1647413365158232,-1.224560846618262,0.8519826103803084
1780770884455417344,1.4001233577728271,0.35958218574523926,-0.10072308033704758,0.25038155913352966,-0.36925622820854187,0.9192762970924377,-0.1363123059272766,-6.750226020812988e-05,0.09941571950912476,-0.02599543333053589,-0.49096831568504473,0.21133803380777177,0.6222379620661987,-0.57193209047602,-1.166237844496616,-1.2171610045808177,0.8611661729142909
1780770884465452544,1.410158395767212,0.4172627925872803,-0.1005832701921463,0.21792881190776825,-0.3672495186328888,0.9195814728736877,-0.13963499665260315,-0.011687308549880981,0.0710192322731018,-0.05535705387592316,-0.4904119436944461,0.21079062788448216,0.6210876027529012,-0.5738586314040136,-1.1670138592965476,-1.2074585382649206,0.8728102986681942
1780770884475487488,1.4201934337615967,0.393821656703949,-0.11012350767850876,0.20893344283103943,-0.36543741822242737,0.9197869300842285,-0.14299547672271729,-0.010111898183822632,-0.0012534856796264648,-0.02266921103000641,-0.4899001901949933,0.21015020654800265,0.6199509278047761,-0.5757566005268577,-1.1675371717128138,-1.1978128168820186,0.8844466495475546
1780770884485521664,1.430227518081665,0.31092438101768494,-0.10658283531665802,0.22637102007865906,-0.36359331011772156,0.9200513958930969,-0.14596298336982727,0.0011513233184814453,-0.0796278715133667,0.0019352585077285767,-0.48931535544708593,0.2096104461377987,0.6189361607996312,-0.5775395043607513,-1.1682116219740915,-1.1890442566034118,0.8951752121230493
1780770884495556608,1.4402625560760498,0.21334244310855865,-0.07860366255044937,0.22956842184066772,-0.3616146147251129,0.920502781867981,-0.1480184942483902,0.017605215311050415,-0.09521591663360596,0.001305222511291504,-0.48863527259539685,0.2094165599916108,0.6181710595223465,-0.5790032888944593,-1.169365315000756,-1.1822756987876915,0.903541842601799
1780770884505591296,1.4502973556518555,0.061464227735996246,-0.06293042749166489,0.247368723154068,-0.35954076051712036,0.9211389422416687,-0.14910906553268433,0.03339943289756775,-0.1118280291557312,0.020706355571746826,-0.4878839851288766,0.20958578845307696,0.6176724588658569,-0.5801066722245475,-1.1709965051425402,-1.1776643097309076,0.9093184009655044
1780770884515625472,1.4603314399719238,0.06449517607688904,-0.01685348153114319,0.20965330302715302,-0.3574673533439636,0.921909511089325,-0.1493321657180786,0.06747406721115112,-0.0926552414894104,0.03028307855129242,-0.4871410964695252,0.21009884576118448,0.6174077985051613,-0.5808267506493022,-1.1729808655627487,-1.1750820581033155,0.9125181208146222
1780770884525660416,1.4703664779663086,0.20207726955413818,-0.27280908823013306,0.3108896315097809,-0.35536032915115356,0.9225651621818542,-0.1503089815378189,0.09966877102851868,-0.024768412113189697,0.1097358912229538,-0.4862091824886429,0.2101438477047007,0.6169968187321669,-0.5820268455485658,-1.174676743175796,-1.1706410522663715,0.9186375424834843
1780770884535695616,1.4804015159606934,0.1969863772392273,-0.29139024019241333,0.2653117775917053,-0.3529977798461914,0.9233690500259399,-0.15093770623207092,0.031357765197753906,0.03642404079437256,0.032666802406311035,-0.4844913588741567,0.20966387113929064,0.6169053448315033,-0.5837268054345696,-1.1767654048002814,-1.1667354218497425,0.9264483401108438
1780770884545729280,1.4904353618621826,0.30159664154052734,-0.0344507172703743,0.17965571582317352,-0.35124704241752625,0.9237539172172546,-0.15265707671642303,-0.12862658500671387,0.011213123798370361,-0.21684974431991577,-0.483697939681115,0.2093392616991521,0.6163185329787781,-0.5851195009730584,-1.1777691443617504,-1.1608103247261148,0.9343506883319909
1780770884555764480,1.5004703998565674,0.3588287830352783,-0.3265552520751953,0.24264080822467804,-0.34957155585289,0.9239330291748047,-0.15539486706256866,-0.05985230207443237,-0.0014934539794921875,-0.10206663608551025,-0.48297564961564876,0.20865545660643894,0.6154392459238415,-0.5868832767416382,-1.1782370172315662,-1.1525009575087128,0.9450536757831248
1780770884565799424,1.5105054378509521,0.20596176385879517,-0.38333427906036377,0.18062430620193481,-0.348143070936203,0.9242790341377258,-0.1565399020910263,0.02924966812133789,0.03128737211227417,0.093780517578125,-0.4813959440221488,0.20751906934116648,0.6153583367500457,-0.5886662217033684,-1.1791424509478337,-1.1482397836050078,0.95393288919845
1780770884575833600,1.5205395221710205,0.06539905071258545,-0.12879599630832672,0.19591538608074188,-0.34684526920318604,0.9247032403945923,-0.15691494941711426,-0.13289105892181396,0.017908453941345215,0.03662991523742676,-0.4802109213187102,0.20700391841280338,0.6153794799836968,-0.5897922903471977,-1.180255295369175,-1.1459432080287215,0.959178080361286
1780770884585868544,1.5305745601654053,0.05678824707865715,-0.03066530078649521,0.15473465621471405,-0.34527572989463806,0.9252384305000305,-0.15722166001796722,-0.13995376229286194,0.002435028553009033,-0.07289613783359528,-0.47954732198930367,0.20724068572454532,0.6151751503198717,-0.5904619215030714,-1.1816635871641652,-1.1435013819219646,0.962486956428404
1780770884595903488,1.540609359741211,0.03488747775554657,-0.15185323357582092,0.14059166610240936,-0.34407833218574524,0.9256662130355835,-0.1573285311460495,0.03662899136543274,-0.006812453269958496,-0.011067450046539307,-0.4788952966348593,0.20731752215735733,0.6151058270276903,-0.5910360420439762,-1.1827926609565607,-1.1419327535053077,0.9651358298566847
1780770884605937408,1.5506434440612793,0.10046596080064774,-0.1863132268190384,0.16343466937541962,-0.3429926931858063,0.9260619282722473,-0.15737003087997437,0.09740251302719116,-0.0021880269050598145,0.10542912781238556,-0.47797469004798787,0.20706573127123437,0.6151737703254387,-0.5917982666535283,-1.1838398838666546,-1.1406364723516156,0.9684919315982328
1780770884615972608,1.560678482055664,0.1184454932808876,-0.050503719598054886,0.18877437710762024,-0.34151843190193176,0.9265133738517761,-0.15791836380958557,-0.019397705793380737,0.021728813648223877,0.06554162502288818,-0.4771544999362119,0.20698785262980945,0.6149771100455725,-0.5926911730696929,-1.1850380278923833,-1.1376779678665518,0.9730714491191923
1780770884626007552,1.5707135200500488,0.19481536746025085,0.06874703615903854,0.19540804624557495,-0.33971357345581055,0.9269106388092041,-0.15947239100933075,-0.09775590896606445,0.0452878475189209,-0.07406336069107056,-0.47682742333142003,0.20726608547808434,0.6142512304818498,-0.593609153757001,-1.1860951396850328,-1.1319008444416674,0.9790460564914998
1780770884636041472,1.580747365951538,0.1909058392047882,-0.015347064472734928,0.18316470086574554,-0.33785995841026306,0.9272474050521851,-0.16144104301929474,-0.003051936626434326,0.04084658622741699,-0.08369137346744537,-0.47655223464539265,0.20747542973746677,0.6133786943416583,-0.5946584412975957,-1.1869935486286272,-1.12503805266487,0.9861175620855637
1780770884646076416,1.5907824039459229,0.11967933177947998,-0.0714380294084549,0.16056911647319794,-0.33639466762542725,0.9275487065315247,-0.16276389360427856,0.07723939418792725,0.025301635265350342,0.026167213916778564,-0.47606762983221207,0.20745278012107754,0.6128469614104182,-0.5956018858028789,-1.1877990606953284,-1.1201535989028049,0.991929545186209
1780770884656111360,1.6008174419403076,0.07893004268407822,-0.014413625933229923,0.16178511083126068,-0.3349606394767761,0.9279440641403198,-0.1634664535522461,0.024444252252578735,0.021320462226867676,0.0641622543334961,-0.47553484671026214,0.2075911349851735,0.6125134256574191,-0.5963219692714675,-1.1888583624680917,-1.1167810919849108,0.9960707213920165
1780770884666145536,1.610851526260376,0.07789406925439835,0.03602118417620659,0.1619800478219986,-0.33343517780303955,0.928344190120697,-0.16431072354316711,-0.02600085735321045,0.01780754327774048,-0.036143958568573,-0.47519411848822657,0.20793464131571293,0.6120521399620057,-0.5969471197988008,-1.1899332621485637,-1.1129400890634817,1.0000238568250694
1780770884676180480,1.6208865642547607,0.011219965294003487,-0.004343016538769007,0.11918359249830246,-0.332057923078537,0.928748369216919,-0.16481442749500275,-0.016910552978515625,-0.044730544090270996,-0.10882137715816498,-0.4748683626087075,0.20832177777471217,0.6117146569072117,-0.5974170469984583,-1.1910221406657553,-1.1100790532756024,1.0029014020028306
1780770884686215424,1.6309213638305664,-0.05399206280708313,-0.05269550159573555,0.09101587533950806,-0.3311879336833954,0.929112434387207,-0.16451309621334076,-0.0068857669830322266,-0.1069536805152893,-0.06670330464839935,-0.47446132992997847,0.2085895515908583,0.6117465590736664,-0.5976143913105194,-1.1920054554590864,-1.1097630295485597,1.0035548392716467
1780770884696249600,1.6409554481506348,-0.0703316181898117,-0.030902855098247528,0.11804322898387909,-0.3303004503250122,0.9295715093612671,-0.16370193660259247,-0.05585366487503052,-0.09749454259872437,-0.007608458399772644,-0.4739271986405456,0.20892724029926202,0.611962775460845,-0.5976988733812986,-1.1932488323461454,-1.1106626746293147,1.0031143562810505
1780770884706284544,1.6509904861450195,-0.0052892365492880344,0.0352276973426342,0.10797541588544846,-0.32918599247932434,0.9300256967544556,-0.1633671373128891,-0.12224531173706055,-0.031466126441955566,-0.05916702747344971,-0.47354291708116913,0.20939116298621321,0.6119409860053092,-0.5978634550089723,-1.1944827946387935,-1.1101322699983893,1.0036463086698864
1780770884716319488,1.6610255241394043,0.013761686161160469,0.026575084775686264,0.08069772273302078,-0.32827228307724,0.9303048253059387,-0.16361598670482635,-0.11105874180793762,0.022011399269104004,-0.15102021396160126,-0.47340184875120483,0.20975583604728393,0.6117143914573226,-0.5980791107143385,-1.195242968862405,-1.1084171392061044,1.0050729472687476
1780770884726353408,1.6710593700408936,-0.013484582304954529,-0.056013669818639755,0.06400343030691147,-0.3276025056838989,0.9305474758148193,-0.1635783165693283,-0.0421941876411438,0.027628064155578613,-0.13048909604549408,-0.47313896876683614,0.20994125929031285,0.6116661718053172,-0.5982713555244928,-1.1959051662774096,-1.1076932724002815,1.0059958171823407
1780770884736388352,1.6810944080352783,0.019214242696762085,-0.08425809442996979,0.04581217095255852,-0.32724621891975403,0.9307219386100769,-0.16329899430274963,-0.034432828426361084,0.01752018928527832,-0.07006894052028656,-0.47275092928149726,0.20988191229868397,0.6118006894408419,-0.5984614278533101,-1.196381967648099,-1.1079413817479353,1.0065385609160664
1780770884746423552,1.691129446029663,0.13191042840480804,-0.03149887174367905,0.05875913053750992,-0.32683995366096497,0.9307745695114136,-0.16381211578845978,-0.09308192133903503,0.047573208808898926,-0.07779550552368164,-0.4724735755123555,0.20967617078652767,0.6116615447094305,-0.5988946482970359,-1.1965257762176902,-1.1061893551470348,1.0091041703596808
1780770884756457472,1.7011635303497314,0.23678570985794067,0.05619928985834122,0.04781273752450943,-0.3263183534145355,0.9306367039680481,-0.16562426090240479,-0.11253964900970459,0.09280067682266235,-0.14666210114955902,-0.472567581815756,0.20944657482715134,0.6109991834374157,-0.5995764054365014,-1.1961489248041848,-1.101123627202921,1.0143528443530383
1780770884766492672,1.7111985683441162,0.24641969799995422,0.04636649787425995,0.024322325363755226,-0.32588058710098267,0.9303418397903442,-0.16812464594841003,-0.07412853837013245,0.09353810548782349,-0.17428259551525116,-0.47288448224958124,0.20913497058826216,0.6100821564807227,-0.6003686901678696,-1.1953438993381222,-1.0945028593007056,1.020879383028463
1780770884776527360,1.7212333679199219,0.18867836892604828,0.06343816220760345,0.03390251472592354,-0.3255534768104553,0.9300400614738464,-0.17041192948818207,-0.0487598180770874,0.043287456035614014,-0.13708315789699554,-0.4732131996387374,0.2088406360183398,0.6092451285083709,-0.6010616382595199,-1.1945217976489149,-1.0885628924937045,1.0266738945794367
1780770884786561536,1.7312674522399902,0.07834015041589737,0.07528775930404663,0.04697677120566368,-0.32503730058670044,0.9299567341804504,-0.17184613645076752,-0.08170098066329956,0.016881585121154785,-0.10275101661682129,-0.47343220377594664,0.20887232429252273,0.6086454488380204,-0.6014856347770836,-1.1942952154359243,-1.0844558129323985,1.0303427978164141
1780770884796596480,1.741302490234375,0.10600560158491135,0.09797336906194687,0.02031719870865345,-0.324566513299942,0.9299092292785645,-0.1729898303747177,-0.11322340369224548,0.03989362716674805,-0.1701803207397461,-0.47369593730899173,0.20902587629210778,0.6081227412388478,-0.6017533513636274,-1.194165919289929,-1.081108427005971,1.0329869215295535
1780770884806631680,1.7513375282287598,0.1570485383272171,0.1157895177602768,0.012561008334159851,-0.3242362141609192,0.9297310709953308,-0.17455923557281494,-0.11735314130783081,0.038713693618774414,-0.26767098903656006,-0.47411171452784306,0.20908353317361306,0.607457374110666,-0.6020777647704513,-1.1936818315589997,-1.0769255056250882,1.0363345751421436
1780770884816665344,1.761371374130249,0.23041942715644836,0.11635517328977585,0.004529979545623064,-0.3239620625972748,0.9293856024742126,-0.1768922507762909,-0.11840546131134033,0.0012784004211425781,-0.2459745854139328,-0.47467744417984564,0.20897301106793167,0.606534548710449,-0.6026004927462894,-1.1927447582182815,-1.0710080159813546,1.0413979112751461
1780770884826700544,1.7714064121246338,0.18457098305225372,0.10329742729663849,0.010566567070782185,-0.32370349764823914,0.9290446043014526,-0.17914284765720367,-0.13369399309158325,-0.026243090629577637,-0.19726097583770752,-0.4752046741937115,0.20884219073302565,0.6056513121596133,-0.6031185193873005,-1.1918220689339942,-1.0653338533310528,1.0463167874254595
1780770884836735488,1.7814414501190186,0.3481694757938385,0.15640591084957123,-0.004870979115366936,-0.32345443964004517,0.9285814166069031,-0.18197156488895416,-0.14448684453964233,0.02487921714782715,-0.20886705815792084,-0.4758550284695684,0.208613779694928,0.6045614179719228,-0.6037778305209719,-1.1905719732182287,-1.0583400572426942,1.0524758046352565
1780770884846769664,1.791475534439087,0.6173703670501709,0.27946287393569946,0.032989583909511566,-0.3229990303516388,0.9276830554008484,-0.18728484213352203,-0.15966692566871643,0.06213921308517456,-0.21489106118679047,-0.4770170759384525,0.2081110101961607,0.6025341367323958,-0.6050595343362922,-1.1881587078895346,-1.0453390356459187,1.064121230486128
1780770884856804608,1.8015105724334717,0.7728097438812256,0.26388442516326904,0.08464106172323227,-0.3218870162963867,0.9265192747116089,-0.1948096752166748,-0.15368369221687317,0.04078114032745361,-0.11669856309890747,-0.47844004710472365,0.20746818475999387,0.5996266480398823,-0.6070419739998308,-1.1850536667718568,-1.0265537637771245,1.081271443170923
1780770884866839296,1.8115453720092773,0.5805031657218933,0.23849013447761536,0.16396969556808472,-0.3203670084476471,0.925469696521759,-0.202165424823761,-0.13141518831253052,0.010260283946990967,-0.156049907207489,-0.4795489238708024,0.20682910365158247,0.5967738353938715,-0.6091925705438516,-1.1822736771229179,-1.0078631172682986,1.098873464881007
1780770884876873472,1.8215794563293457,0.2479638010263443,0.310090035200119,0.3017837703227997,-0.3175814747810364,0.9254022836685181,-0.20681586861610413,-0.15942353010177612,-0.023958802223205566,-0.127610981464386,-0.4800792654738555,0.20742623754777076,0.5946145178144993,-0.6106815242667215,-1.1820956634309097,-0.9935629134575292,1.1112835882542436
1780770884886908416,1.8316144943237305,0.0918855220079422,0.31230175495147705,0.2607037127017975,-0.3142331838607788,0.925947904586792,-0.20947103202342987,-0.2004762589931488,-0.10691714286804199,-0.16821449995040894,-0.4803307302763598,0.2088397089221151,0.593001230077453,-0.6115700840504995,-1.1835378656340572,-0.9828328522015463,1.1194118182295163
1780770884896943616,1.8416495323181152,0.5545743703842163,0.1983986496925354,0.12220069020986557,-0.31191718578338623,0.9259477853775024,-0.21290476620197296,-0.21234428882598877,-0.013609528541564941,-0.21995657682418823,-0.4808778880436429,0.209583747594295,0.5912886519321412,-0.612542943469358,-1.183537543581444,-0.9718655799540696,1.1282343582201444
1780770884906977536,1.8516833782196045,1.538244605064392,-0.17294535040855408,0.2583976686000824,-0.31026673316955566,0.9242606163024902,-0.22243376076221466,-0.15816283226013184,0.35024493932724,-0.40119296312332153,-0.4813883679956856,0.20761654940033533,0.58794428909773,-0.6160211343263465,-1.1790942212407658,-0.948810337971617,1.1532070116925182
1780770884917012480,1.8617184162139893,2.886898994445801,-0.2273302972316742,0.21925373375415802,-0.308512806892395,0.919791579246521,-0.24249383807182312,-0.2175491452217102,0.6078267693519592,-0.5915516018867493,-0.4823312879306343,0.20227331713189284,0.5812388362001286,-0.623380665691786,-1.1675490844721292,-0.9046448919529102,1.203354562243316
1780770884927047424,1.871753454208374,3.6082592010498047,-0.1925937533378601,0.28705647587776184,-0.3069486916065216,0.9118652939796448,-0.27255120873451233,-0.3857240378856659,0.48451220989227295,-0.5663617849349976,-0.48436993768238695,0.1942130080354701,0.5709690933771863,-0.6337676113938024,-1.147805511555464,-0.8446858073750808,1.270970007197207
1780770884937081600,1.8817875385284424,4.236795902252197,-0.19763538241386414,0.34688493609428406,-0.30460190773010254,0.9013997912406921,-0.30772727727890015,-0.38869646191596985,0.35729771852493286,-0.46419960260391235,-0.486561881312579,0.18494673599802905,0.5585078942190826,-0.645849156339221,-1.1229915264635018,-0.7802941603025888,1.3440312928099456
1780770884947116544,1.8918225765228271,4.8595356941223145,-0.23843394219875336,0.40770646929740906,-0.30200397968292236,0.8875347375869751,-0.34795936942100525,-0.35458171367645264,0.2378009557723999,-0.44047749042510986,-0.48885515965899135,0.17410804023388612,0.5437892160844555,-0.6595455312095664,-1.09196659853548,-0.7148110438039208,1.419654977157744
1780770884957151488,1.9018573760986328,5.552096843719482,-0.23969148099422455,0.5404523015022278,-0.29873985052108765,0.8695992231369019,-0.3931306302547455,-0.30343303084373474,0.18621742725372314,-0.40011274814605713,-0.49102352109384007,0.16177988694228074,0.5265566923631778,-0.6748786908242549,-1.0543900908800112,-0.6498068582055359,1.496334771783498
1780770884967185408,1.9118914604187012,6.4041948318481445,-0.2727007269859314,0.6661081910133362,-0.2946152091026306,0.8463208079338074,-0.44378262758255005,-0.2757735848426819,0.15270262956619263,-0.33110445737838745,-0.4929184600574433,0.14772370754883224,0.5062473681932903,-0.6920424388911475,-1.009039893795114,-0.586065874669114,1.5735936570098317
1780770884977220608,1.921926498413086,7.331750869750977,-0.1237274706363678,0.7817871570587158,-0.2896152138710022,0.8158398270606995,-0.5005280375480652,-0.2824062705039978,0.12576478719711304,-0.25041794776916504,-0.4946699493075916,0.13171760018179765,0.48206477487284793,-0.7110313732700271,-0.9541800140121875,-0.5245500727141854,1.6501325741225021
1780770884987255552,1.9319615364074707,8.315579414367676,0.08484251797199249,0.8899103999137878,-0.28307512402534485,0.776458740234375,-0.5630099773406982,-0.29581278562545776,0.18119806051254272,-0.18459433317184448,-0.49642497780848327,0.11413167691025401,0.4532868692715876,-0.7314828231769669,-0.8890266606603772,-0.465876200345454,1.72403132382675
1780770884997289472,1.94199538230896,9.263711929321289,0.3434610366821289,1.007063627243042,-0.2746216058731079,0.7264617085456848,-0.6299493908882141,-0.2778991162776947,0.2797180414199829,-0.017618298530578613,-0.49797098434832504,0.09507567298323315,0.41950674753006384,-0.752993669743218,-0.8131590308028769,-0.4111022759966676,1.7939419369428393
1780770885007324416,1.9520304203033447,10.300230026245117,0.6095128059387207,1.1146609783172607,-0.2639865279197693,0.6640440225601196,-0.6995402574539185,-0.22662928700447083,0.3798401951789856,0.09333914518356323,-0.499015962425317,0.07458323918009341,0.38035143510849445,-0.7750826434658467,-0.7262145526662631,-0.3608481359445227,1.8591594852524274
1780770885017359616,1.9620654582977295,11.229395866394043,0.884899377822876,1.1322098970413208,-0.2514609098434448,0.5873452425003052,-0.7692808508872986,-0.1967507302761078,0.4092520475387573,0.09996932744979858,-0.49934332297846834,0.052483876693741834,0.33556671986388814,-0.7970550437664566,-0.6277747529513525,-0.3159294798604772,1.918932943630882
1780770885027393536,1.9720995426177979,11.820677757263184,1.1717431545257568,1.1205766201019287,-0.23696480691432953,0.49713510274887085,-0.8346881866455078,-0.19540822505950928,0.40314871072769165,0.1854114532470703,-0.498755688375375,0.02953610965983361,0.28597818387697965,-0.8176716526595886,-0.5202938371235392,-0.27661798847792896,1.9720864355273307
1780770885037428736,1.9821345806121826,12.205779075622559,1.4196940660476685,1.0455212593078613,-0.2208707630634308,0.39529263973236084,-0.8916051983833313,-0.1880647838115692,0.38372957706451416,0.3042638897895813,-0.4969977120450938,0.0062511952276973325,0.2327193905872322,-0.8359402110553713,-0.40638643001060903,-0.24283407795416867,2.018536986342391
1780770885047463424,1.9921693801879883,12.156246185302734,1.7725709676742554,0.9876148700714111,-0.20278802514076233,0.2852867543697357,-0.9367435574531555,-0.15590031445026398,0.3560553789138794,0.445151150226593,-0.4940361748744786,-0.01633794931141254,0.1770912242200918,-0.8510581074981255,-0.28930561736467436,-0.21319216301087018,2.0585108039136544
1780770885057497600,2.0022034645080566,11.85669231414795,2.097684860229492,0.9140306711196899,-0.18204760551452637,0.17227217555046082,-0.9680810570716858,-0.13388562202453613,0.3576808273792267,0.5974145531654358,-0.4897607519657583,-0.036925442095666054,0.12081380337858236,-0.8626557311195253,-0.1731358672876737,-0.18587917891105163,2.092698698339884
1780770885067532544,2.0122385025024414,11.464402198791504,2.455308198928833,0.7738330960273743,-0.15874384343624115,0.05902674421668053,-0.9855538010597229,-0.12867069244384766,0.3052615821361542,0.6940193772315979,-0.48444802410918936,-0.05520878334623129,0.06461504776281017,-0.8706819827226131,-0.05906107404324666,-0.15969907599005803,2.1213772311838643
1780770885077567488,2.022273540496826,10.820184707641602,2.7347466945648193,0.6492557525634766,-0.13297639787197113,-0.05063166096806526,-0.9898250699043274,-0.11777126789093018,0.25401607155799866,0.7472256422042847,-0.47826402811554586,-0.07066526195493596,0.009688880899477894,-0.8753148945011547,0.05065332005801647,-0.1335437554614004,2.1448446508054584
1780770885087601408,2.0323073863983154,9.848431587219238,2.9313573837280273,0.49908962845802307,-0.1054077297449112,-0.15245665609836578,-0.9826729893684387,-0.0709686130285263,0.20688475668430328,0.7829201817512512,-0.4714962356960448,-0.08287763437730095,-0.042365205715880795,-0.8769422547798914,0.15305351994862165,-0.10685774817070244,2.1631552150307574
1780770885097636352,2.0423424243927,8.734667778015137,3.025526523590088,0.28054744005203247,-0.0770450010895729,-0.2430829107761383,-0.9669409394264221,-0.0058712586760520935,0.1259564459323883,0.7687750458717346,-0.46468307461364045,-0.09174405690384799,-0.09006975410032816,-0.8760937214235206,0.24554283445736275,-0.07951113934718473,2.1760619700903914
1780770885107670528,2.0523765087127686,7.728046894073486,3.123991012573242,0.16486266255378723,-0.0484500527381897,-0.3219875991344452,-0.9455033540725708,0.0959811806678772,0.07481047511100769,0.7002335786819458,-0.4580957888326907,-0.09756830204165387,-0.1331493674281124,-0.8734413708220247,0.3278281340469429,-0.051197824018429046,2.183995957947706
1780770885117705472,2.0624115467071533,6.975659370422363,3.2243170738220215,0.1260223239660263,-0.01929415389895439,-0.3905516266822815,-0.9203788042068481,0.2127450853586197,0.097231924533844,0.6414328813552856,-0.45134629485513883,-0.10052977289419729,-0.17234952445697171,-0.869756233678566,0.40123073334400305,-0.02096020560123564,2.1884950306098316
1780770885127740672,2.072446584701538,6.443295001983643,3.2592556476593018,-0.01313822902739048,0.009827929548919201,-0.451772540807724,-0.8920789957046509,0.3077532649040222,0.023900866508483887,0.6081740260124207,-0.4445563473504687,-0.10165334600070881,-0.20887099107808374,-0.8651063988670419,0.46875120019611577,0.011016436681017,2.1895908122885843
1780770885137774592,2.0824804306030273,5.843447685241699,3.266291379928589,-0.1349155306816101,0.03898095712065697,-0.5056780576705933,-0.8618412017822266,0.40446996688842773,-0.06249821186065674,0.5343418121337891,-0.4380674186824126,-0.10098102551556858,-0.24265663115626065,-0.8596613567299427,0.5301677290294683,0.04519905633933924,2.186753933313493
1780770885147809536,2.092515468597412,5.388415336608887,3.092226028442383,-0.17608293890953064,0.06691740453243256,-0.5533300042152405,-0.8302698135375977,0.5049057006835938,0.014572679996490479,0.35179996490478516,-0.4318097699610219,-0.09933560178750556,-0.2738567647330032,-0.853624729041596,0.5863567107146843,0.08042333337979905,2.1806625006884444
1780770885157844480,2.102550506591797,4.942068099975586,2.8916518688201904,-0.07776755094528198,0.09206394106149673,-0.5954226851463318,-0.7981202602386475,0.5452041029930115,0.09580421447753906,0.18540364503860474,-0.4254944790731355,-0.09751185620545665,-0.3023760879996706,-0.847357340727725,0.6377916875171893,0.11484338892045982,2.172917207588983
1780770885167878400,2.112584352493286,4.434154987335205,2.6841232776641846,-0.04399681091308594,0.11428876966238022,-0.6322858333587646,-0.7662588953971863,0.4775538742542267,0.12767767906188965,0.08881443738937378,-0.4190270521736739,-0.09557490268462278,-0.3282316041789352,-0.8411573837892278,0.6845001180258499,0.14806015344974469,2.164417257626442
1780770885177913344,2.122619390487671,3.757626533508301,2.432955026626587,-0.04531534016132355,0.13388533890247345,-0.6631956100463867,-0.736373782157898,0.39132219552993774,0.09030437469482422,-0.007705807685852051,-0.41290971920990066,-0.09330257612992442,-0.3508671132779745,-0.8352799459315321,0.725080383920271,0.17985244314492074,2.1550021368722883
1780770885187948544,2.1326544284820557,3.0337913036346436,2.1610171794891357,0.02892054058611393,0.15064868330955505,-0.6878185868263245,-0.7100778222084045,0.37001171708106995,0.07757383584976196,-0.09006255865097046,-0.40723628400655104,-0.09066214021439806,-0.36978570453608317,-0.8301791211369954,0.758479544839541,0.209058134129238,2.1459176600776106
1780770885197982464,2.142688512802124,2.450256109237671,1.9080857038497925,0.13265065848827362,0.16435278952121735,-0.7070633172988892,-0.6877860426902771,0.36476096510887146,0.11572420597076416,-0.1323433518409729,-0.4018412585856129,-0.08790083832517716,-0.38520178972760766,-0.8260851395912969,0.7853366954984492,0.23456061662513883,2.138589879513814
1780770885208017664,2.152723550796509,1.9183125495910645,1.5599442720413208,0.34536638855934143,0.17454370856285095,-0.7226232886314392,-0.6688423156738281,0.34240880608558655,0.1597265601158142,-0.11582565307617188,-0.3964778358114095,-0.08560756130849619,-0.39780671744052115,-0.8229376965181414,0.8075898658981085,0.2552707313454014,2.1340986191413727
1780770885218052352,2.1627583503723145,1.3441991806030273,1.2081910371780396,0.3389010429382324,0.18108923733234406,-0.7345545887947083,-0.6539389491081238,0.34504908323287964,0.17423665523529053,-0.12673115730285645,-0.3914214781240842,-0.08396763671882469,-0.4074063757116813,-0.8208279936551995,0.8250100311460519,0.2701509961653492,2.132854097319964
1780770885228086528,2.172792434692383,0.8965665698051453,1.0105764865875244,0.11057492345571518,0.18657125532627106,-0.7423480153083801,-0.6435142755508423,0.33392128348350525,0.12053710222244263,-0.059046149253845215,-0.3878081883525637,-0.08215222171357728,-0.4141182023149873,-0.8193667608778653,0.8365679731772896,0.28218879772359573,2.131358959917598
1780770885238121472,2.1828274726867676,0.6130483150482178,0.7733460664749146,0.1359785497188568,0.19146376848220825,-0.7467612624168396,-0.6369374394416809,0.22482651472091675,0.1505240797996521,-0.07323712110519409,-0.38515796213531656,-0.07995840272428263,-0.4184948474613874,-0.8186098515855866,0.8431790342970024,0.29200771013642207,2.130340381793871
1780770885248156672,2.1928625106811523,0.5875877141952515,0.6514622569084167,0.0649736225605011,0.19530175626277924,-0.7510071992874146,-0.6307497620582581,0.12467505037784576,0.5326692461967468,-0.16711699962615967,-0.38305214435587703,-0.07847629949333147,-0.4224530516217583,-0.8177076537352149,0.8495861653375689,0.30027197901725505,2.1287772968543908
1780770885258190336,2.2028963565826416,0.7327720522880554,0.4737551212310791,0.131853848695755,0.1979835480451584,-0.7553707957267761,-0.6246738433837891,-0.042054012417793274,0.8812253475189209,-0.24593156576156616,-0.3811451177614518,-0.07768001179871055,-0.4261794012724966,-0.8167406306259145,0.856219754971375,0.3069238738635411,2.1274028180345153
1780770885268225536,2.2129313945770264,0.4841611385345459,0.317753404378891,0.003971514757722616,0.20001137256622314,-0.7593978047370911,-0.6191205382347107,-0.11344827711582184,0.7613662481307983,-0.32562726736068726,-0.37976134679862195,-0.07735295121667819,-0.4294836867105827,-0.8156846419745724,0.862387070201111,0.3124737312563801,2.125446778022958
1780770885278261248,2.2229671478271484,0.16772755980491638,0.07503928989171982,0.011092275381088257,0.2011839747428894,-0.7615050077438354,-0.6161454916000366,-0.1280485838651657,0.4463651180267334,-0.36105793714523315,-0.37921624897241163,-0.0772237513118309,-0.4312351506001672,-0.815026339565549,0.8656319429492897,0.31560629151252867,2.123836362311284
1780770885288295168,2.233001232147217,-0.3325166404247284,-0.067872054874897,0.06098659709095955,0.20098423957824707,-0.7610331177711487,-0.6167932748794556,-0.20032812654972076,0.2623453736305237,-0.28597772121429443,-0.3791210232207619,-0.07710781273057951,-0.4308802129733854,-0.8152692073753185,0.8649042072677063,0.3150036711795477,2.1246794512329212
1780770885298330368,2.2430362701416016,-0.8778502345085144,-0.1308523565530777,0.21849553287029266,0.19935326278209686,-0.7573627233505249,-0.6218198537826538,-0.36510950326919556,0.2549671530723572,-0.3282685875892639,-0.3790761074200711,-0.07661789415415969,-0.42804179562277767,-0.8168299280384103,0.8592648586277551,0.31024393342349127,2.129534018239272
1780770885308365312,2.2530713081359863,-0.1677737534046173,-0.0983671173453331,0.6672070622444153,0.195062056183815,-0.7545852065086365,-0.6265396475791931,-0.3485197126865387,0.23128509521484375,-0.2756820321083069,-0.377571017984405,-0.07694849196777066,-0.42521654802452524,-0.8189687916150161,0.8550217762133995,0.3018207576464967,2.139266280575698
1780770885318399232,2.2631051540374756,-0.7820203900337219,0.12651686370372772,0.5855931639671326,0.1903911530971527,-0.7534621953964233,-0.629321813583374,-0.2222057282924652,-0.06910860538482666,-0.028866052627563477,-0.3750804424579175,-0.07752021901093131,-0.42347338175570765,-0.8209601365857937,0.8533120333768016,0.2937797947959986,2.150158129027317
1780770885328434176,2.2731401920318604,-1.0430383682250977,0.11743947863578796,0.7475889325141907,0.1864558607339859,-0.7486000657081604,-0.6362642049789429,-0.2501155436038971,0.024723172187805176,0.31366294622421265,-0.3726440722856329,-0.0765699418259008,-0.4195294207939196,-0.8241774523486958,0.845948083058508,0.28506653942789323,2.1633094297747584
1780770885338469376,2.283175230026245,-1.3632938861846924,0.12124539911746979,1.0244897603988647,0.1803351193666458,-0.7425796389579773,-0.6450230479240417,-0.3316259980201721,-0.2745102047920227,0.30014389753341675,-0.36897402556456316,-0.07573729213540478,-0.4144301471878941,-0.8284742854895095,0.8369137612358745,0.272618594221381,2.181760582103184
1780770885348503296,2.2932093143463135,-1.5933175086975098,0.06666817516088486,1.087727665901184,0.1732584834098816,-0.7346657514572144,-0.6559327840805054,-0.2589213252067566,-0.45866310596466064,-0.014782547950744629,-0.36505326920920345,-0.07475135334889,-0.4079777486807275,-0.8334882136266409,0.8251738550944864,0.25824254947762865,2.2024163884417938
1780770885358538240,2.303244113922119,-1.5807816982269287,0.0017214007675647736,1.19655179977417,0.16499853134155273,-0.7260666489601135,-0.6675348281860352,-0.03719092905521393,-0.017402589321136475,0.013466835021972656,-0.36070471560872525,-0.07405398367704581,-0.40093466138682493,-0.8388441904086219,0.8125843589647016,0.24231895478778093,2.224722811888606
1780770885368573184,2.313279151916504,-1.898220419883728,-0.024281702935695648,1.1629358530044556,0.15640023350715637,-0.7163704037666321,-0.679965078830719,0.07432793080806732,0.11526566743850708,0.12935161590576172,-0.3563969190044319,-0.07336595353321108,-0.39323645442212785,-0.8443718542409122,0.7985862252302731,0.22607993421723116,2.2470622606254222
1780770885378607360,2.3233132362365723,-2.4025163650512695,-0.07031683623790741,1.1304980516433716,0.147851824760437,-0.7033023834228516,-0.6953456401824951,0.06093418598175049,-0.15273088216781616,0.12228661775588989,-0.3523844927151866,-0.07200423394934093,-0.38359168758910617,-0.8505867965758959,0.780032326790986,0.20951044026670537,2.2696872477171945
1780770885388642304,2.333348274230957,-2.9796409606933594,-0.03945479542016983,1.0962986946105957,0.13971225917339325,-0.6858110427856445,-0.714243471622467,0.05982692539691925,-0.30765825510025024,0.13666778802871704,-0.34869009558341213,-0.06960122393002305,-0.3715291703499078,-0.8576345411279581,0.7557174819419735,0.1931696335860518,2.2923982107294063
1780770885398677248,2.343383312225342,-3.2524452209472656,-0.053203631192445755,1.0948792695999146,0.13199742138385773,-0.6644577980041504,-0.735576331615448,0.06116357445716858,-0.16204971075057983,0.1646382212638855,-0.3451142859680943,-0.0663186503276739,-0.35751038681305713,-0.8652654208035485,0.7267680339254898,0.17755783434989136,2.3148848134428297
1780770885408711168,2.353417158126831,-3.4725780487060547,-0.09981507807970047,1.1370701789855957,0.12412986159324646,-0.6408250331878662,-0.7575849890708923,0.11689798533916473,-0.06095719337463379,0.06347793340682983,-0.3414795999271564,-0.0628472582965266,-0.34242915478256386,-0.8730315770992998,0.6955724974236843,0.16240632392431983,2.3369097244084474
1780770885418746112,2.363452196121216,-4.029277801513672,-0.1592075675725937,1.2102868556976318,0.11576090008020401,-0.6133747100830078,-0.7812623977661133,0.2127150446176529,-0.1547832489013672,0.03590106964111328,-0.3376834423130603,-0.05900995497059882,-0.32540227059593435,-0.8812497566963785,0.6603264509744811,0.14710130938056754,2.359241817781732
1780770885428781312,2.3734872341156006,-4.712738037109375,-0.2507803440093994,1.2897320985794067,0.10665404796600342,-0.5799322724342346,-0.8076530694961548,0.2512713670730591,-0.3136529326438904,0.09085619449615479,-0.333681487437895,-0.054527942852978566,-0.30528703236624477,-0.8902152599234863,0.6186455618581217,0.1312946163915457,2.3823318262882243
1780770885438815232,2.383521318435669,-5.389936923980713,-0.3810217082500458,1.4005489349365234,0.09653288871049881,-0.5395632982254028,-0.8363927602767944,0.2369326949119568,-0.44270598888397217,0.12287652492523193,-0.32945274542162983,-0.04949889108810678,-0.28169750757123396,-0.8998095197503385,0.5699183302992482,0.1149073206518215,2.405944685232256
1780770885448850176,2.3935561180114746,-5.750108242034912,-0.496102511882782,1.5825389623641968,0.08496080338954926,-0.4930984675884247,-0.8658149242401123,0.26676955819129944,-0.43330836296081543,0.10749894380569458,-0.32459397038634785,-0.044360419330677914,-0.2551953703946838,-0.9096956057645873,0.5156477334678399,0.09781497184681517,2.4303121918760997
1780770885458885120,2.4035911560058594,-6.013324737548828,-0.5343582630157471,1.6646215915679932,0.07271364331245422,-0.4426319897174835,-0.8937503099441528,0.3357793986797333,-0.4253794848918915,0.09879791736602783,-0.3189750684746206,-0.03925662361469708,-0.2271205940129362,-0.9193094814607327,0.45853174955043996,0.08117909662760525,2.4546877467930415
1780770885468919296,2.4136252403259277,-6.5302300453186035,-0.5107945799827576,1.710004448890686,0.060881197452545166,-0.3867303133010864,-0.9201810359954834,0.35759109258651733,-0.4666632413864136,0.1652371883392334,-0.3128640850392037,-0.03357118465154102,-0.19693263137113415,-0.9285507446635048,0.3970833952687126,0.06606590902180817,2.47831341650806
1780770885478954240,2.4236602783203125,-6.976830959320068,-0.56828373670578,1.7789329290390015,0.049669720232486725,-0.32441943883895874,-0.9446083307266235,0.3664984703063965,-0.49442818760871887,0.1954476237297058,-0.3062353196376383,-0.027148627835607054,-0.16419126949941532,-0.9372961740992969,0.33039790201823244,0.05253396271437605,2.5012550511366145
1780770885488989440,2.4336953163146973,-7.477080821990967,-0.6239543557167053,1.8782345056533813,0.03858582675457001,-0.25602293014526367,-0.9659003019332886,0.3937872052192688,-0.5220685005187988,0.2943152189254761,-0.29887628394642796,-0.020368970862086416,-0.12897656239609784,-0.9453163938120186,0.25890574625680834,0.039926813406882006,2.523953002508357
1780770885499023104,2.4437291622161865,-8.073812484741211,-0.5673203468322754,1.7740644216537476,0.028639834374189377,-0.18058401346206665,-0.9831424951553345,0.438691109418869,-0.5148505568504333,0.491580605506897,-0.2910844136586478,-0.01275349140066306,-0.09091808842528828,-0.9522820514078392,0.18158019347618248,0.029122673271483882,2.545639479056207
1780770885509058304,2.4537642002105713,-8.806802749633789,-0.45332852005958557,1.5959367752075195,0.02133050374686718,-0.09728563576936722,-0.9950278997421265,0.40336737036705017,-0.4339338541030884,0.7153342962265015,-0.2835453206875913,-0.0035876586186187388,-0.04973108200865852,-0.9576617271520714,0.0974397526006451,0.021433809044533184,2.5648327283685655
1780770885519093248,2.463799238204956,-9.356618881225586,-0.471260666847229,1.4456431865692139,0.015937790274620056,-0.0062975799664855,-0.9998531341552734,0.33722686767578125,-0.25507020950317383,1.002584457397461,-0.27620598643040134,0.006789372540360269,-0.005227617309336088,-0.9610602810584088,0.006297621668882599,0.015938781858870172,2.5818328368970023
1780770885529127424,2.4738333225250244,-8.915323257446289,-0.6064890623092651,1.3148950338363647,0.01112370379269123,0.08654392510652542,-0.9961859583854675,0.3307952284812927,0.04527675360441208,1.0763556957244873,-0.2689968131874682,0.017023822562956908,0.04021471071676513,-0.9621505934733556,-0.0866523228630475,0.011165828842129705,2.596840797359538
1780770885539162112,2.48386812210083,-6.962149143218994,-0.8079638481140137,1.3338748216629028,0.005953099112957716,0.16491030156612396,-0.9862905740737915,0.4091469943523407,0.30020809173583984,0.7178427577018738,-0.2615652837691028,0.02459835417410005,0.07905453585702873,-0.9616282231348819,-0.16566706207571694,0.006035773549668766,2.6109390695777606
1780770885549197312,2.493903160095215,-5.208813190460205,-0.8566052913665771,1.1601594686508179,-5.1244685892015696e-05,0.22613537311553955,-0.97409588098526,0.49216246604919434,0.6051634550094604,0.4628806710243225,-0.2542984432317985,0.029105297843535133,0.11002244048079142,-0.9604063542670376,-0.22810843731698768,-5.2607434940700785e-05,2.623902390966992
1780770885559231232,2.503937244415283,-1.9604169130325317,-0.63066565990448,0.9899709820747375,-0.0045269266702234745,0.2600882053375244,-0.9655742645263672,0.44581109285354614,0.8533456325531006,0.2047405242919922,-0.24800940919979225,0.03060644371033751,0.12757791056679893,-0.959832486670123,-0.26311356437248246,-0.0046882913059204286,2.6352567752197555
1780770885569266432,2.513972282409668,-0.6830272078514099,-0.30446356534957886,0.7693858742713928,-0.006983927451074123,0.2724972665309906,-0.9621312022209167,0.2299453467130661,0.546014666557312,-0.06322890520095825,-0.2434204972985739,0.03038842320354056,0.13420483123329502,-0.9601104601416564,-0.2759875576101082,-0.007258682379110102,2.643980882785212
1780770885579301376,2.5240073204040527,0.17526216804981232,-0.09825632721185684,0.650722861289978,-0.006660036277025938,0.2747926115989685,-0.961480438709259,-0.07090038806200027,0.5462827682495117,0.2380765676498413,-0.2396791095971136,0.030315135635317427,0.13542809134076675,-0.9608819387395933,-0.2783740162062434,-0.006926744665746531,2.651725598092184
1780770885589335296,2.534041166305542,0.8173303604125977,0.0573754757642746,0.4095104932785034,-0.005307476036250591,0.2701820135116577,-0.9627946615219116,-0.11813612282276154,0.5288444757461548,0.07473313808441162,-0.23726742663694533,0.030059456692395358,0.1330380013050751,-0.9618219830697584,-0.27358206529693224,-0.0055125173779420064,2.6571206669661667
1780770885599370240,2.5440762042999268,1.5657198429107666,0.08456315100193024,0.3794822692871094,-0.003407492535188794,0.25852692127227783,-0.9659980535507202,-0.030589088797569275,0.5952786207199097,-0.15561449527740479,-0.23566002717441625,0.029319903220209467,0.12704849214271122,-0.9630490460658399,-0.2614969664745843,-0.003527417516574764,2.6611565903832224
1780770885609405184,2.5541112422943115,2.006213903427124,-0.13184517621994019,0.34746336936950684,-0.002790236845612526,0.24124355614185333,-0.9704605937004089,0.03748872131109238,0.32069188356399536,-0.33572226762771606,-0.23408395490820277,0.02729301436192724,0.11842632750553317,-0.9645905846484478,-0.24364704851653163,-0.0028751596795733043,2.665091353476735
1780770885619439360,2.56414532661438,2.334428310394287,-0.15695692598819733,0.25316962599754333,-0.003407747019082308,0.2197316437959671,-0.9755544066429138,0.14668777585029602,0.0903116911649704,-0.4091349244117737,-0.23282007412050515,0.02422880041457635,0.10786919238450546,-0.9662153882371112,-0.22153938869161674,-0.003493124787400287,2.668297616255366
1780770885629474048,2.5741801261901855,2.440833330154419,-0.20874474942684174,0.2212471067905426,-0.005042346194386482,0.19577516615390778,-0.9806358218193054,0.15695884823799133,-0.05479922890663147,-0.3986823558807373,-0.2318111996771862,0.020449511546193372,0.09624912775512197,-0.9677714126568722,-0.19704784444012938,-0.005141869711342613,2.6708815707479294
1780770885639509248,2.5842151641845703,2.359722852706909,-0.0830901637673378,0.1333787739276886,-0.006239283364266157,0.17263169586658478,-0.9849666953086853,0.032362330704927444,-0.10349412262439728,-0.1306186318397522,-0.23106818355495423,0.017049863018016875,0.08500564839818499,-0.9690669648789179,-0.17350085348267136,-0.006334427522786101,2.6728953558363
1780770885649543168,2.5942492485046387,2.7929797172546387,0.20944729447364807,-0.11327441781759262,-0.005596074741333723,0.14757928252220154,-0.9890344142913818,-0.1673470437526703,0.08792486786842346,-0.017404794692993164,-0.23121490713939363,0.014426037313071087,0.07262706691484457,-0.9700808869733729,-0.1481203123020459,-0.0056580592338596495,2.673211907597704
1780770885659578368,2.6042842864990234,3.2854158878326416,0.47861698269844055,-0.335650235414505,-0.002504562959074974,0.11694256216287613,-0.9931355118751526,-0.24630525708198547,0.27206501364707947,-0.08166307210922241,-0.23268470132490762,0.012432345204809346,0.057250989384548215,-0.9707860943450122,-0.11721075816463367,-0.002521869046167965,2.6709469037998836
1780770885669613312,2.614319324493408,2.9296622276306152,0.5854635238647461,-0.30443239212036133,0.0027790602762252092,0.08518807590007782,-0.9963610172271729,-0.1958790421485901,0.02961905300617218,-0.03682684898376465,-0.23457628068196262,0.011361680010683575,0.04111453908095135,-0.9711614664666185,-0.08529144643616395,0.0027892029867201537,2.667706756384226
1780770885679647232,2.6243531703948975,2.4200868606567383,0.5364406108856201,-0.4613064229488373,0.008299318142235279,0.05859288573265076,-0.9982474446296692,-0.187315434217453,-0.40937718749046326,-0.06658715009689331,-0.2366578086591092,0.010972755380245109,0.027493049107018188,-0.9711420231037663,-0.05862646518101319,0.0083136970693808,2.6637738689576236
1780770885689682176,2.6343882083892822,2.529700756072998,0.5320950746536255,-0.4517632722854614,0.013247508555650711,0.03432874009013176,-0.999322772026062,-0.07443524897098541,-0.36486461758613586,-0.2363187074661255,-0.23909618576744104,0.01053798619582402,0.01508493266488658,-0.970821540302676,-0.03433548583982589,0.013255709204131768,2.6588670237784933
1780770885699717376,2.644423246383667,2.6660830974578857,0.4864003360271454,-0.5114470720291138,0.018469881266355515,0.008026410825550556,-0.9997972249984741,0.043114591389894485,0.02343721315264702,-0.3299604654312134,-0.24158785936378524,0.00993145858306217,0.0016632395273154157,-0.970326682979289,-0.008026497209742115,0.018471526936023438,2.6536378200280453
1780770885709751296,2.6544573307037354,2.434763193130493,0.2671215236186981,-0.5330389142036438,0.02232864871621132,-0.017620418220758438,-0.9995954036712646,0.010706629604101181,-0.020999576896429062,-0.45777153968811035,-0.24423258341801682,0.008675081231064901,-0.011271459034896016,-0.9696124405276546,0.017621330728301673,0.02233397225726972,2.647888544183805
1780770885719786240,2.664492130279541,2.0324623584747314,-0.03484287112951279,-0.5883823037147522,0.023745644837617874,-0.039849694818258286,-0.9989234805107117,0.08440864831209183,-0.026632845401763916,-0.47777628898620605,-0.24704786839434573,0.00658265846135692,-0.022246837995924883,-0.9687254564370542,0.039860247517617096,0.023766759376452003,2.641716542750111
1780770885729821184,2.674527168273926,1.550789713859558,-0.222953662276268,-0.5465928316116333,0.022561006247997284,-0.057866308838129044,-0.9980694055557251,0.08362490683794022,0.048405859619379044,-0.4815295934677124,-0.24988186265792278,0.0036907115622016582,-0.030849434640319865,-0.9677777669539824,0.05789865325415478,0.022600797584926096,2.6355724188359764
1780770885739855360,2.684561252593994,0.49142250418663025,-0.40549683570861816,-0.5140279531478882,0.019946595653891563,-0.06829067319631577,-0.9974660277366638,0.03634307533502579,0.060096703469753265,-0.4385691285133362,-0.2525404865802737,0.0010217094841058127,-0.035579936762271044,-0.9669314240962409,0.06834386377427809,0.019994602270359145,2.629968245265367
1780770885749890304,2.694596290588379,-0.59955894947052,-0.37462174892425537,-0.38181665539741516,0.016054578125476837,-0.06768348067998886,-0.9975776672363281,-0.014009900391101837,0.01577308028936386,-0.2653312683105469,-0.2548208677462827,-0.0008673661434372751,-0.03479102236924523,-0.9663618698384482,0.06773526461143164,0.016092172673984523,2.625403143733564
1780770885759925248,2.7046313285827637,-1.629155158996582,-0.10887688398361206,-0.29950395226478577,0.013948311097919941,-0.05618683621287346,-0.9983228445053101,-0.10103022307157516,-0.17072661221027374,-0.11222708225250244,-0.2564694173928232,-0.0004676341705757104,-0.028954506572734143,-0.9661185055196454,0.05621644231261214,0.013970834687351373,2.622241948510137
1780770885769959168,2.714665174484253,-2.462388515472412,0.23772846162319183,-0.2616114318370819,0.014355507679283619,-0.0366305373609066,-0.9992257356643677,-0.24297794699668884,-0.3360348641872406,0.10355013608932495,-0.25791654658056107,0.002210517251812818,-0.01955077146201443,-0.9659669057751146,0.03663873521522504,0.014365642827691287,2.6194958373965753
1780770885779994368,2.7247002124786377,-3.1193273067474365,0.340614378452301,0.3002798855304718,0.01733039692044258,-0.007117934990674257,-0.9998244643211365,-0.24383185803890228,-0.3921893239021301,0.5077895522117615,-0.2578765350932514,0.007454609467121611,-0.00567348341057433,-0.9661324318903943,0.007117995036183121,0.01733170316600733,2.619859985637861
1780770885790029312,2.7347352504730225,-3.5770034790039062,0.5073133707046509,0.6573794484138489,0.02217659167945385,0.025566155090928078,-0.9994271397590637,-0.1499384343624115,-0.532447874546051,0.6784127354621887,-0.25518264534712987,0.013985578201081435,0.00953116295473814,-0.9667446710999288,-0.02556894162260818,0.022185662757266997,2.625727413272579
1780770885800063488,2.744769334793091,-3.4265501499176025,0.15886853635311127,0.5683073401451111,0.025734828785061836,0.06141950562596321,-0.9977802038192749,-0.030342983081936836,-0.4615354835987091,0.4435352087020874,-0.25186781707241046,0.020202430407893886,0.026490619503709713,-0.9671880447815208,-0.061458186794748196,0.025786365169651368,2.6328766157348933
1780770885810098176,2.7548041343688965,-2.87192702293396,-0.056096892803907394,0.48084592819213867,0.026618734002113342,0.0928494930267334,-0.9953242540359497,0.10594962537288666,-0.1888425350189209,0.13048666715621948,-0.24900735160676493,0.02449142904767121,0.04168970789693034,-0.9672939213867038,-0.09298342375296222,0.026737406659817758,2.6389241985864276
1780770885820133120,2.7648391723632812,-1.758492350578308,0.020723853260278702,0.38389167189598083,0.02658134140074253,0.11603404581546783,-0.9928894639015198,0.12257331609725952,0.26629015803337097,0.04568493366241455,-0.24657534480963023,0.02725837973901341,0.05303053518624771,-0.967287601410739,-0.1162960159288998,0.026765307841312893,2.6439539984434575
1780770885830167296,2.7748732566833496,-0.6092312932014465,0.46078190207481384,0.3801496624946594,0.029428740963339806,0.12780015170574188,-0.9913632273674011,0.007375456392765045,0.5869367718696594,0.1467282772064209,-0.24467764475354395,0.029998779135200243,0.05846754247849114,-0.9673750760901044,-0.1281506207200197,0.029676409665155352,2.648029186176106
1780770885840202240,2.7849082946777344,-0.0057518272660672665,0.8325850367546082,0.4252108931541443,0.03648790344595909,0.12986887991428375,-0.9908595681190491,-0.1637767255306244,0.5741716623306274,0.3160091042518616,-0.24285884521456927,0.03357809304121438,0.0586747137922697,-0.9677031322687336,-0.13023674110637093,0.03680786486836093,2.6522212923021984
1780770885850237440,2.794943332672119,-0.608445942401886,1.0292749404907227,0.4060438573360443,0.0463385246694088,0.1320483386516571,-0.9901595711708069,-0.2319159209728241,0.3310711681842804,0.2987685799598694,-0.24106074250583176,0.03853261749010106,0.05861272377499144,-0.9679718404444743,-0.132435126959235,0.04676492572999861,2.656550308413028
1780770885860271104,2.8049771785736084,-1.9999440908432007,1.0294275283813477,0.37503454089164734,0.05727168545126915,0.1444103866815567,-0.9878590703010559,-0.21773311495780945,0.0819384753704071,0.3029989004135132,-0.2391994208084169,0.04526109507086903,0.06341833497417554,-0.9678394083936678,-0.14491708371240167,0.05791073620091556,2.6612123143308297
1780770885870306304,2.815012216567993,-3.678520917892456,0.9227100014686584,0.3532634675502777,0.06748873740434647,0.1723785251379013,-0.9827160835266113,-0.09358126670122147,-0.019866928458213806,0.22891664505004883,-0.23708935154338084,0.05352896047600104,0.07600397954684188,-0.9670298809559674,-0.17324383898691778,0.06856806321560034,2.6666889931767095
1780770885880341248,2.825047254562378,-4.988262176513672,0.6969908475875854,0.39951351284980774,0.07625257968902588,0.2148832380771637,-0.9736584424972534,0.045619361102581024,0.018438905477523804,0.17351806163787842,-0.23433902060472656,0.06281052032754283,0.09605011955983825,-0.9653570916393537,-0.2165722752546545,0.07815601016128411,2.6738089286801188
1780770885890375168,2.835081100463867,-6.134174346923828,0.5913134813308716,0.4068678319454193,0.08340111374855042,0.26866814494132996,-0.9596154093742371,0.10011634230613708,0.08324530720710754,0.12956780195236206,-0.23083873256043613,0.07261504409570148,0.12214483883031782,-0.962559722277671,-0.27201005989891186,0.08669313857926159,2.682718957471695
1780770885900410112,2.845116138458252,-6.858984470367432,0.4178665578365326,0.38645443320274353,0.08944506198167801,0.3304622769355774,-0.9395713210105896,0.06802564859390259,0.1966220736503601,0.1376609206199646,-0.22669964585758715,0.0828190198602356,0.1528245616123139,-0.958328220126716,-0.33679331468739765,0.094911706243647,2.6931653598509877
1780770885910445312,2.8551511764526367,-7.239467620849609,0.31872984766960144,0.2288573533296585,0.09395642578601837,0.39604106545448303,-0.9134132266044617,0.01792100816965103,0.2706916928291321,0.22936171293258667,-0.22237193299569138,0.09279854273510103,0.18623058430072126,-0.9525006053019853,-0.40720135119323414,0.10250249967235643,2.7040668695262418
1780770885920479232,2.865185260772705,-6.99411153793335,0.29466286301612854,0.09572380781173706,0.09742546826601028,0.4604114592075348,-0.8823432326316833,-0.062147147953510284,0.3244548738002777,0.22496408224105835,-0.21844290461146793,0.10235264435880959,0.2198916178733695,-0.9452271414330611,-0.4784586620663581,0.10997127142169086,2.714212544985592
1780770885930514432,2.87522029876709,-6.735158443450928,0.3933388292789459,0.07992061227560043,0.10071656107902527,0.5195841193199158,-0.8484624624252319,-0.13581177592277527,0.32834678888320923,0.27261102199554443,-0.21477958079761691,0.11143022122481978,0.2516984057275977,-0.937070383176824,-0.5463641333020745,0.11815191741088578,2.7241097129729193
1780770885940549120,2.8852550983428955,-6.7459540367126465,0.47783586382865906,0.021501505747437477,0.10467977821826935,0.5757638216018677,-0.8108872771263123,-0.16183920204639435,0.3641165494918823,0.37724775075912476,-0.21118082689001427,0.12077729607753006,0.28278827466729595,-0.9278180070646457,-0.6135380269481482,0.12838286064134855,2.7347157086566525
1780770885950583296,2.895289182662964,-6.432494163513184,0.5860670208930969,0.09212987124919891,0.10926882177591324,0.628061830997467,-0.7704535722732544,-0.15896669030189514,0.29488128423690796,0.2731696367263794,-0.2075598293653714,0.1302687356122743,0.3127351596654346,-0.9176850090088107,-0.6790600266406762,0.14088444654277354,2.746556269187421
1780770885960618240,2.9053242206573486,-7.0211029052734375,0.6606043577194214,0.03188330680131912,0.1143931895494461,0.6779499053955078,-0.7261530160903931,-0.09373278170824051,-0.10278511047363281,0.021044373512268066,-0.20366403117386048,0.14005842983480818,0.3425013000313161,-0.9064201927687175,-0.7449702178214965,0.15624909128963832,2.760708816649189
1780770885970653184,2.9153592586517334,-8.347434043884277,0.37160009145736694,-0.1865435689687729,0.11773248016834259,0.7322818040847778,-0.670747697353363,0.013432078063488007,-0.42368805408477783,-0.03217893838882446,-0.19949878835922152,0.1502924330829341,0.37687972085510657,-0.8919496902436569,-0.8216666198018495,0.17375428183379824,2.7773499118330447
1780770885980687104,2.9253931045532227,-8.679553985595703,0.0009096693247556686,-0.1971413642168045,0.1173727735877037,0.7872762084007263,-0.6053261160850525,0.2338845431804657,-0.5383443236351013,-0.10472631454467773,-0.1940035208898537,0.1590924997848652,0.41476078335921446,-0.8746574408673874,-0.9063790414412825,0.19152340927454528,2.798538648239625
1780770885990722304,2.9354281425476074,-8.193432807922363,-0.2578046917915344,-0.33060169219970703,0.11449853330850601,0.8362388610839844,-0.5362786054611206,0.3340640962123871,-0.4707450866699219,-0.0685950517654419,-0.18793009982592407,0.16609675308022742,0.45196521766174064,-0.856050048469395,-0.9903880809937079,0.21034742242087787,2.8232871160775925
1780770886000757248,2.945463180541992,-7.13183069229126,-0.3456810414791107,-0.3124024271965027,0.11002175509929657,0.8754051327705383,-0.4707028269767761,0.2564485967159271,-0.10590440034866333,-0.027923882007598877,-0.18208080027862972,0.17106762969500944,0.48516435085072657,-0.8379726311519134,-1.0662733393676829,0.22961691450651892,2.849564669175205
1780770886010791424,2.9554972648620605,-6.045816898345947,-0.188118577003479,-0.2743895351886749,0.10625439882278442,0.9049044251441956,-0.41213810443878174,0.11295333504676819,0.2226284146308899,-0.06132686138153076,-0.17685464590473163,0.1751386789632927,0.5130861490874048,-0.8214568604583684,-1.1311551747103716,0.2523180902592823,2.8781453023016814
1780770886020826368,2.9655323028564453,-5.306138038635254,-0.03206958621740341,-0.33636075258255005,0.10305749624967575,0.9271963834762573,-0.36011946201324463,-0.06468164175748825,0.3338357210159302,-0.05260026454925537,-0.17278817105635377,0.1788881218925049,0.5365997701395515,-0.8063522553839392,-1.1868573091956525,0.27872634845454375,2.9080848596275066
1780770886030861056,2.975567102432251,-4.683952331542969,0.028430642560124397,-0.359855979681015,0.09980635344982147,0.9443773627281189,-0.31335294246673584,-0.14427046477794647,0.3331800103187561,-0.03079378604888916,-0.16969524460018803,0.18223721489903769,0.5568780132902061,-0.7923887891789511,-1.2356961408949372,0.30835163940112476,2.9396491626608334
1780770886040895232,2.9856011867523193,-4.209003448486328,0.005905892699956894,-0.4624273478984833,0.09594400972127914,0.9577961564064026,-0.2709638178348541,-0.11452921479940414,0.3626994490623474,-0.07513600587844849,-0.16724633027785982,0.1848750323112646,0.5747515270247721,-0.7794296865959552,-1.2792346651194568,0.3403086807779676,2.9731178019701474
1780770886050930176,2.995636224746704,-3.731207847595215,0.08519352227449417,-0.43555551767349243,0.09159603714942932,0.9683389067649841,-0.23222856223583221,-0.09440363943576813,0.4161979556083679,-0.0037791430950164795,-0.16540903314307676,0.18702203093142916,0.5906847530692094,-0.7673032468130926,-1.3184886918142589,0.37568845336225337,3.0094358734509203
1780770886060965376,3.005671262741089,-3.1974830627441406,0.15167029201984406,-0.3209857940673828,0.08823073655366898,0.9760943055152893,-0.19863398373126984,-0.11134777963161469,0.29502397775650024,-0.03070560097694397,-0.16396805251546573,0.18921781859371625,0.604052667972268,-0.7565921067117999,-1.351700260360194,0.41800976641100684,3.0516671649125793
1780770886071000320,3.0157063007354736,-2.838284492492676,0.23137244582176208,-0.3347487449645996,0.08537346869707108,0.9819784164428711,-0.16861094534397125,-0.15644893050193787,0.18093961477279663,-0.06402455270290375,-0.16288316477715306,0.19143099189162077,0.6156693113355723,-0.7468430284031718,-1.3806597781543006,0.46870203323637777,3.101474857936214
1780770886081034240,3.025740146636963,-2.478680372238159,0.259884238243103,-0.25116783380508423,0.08283360302448273,0.9863360524177551,-0.14240793883800507,-0.19284945726394653,0.20873242616653442,-0.09790273010730743,-0.1622372987661981,0.1935955260791881,0.6255531946063457,-0.7381619991161021,-1.4052958284197377,0.5268281593138272,-3.1252408772514415
1780770886091069184,3.0357751846313477,-2.2284064292907715,0.22299599647521973,-0.24540209770202637,0.0807458832859993,0.9896430373191833,-0.11868833750486374,-0.1403619647026062,0.2005884051322937,-0.12034060060977936,-0.16158194200601106,0.1956500789567634,0.6343318351692264,-0.7302297689142612,-1.4267483546313928,0.5973944849424374,-3.0562911693010006
1780770886101103360,3.045809268951416,-2.147059440612793,0.15088877081871033,-0.22746917605400085,0.07855816185474396,0.9922041893005371,-0.09674526751041412,-0.08994119614362717,0.14845144748687744,-0.11732031404972076,-0.16089092636958402,0.1973302327146122,0.6424080831479334,-0.7228325312479947,-1.4458488129201208,0.6820215491096663,-2.972776810462795
1780770886111138304,3.055844306945801,-1.8559906482696533,0.10664888471364975,-0.1738104671239853,0.0766814649105072,0.994100034236908,-0.07671427726745605,-0.061544738709926605,0.11277252435684204,-0.14049458503723145,-0.16004716079360587,0.19876342971350078,0.6497199081680336,-0.7160600840813498,-1.462115312635177,0.785184228401569,-2.870226913829243
1780770886121173248,3.0658791065216064,-1.6446340084075928,0.056839246302843094,-0.1867627501487732,0.07501130551099777,0.995434582233429,-0.059019237756729126,-0.05184847116470337,0.13502806425094604,-0.20222651958465576,-0.1591602616135394,0.19989794134088568,0.6561487589180086,-0.71005463530832,-1.4752042204513278,0.9041533100863678,-2.7514440514585137
1780770886131208192,3.075914144515991,-1.3297960758209229,0.009922738187015057,-0.21678297221660614,0.0729929506778717,0.9963570833206177,-0.04409974068403244,-0.05259193480014801,0.22535324096679688,-0.19834721088409424,-0.15850777696520596,0.20054135066266915,0.6616141603077285,-0.7049292588567416,-1.4854133397536526,1.0273204313628572,-2.6281443898224404
1780770886141242368,3.0859482288360596,-0.8675574064254761,-0.046310439705848694,-0.16612379252910614,0.07101777195930481,0.9969280362129211,-0.03303143009543419,-0.042148128151893616,0.26059454679489136,-0.2052345871925354,-0.15803588613602676,0.2007111273361971,0.6657321742911881,-0.7010994388159987,-1.4923929493522134,1.1354440894509936,-2.519502795091279
1780770886151277312,3.0959832668304443,-0.7402896881103516,-0.11676010489463806,-0.1099633052945137,0.06967833638191223,0.9972445964813232,-0.025455709546804428,-0.01941589266061783,0.20472067594528198,-0.24534201622009277,-0.15744967295047388,0.20058197615225362,0.6686097634862672,-0.6985251634783828,-1.4965448014603797,1.220528744013866,-2.4333279255021303
1780770886161312256,3.106018304824829,-0.8038527369499207,-0.19149212539196014,-0.07648976892232895,0.06869926303625107,0.9974778294563293,-0.017843980342149734,-0.01634635031223297,0.10765522718429565,-0.23604702949523926,-0.15650153095659722,0.2003471538528437,0.6715199385389082,-0.6960095353093614,-1.4997579204779967,1.3166713588226817,-2.33542585243995
1780770886171346176,3.1160521507263184,-0.7745276093482971,-0.2943732440471649,-0.043972842395305634,0.0680629163980484,0.9976310729980469,-0.009986944496631622,0.0007847398519515991,-0.002452850341796875,-0.23311609029769897,-0.15508322704366798,0.19992089576752514,0.6745651659811461,-0.6935003018313324,-1.50195029350423,1.4251049019309017,-2.224275025750724
1780770886181381120,3.126087188720703,-0.5578141808509827,-0.4413725435733795,0.008752687834203243,0.06790800392627716,0.997685968875885,-0.003372395411133766,0.04010896384716034,-0.01045757532119751,-0.24555951356887817,-0.1532088179324377,0.19914307096707934,0.6772413451581898,-0.691529698900876,-1.502753149147241,1.5211758562720372,-2.124322382861165
1780770886191416320,3.136122226715088,-0.12559913098812103,-0.5143625140190125,0.01057109422981739,0.06797004491090775,0.9976874589920044,-0.000179558657691814,0.05144525319337845,0.11313724517822266,-0.268665075302124,-0.15115486883685672,0.19772531891126266,0.6788334986809581,-0.6908271036109535,-1.5027751077763076,1.568154600565707,-2.072273318547038
1780770886201450240,3.1461563110351562,0.35857924818992615,-0.4578336775302887,0.06960698962211609,0.06840956956148148,0.9976561069488525,-0.0016416746657341719,0.013072371482849121,0.2234896421432495,-0.20354324579238892,-0.1494859333472517,0.1961337035558329,0.6787567553988132,-0.6917188125848748,-1.5023153368499134,1.5468031982623767,-2.0888695352526
1780770886211485184,3.156191110610962,0.5743688344955444,-0.5675934553146362,0.1310431808233261,0.06936220824718475,0.9975659847259521,-0.007153500337153673,-0.018458887934684753,0.23459649085998535,-0.21628093719482422,-0.14792847280660198,0.1943185893543886,0.6772470270162841,-0.6940417978333665,-1.5010110088214785,1.4680271264871865,-2.162735897679022
1780770886221520128,3.1662261486053467,0.291313111782074,-0.5673593878746033,0.18780232965946198,0.07094863802194595,0.9974090456962585,-0.01189574133604765,-0.010661162436008453,0.16007691621780396,-0.15468448400497437,-0.1458064398631737,0.1925324688271764,0.6760054570312908,-0.6961956552334025,-1.4987956640518727,1.4046745699665535,-2.2204081978771733
1780770886231554304,3.176260232925415,0.5676259994506836,-0.5660686492919922,0.2643602192401886,0.07309067249298096,0.9971964359283447,-0.016032641753554344,0.005415789783000946,0.06626486778259277,-0.0905652642250061,-0.14351134725147088,0.19107422214734165,0.6748883767871274,-0.69815528314416,-1.4958977108362725,1.3548634687880015,-2.264775279043331
1780770886241589248,3.1862952709198,1.3267443180084229,-0.7238921523094177,0.3384357690811157,0.0760294497013092,0.9967678189277649,-0.025946708396077156,0.0369008332490921,0.06478601694107056,-0.1695030927658081,-0.14115649641600275,0.18917765031378736,0.6717428545575166,-0.7021738181895676,-1.490373146051475,1.2419182413000078,-2.3715794942752897
1780770886251624448,3.1963303089141846,1.719525933265686,-0.706716775894165,0.30573028326034546,0.07905005663633347,0.9959813356399536,-0.042096033692359924,0.020788192749023438,0.16885924339294434,-0.12247002124786377,-0.13901370582795133,0.18659331524067996,0.6664344819832652,-0.7083241676257253,-1.4811153528139291,1.0814695112994475,-2.5252443983726907
1780770886261658112,3.206364154815674,1.5456819534301758,-0.5427485704421997,0.32679083943367004,0.0818079486489296,0.9948850870132446,-0.0592549629509449,-0.058980800211429596,0.18847978115081787,0.023381590843200684,-0.13737530245585153,0.18422236875146308,0.6606319990319464,-0.7146716059752373,-1.469610401805092,0.9439353892671789,-2.6570774189579467
1780770886271693312,3.2163991928100586,1.217512845993042,-0.3326645493507385,0.412156343460083,0.08524563908576965,0.9936521649360657,-0.07340597361326218,-0.08761076629161835,-0.006301760673522949,0.172984778881073,-0.13586584481757827,0.18294196591246578,0.6556136444913901,-0.7198912522266829,-1.4580617476917173,0.8598869128187396,-2.7372126277324407
1780770886281726976,3.226433038711548,0.8493865728378296,-0.284806489944458,0.3930279314517975,0.08911791443824768,0.9924719929695129,-0.08400821685791016,-0.03203478455543518,-0.16521674394607544,0.20913028717041016,-0.13434392232301434,0.1825082057612569,0.6516798635998788,-0.723847934275811,-1.4480161851331133,0.814903899802602,-2.779489441716895
1780770886291761152,3.236467123031616,0.6452863812446594,-0.31388941407203674,0.30020636320114136,0.09231642633676529,0.9915160536766052,-0.09150894731283188,0.0467216819524765,-0.10287457704544067,0.2237415909767151,-0.1327670430543788,0.18206826750920338,0.6489196179875446,-0.7267238536065289,-1.440443256535621,0.7897907687280088,-2.801781714763673
1780770886301796096,3.246502161026001,0.7696996927261353,-0.32882416248321533,0.22898438572883606,0.0946153849363327,0.9906136393547058,-0.09865332394838333,0.0846753865480423,-0.007383108139038086,0.22267675399780273,-0.13140420355512705,0.1812997293770764,0.6463774031711381,-0.7294241500650955,-1.433675564050147,0.7645083465117792,-2.8240675508898723
1780770886311831040,3.2565369606018066,0.9219363927841187,-0.29300862550735474,0.20115143060684204,0.09639839828014374,0.9895210862159729,-0.10749562084674835,0.06323904544115067,0.009914278984069824,0.17541253566741943,-0.13037687294481343,0.18025825747024632,0.6432411302988279,-0.732631998030113,-1.425901415112364,0.7310254093626108,-2.854667332408177
1780770886321864960,3.266571044921875,0.9521603584289551,-0.19105005264282227,0.217461958527565,0.09816546738147736,0.9882696866989136,-0.11698900163173676,0.009805716574192047,0.0011864304542541504,0.17047101259231567,-0.1296637869225259,0.17940341783383656,0.6397811454808476,-0.7359903153762842,-1.417477716385506,0.6981318908308147,-2.885423191665604
1780770886331900160,3.2766060829162598,0.9964891672134399,-0.05875406041741371,0.2554396986961365,0.10039016604423523,0.9868296980857849,-0.12684181332588196,-0.02920791506767273,-0.08483695983886719,0.17887426912784576,-0.12926542183958328,0.17907694507804253,0.6360114305401926,-0.7393992957725237,-1.4083199287985086,0.6695115924742601,-2.9131523496508076
1780770886341935104,3.2866411209106445,0.8026368618011475,-0.019500132650136948,0.295639306306839,0.10308924317359924,0.9853498935699463,-0.1358610838651657,-0.018586069345474243,-0.1917860507965088,0.1278960108757019,-0.12895253433205664,0.17925326965096083,0.6324062973841508,-0.7424970008962731,-1.3994135607032196,0.6490993301400605,-2.9335332912087435
1780770886351969024,3.296674966812134,0.498501718044281,-0.07594077289104462,0.2918698787689209,0.10597267001867294,0.9841049909591675,-0.14250366389751434,0.03330957144498825,-0.24617469310760498,0.05008119344711304,-0.12831082567989385,0.17960912970882495,0.6296735092995256,-0.7448411013107794,-1.3922618701112146,0.6394238846565027,-2.9429338143192947
1780770886362003968,3.3067100048065186,-0.027060046792030334,-0.15728703141212463,0.22876228392124176,0.10837575048208237,0.9834901094436646,-0.1449204683303833,0.07917002588510513,-0.26483166217803955,-0.0353163480758667,-0.12717200491019956,0.17984141083493638,0.6286468249960154,-0.7458468628811957,-1.3888319327121519,0.6421102987513799,-2.938997322349597
1780770886372039168,3.3167450428009033,-0.30963101983070374,-0.19920890033245087,0.17993402481079102,0.11016100645065308,0.983518660068512,-0.14337216317653656,0.11139659583568573,-0.23840153217315674,-0.05131469666957855,-0.1256738013950342,0.17993841025829263,0.6292345273222738,-0.7455817769733987,-1.3889898899267692,0.6551464877335292,-2.9239192431104533
1780770886382073088,3.3267791271209717,-0.5973179340362549,-0.2686913311481476,0.17095065116882324,0.11151991039514542,0.9839811325073242,-0.13908419013023376,0.11965073645114899,-0.238314688205719,-0.10632292926311493,-0.12387887052216635,0.17989429588796518,0.6309484497520365,-0.744443485983686,-1.391565638573513,0.675847192404095,-2.9004919737116817
1780770886392108288,3.3368141651153564,-0.8455130457878113,-0.26649901270866394,0.11342983692884445,0.11262613534927368,0.9847862720489502,-0.1323312222957611,0.10464378446340561,-0.23675453662872314,-0.0547567754983902,-0.12182144045406991,0.179801096895838,0.6336449755985641,-0.7425127813984622,-1.3961395781091304,0.7051280983160242,-2.86799589054253
1780770886402142976,3.346848964691162,-0.9627912044525146,-0.22127054631710052,0.14439386129379272,0.11345656961202621,0.9858245253562927,-0.12360304594039917,0.05399338901042938,-0.2511138319969177,-0.03736191987991333,-0.1197796438675977,0.179804055140567,0.6370784713031141,-0.739901641830416,-1.4022195039542804,0.7426228857911797,-2.827424720184432
1780770886412177152,3.3568830490112305,-1.204850196838379,-0.1961662471294403,0.16260908544063568,0.11480165272951126,0.986923336982727,-0.11315031349658966,0.04811643809080124,-0.25801098346710205,-0.004067718982696533,-0.11753432575557889,0.1801862475117132,0.6410598724331549,-0.7367230726451436,-1.4088996715010558,0.7926422811249961,-2.7745799205252424
1780770886422212096,3.3669180870056152,-1.2383897304534912,-0.12243716418743134,0.12495040148496628,0.11608270555734634,0.9881025552749634,-0.1008879616856575,0.05341194570064545,-0.18651247024536133,0.01879565417766571,-0.1153544882070498,0.18081644022741755,0.6456480722508857,-0.732896617344901,-1.4163870360127575,0.8553153453533467,-2.7095308170806693
1780770886432247040,3.376953125,-0.8848143815994263,-0.12923036515712738,0.1512853354215622,0.11727386713027954,0.9889723062515259,-0.09044772386550903,0.032369084656238556,-0.06767714023590088,-0.06223177909851074,-0.11349585153443323,0.18140196607413772,0.6495147927416977,-0.7296181529001604,-1.422148957458575,0.9138320012060063,-2.6490736247577416
1780770886442280960,3.3869869709014893,-0.6056930422782898,-0.062086742371320724,0.22125455737113953,0.1190623790025711,0.9893849492073059,-0.08331740647554398,0.01846509426832199,0.010126769542694092,-0.12563645839691162,-0.11180372377049994,0.18205817018967405,0.6520706407130542,-0.7274329745371181,-1.4249614957412882,0.9602184153484877,-2.6011409768703686
1780770886452316160,3.397022008895874,-0.4880939722061157,-0.09803661704063416,0.1809004843235016,0.1210474893450737,0.9895837306976318,-0.07791949808597565,0.029633045196533203,0.02964228391647339,-0.08737897127866745,-0.11034611124651515,0.18280846896176664,0.6539276078761588,-0.7257984971444089,-1.4263361175017542,0.9988555169534146,-2.561456067134585
1780770886462351104,3.407057046890259,-0.23646172881126404,-0.19232450425624847,0.19946616888046265,0.12281903624534607,0.9896242022514343,-0.07456254214048386,0.05921832472085953,0.036575138568878174,0.021248340606689453,-0.10885240961887871,0.1830981769791993,0.6551288318811951,-0.7248672305051788,-1.4266173187321536,1.0251778966013527,-2.533385282019391
1780770886472386048,3.4170920848846436,0.1522953361272812,-0.04473517835140228,0.33783045411109924,0.12532362341880798,0.9893589019775391,-0.07391208410263062,0.010281234979629517,0.010778427124023438,0.20344394445419312,-0.10735409397723847,0.18349229503757505,0.6552667668853795,-0.7248663228784246,-1.4247826012609097,1.0379330434199816,-2.5190577635106246
1780770886482419968,3.427125930786133,0.4754294455051422,-0.04609791934490204,0.25156745314598083,0.1284293681383133,0.9886890649795532,-0.07745865732431412,-0.1166343241930008,-0.011638283729553223,0.06110125780105591,-0.10645959514850648,0.18425154523717535,0.6536987379496101,-0.7262201569539635,-1.420248677468999,1.0280839433252509,-2.528781682231225
1780770886492454912,3.4371609687805176,0.5050978660583496,0.035317312926054,0.11190038174390793,0.13011711835861206,0.9880762696266174,-0.08230923861265182,-0.13356561958789825,0.1732853651046753,0.006015308201313019,-0.10621989772960505,0.1844838847604028,0.6517753269317692,-0.7279230326955691,-1.4162162014759103,1.006766152736855,-2.550153322718682
1780770886502490112,3.4471960067749023,0.8949364423751831,0.06868351995944977,0.07439108937978745,0.13110162317752838,0.9873811602592468,-0.08883115649223328,-0.1016673892736435,0.3646392226219177,0.08225458115339279,-0.10669741748363516,0.18466312627160447,0.6492179525146806,-0.7300899381392318,-1.411764996703399,0.975279889110114,-2.582666285197154
1780770886512524032,3.4572300910949707,1.318600058555603,-0.025189310312271118,6.545649375766516e-05,0.13147184252738953,0.9862601161003113,-0.10003016889095306,-0.06625580787658691,0.31891560554504395,-0.018164388835430145,-0.10767857235191404,0.18423983296547866,0.6450120922563085,-0.7337713122435912,-1.404835627475085,0.9203881916495572,-2.6384851692179203
1780770886522559232,3.4672651290893555,1.6476240158081055,0.015191668644547462,0.0063140313141047955,0.13145603239536285,0.9846842288970947,-0.11452485620975494,-0.054277122020721436,0.30610233545303345,0.02129366248846054,-0.1090369530496958,0.18343826540419497,0.63959985368322,-0.7384938829887595,-1.39555365098445,0.8541210318450557,-2.705727958577321
1780770886532594176,3.4773001670837402,2.382472276687622,-0.043258991092443466,0.005050094798207283,0.13156701624393463,0.9822089076042175,-0.1339983344078064,-0.051672011613845825,0.3304893374443054,-0.01923041045665741,-0.11078658456423833,0.18236938320837612,0.6322517197866108,-0.7447988933925496,-1.3818832209957743,0.7762431231781083,-2.784859904776266
1780770886542628096,3.4873340129852295,3.6608848571777344,-0.2953205406665802,-0.03289755433797836,0.13120098412036896,0.97771817445755,-0.1638699322938919,-0.02382490038871765,0.3044472932815552,-0.2531222701072693,-0.11308153662931086,0.18003933314975024,0.6210079511051365,-0.7544186108647264,-1.3593012609682826,0.6751316691347857,-2.8864037112319574
1780770886552663040,3.4973690509796143,4.388642311096191,-0.5105319023132324,-0.13982000946998596,0.12964387238025665,0.9703192114830017,-0.20413938164710999,0.03248073160648346,0.39503711462020874,-0.36470827460289,-0.11573725754657112,0.175869636775954,0.6058053959303784,-0.767251212001699,-1.3265472285662703,0.5658116610991681,-2.9943176985178335
1780770886562698240,3.507404088973999,4.963198661804199,-0.5481035113334656,-0.20037470757961273,0.1266869604587555,0.959857165813446,-0.2502489984035492,0.05745609104633331,0.5972716808319092,-0.2747906744480133,-0.11890209291750822,0.17048981059513832,0.5880550321668239,-0.7816564109064051,-1.2864925283344464,0.46863000574937946,-3.0893971637971624
1780770886572731904,3.5174379348754883,5.159606456756592,-0.5346764922142029,-0.18456217646598816,0.12335246801376343,0.9460007548332214,-0.29977765679359436,0.039290957152843475,0.5275862216949463,-0.24892833828926086,-0.12240389312415444,0.16470714913811935,0.5683156960351516,-0.7968098994026579,-1.240667954953598,0.3903634712102788,3.117361961735444
1780770886582767104,3.527472972869873,4.9457173347473145,-0.5170775651931763,-0.162660613656044,0.12002996355295181,0.9297816753387451,-0.34799274802207947,0.04062982648611069,0.2900364398956299,-0.16822731494903564,-0.12573373965623877,0.1589650389222692,0.5483919636420598,-0.8112875322638733,-1.1938192732594985,0.3321428471237009,3.060926040954192
1780770886592802048,3.537508010864258,4.658402442932129,-0.5726689100265503,-0.11987479031085968,0.11669142544269562,0.912043035030365,-0.3931421637535095,0.07717149704694748,0.04767376184463501,-0.09872490167617798,-0.12861836392240397,0.15327486787321135,0.5290895323710756,-0.8246384174962657,-1.148238648606764,0.28853441289851584,3.0195251653327912
1780770886602836224,3.547542095184326,4.308775424957275,-0.6159517168998718,-0.1452973335981369,0.11309142410755157,0.8935636878013611,-0.43445858359336853,0.09953980147838593,-0.07738631963729858,-0.08601874113082886,-0.13096353509193245,0.1475459799931058,0.5108824682906543,-0.8367065297603032,-1.105221562517463,0.2546530401483261,2.9886395706095867
1780770886612871168,3.557577133178711,4.22229528427124,-0.5753332376480103,-0.21144519746303558,0.10880697518587112,0.874427318572998,-0.47279810905456543,0.07274211943149567,0.013329148292541504,-0.062281906604766846,-0.13328841634563393,0.14176356779520036,0.493461279895541,-0.8477224634469996,-1.064254127563249,0.22619576437757866,2.9632347741343543
