time,seconds_elapsed,rotationRateX,rotationRateY,rotationRateZ,gravityX,gravityY,gravityZ,accelerationX,accelerationY,accelerationZ,quaternionW,quaternionX,quaternionY,quaternionZ,pitch,roll,yaw
1780770978535413760,0.05603671073913574,-0.059802014380693436,0.1925390213727951,-0.15494996309280396,-0.12626302242279053,-0.3545711636543274,-0.9264647364616394,-0.10579264163970947,0.030123531818389893,0.017040908336639404,-0.6193980171790653,-0.1638985436265108,-0.09952331070847853,-0.7613005499213766,0.36245539799760645,-0.13545026956423994,1.8004853797355655
1780770978545448704,0.06607174873352051,-0.2034984529018402,0.094853475689888,-0.12694042921066284,-0.12448616325855255,-0.353585422039032,-0.9270817637443542,-0.037272267043590546,-0.17006570100784302,0.013919532299041748,-0.6199707718272305,-0.1629153306402765,-0.0995877646018355,-0.7610369339286284,0.3614013656648882,-0.13347903045800713,1.798805642796024
1780770978555482880,0.07610583305358887,-0.34285077452659607,0.12456849217414856,-0.127505823969841,-0.12307122349739075,-0.3512033522129059,-0.9281754493713379,0.04372552037239075,-0.2524190843105316,0.03787088394165039,-0.6206308624793707,-0.16160737080438303,-0.09897134970737753,-0.7608581463761888,0.3588560237004649,-0.13182580947335062,1.7970562851661303
1780770978565517824,0.08614087104797363,-0.4460482597351074,0.18750271201133728,-0.13410620391368866,-0.12115980684757233,-0.34767311811447144,-0.9297546744346619,0.028050675988197327,-0.10662677884101868,0.06963199377059937,-0.6213569799360381,-0.1597123257408848,-0.09805432436026051,-0.7607843674442901,0.35508827116457764,-0.12958351614666475,1.7951548982577838
1780770978575552768,0.0961756706237793,-0.49544191360473633,0.1573241800069809,-0.10003211349248886,-0.11912406980991364,-0.343433141708374,-0.9315916895866394,-0.019593574106693268,-0.009777277708053589,0.05863642692565918,-0.6221204676657974,-0.15752920550971525,-0.09689526122696339,-0.7607640655817182,0.35056995482180475,-0.1271813504708548,1.7931957356671382
1780770978585586688,0.10620975494384766,-0.5475682020187378,0.10820669680833817,-0.053243570029735565,-0.11761363595724106,-0.3386234641075134,-0.9335422515869141,-0.02168384939432144,-0.03680378198623657,0.03971290588378906,-0.6227430942112601,-0.1553455191054964,-0.09537626752166455,-0.7608956489040263,0.345453555517174,-0.1253261060283707,1.7917240513051167
1780770978595621888,0.11624479293823242,-0.5841419100761414,0.07576526701450348,-0.017869070172309875,-0.1166473850607872,-0.3333638310432434,-0.9355543255805969,0.012963905930519104,-0.05597946047782898,0.0260390043258667,-0.6232872083056717,-0.15321865608602822,-0.09352468225638817,-0.7611111725841142,0.339869243489354,-0.12404250374883534,1.7905635713785688
1780770978605655808,0.12627887725830078,-0.5300291776657104,0.02487226016819477,0.02265758439898491,-0.11621548235416412,-0.3281419277191162,-0.9374523162841797,0.031269803643226624,-0.04640030860900879,0.027936935424804688,-0.6236986932684047,-0.151305860471014,-0.09154443911843917,-0.7613973930046972,0.33433591583894495,-0.12334020726787169,1.7898125860523357
1780770978615690752,0.13631367683410645,-0.46825557947158813,0.0295928455889225,0.05040878802537918,-0.1160270944237709,-0.32342132925987244,-0.9391146898269653,0.028166987001895905,-0.023151546716690063,0.025204777717590332,-0.6239203204319675,-0.14964258985984716,-0.08972047961030338,-0.7617615843500039,0.3293429217345905,-0.12292649821592014,1.7895472280674192
1780770978625724672,0.1463477611541748,-0.36561253666877747,-0.0012553473934531212,0.09495175629854202,-0.11618641763925552,-0.31943845748901367,-0.9404572248458862,0.025152474641799927,0.008006572723388672,0.0042389631271362305,-0.6239524725698512,-0.14835106390865274,-0.08810988027136336,-0.7621757584538496,0.32513683632981993,-0.12291963776592921,1.789762603334681
1780770978635759872,0.15638279914855957,-0.28186091780662537,-0.0038707051426172256,0.13348077237606049,-0.1166876032948494,-0.31625646352767944,-0.9414700269699097,0.024951763451099396,0.03425878286361694,-0.024075627326965332,-0.6237208942606937,-0.1474414251697941,-0.08675255351560175,-0.7626973315399505,0.32178081885397003,-0.12331305532526059,1.7906490956663421
1780770978645794816,0.16641783714294434,-0.21173934638500214,-0.02285238355398178,0.12221480160951614,-0.11719194054603577,-0.3137783408164978,-0.9422362446784973,0.02939288318157196,0.04504057765007019,-0.02620851993560791,-0.6234154087522914,-0.14676635626378456,-0.08568255590047473,-0.7631980523582456,0.3191697352006919,-0.1237409285422002,1.7916760448492481
1780770978655828736,0.1764516830444336,-0.14133255183696747,-0.022014955058693886,0.1537594050168991,-0.11786484718322754,-0.31196337938308716,-0.942754864692688,0.02164292335510254,0.03671008348464966,-0.02549159526824951,-0.6230393091945913,-0.14637762892659212,-0.08483015130200466,-0.763675053392934,0.31725883828323237,-0.1243763949668892,1.7928603135669883
1780770978665863680,0.18648672103881836,-0.09475360065698624,0.006558100692927837,0.1511620283126831,-0.11840800940990448,-0.3106718361377716,-0.9431132078170776,0.01017741858959198,0.023760825395584106,-0.022203505039215088,-0.6225180828023799,-0.14609969005695303,-0.08425119460205288,-0.7642171965736975,0.31589974647554264,-0.12489664282125156,1.7943715252376022
1780770978675897856,0.19652080535888672,-0.052989114075899124,0.0036315531469881535,0.12731368839740753,-0.11874599754810333,-0.30982574820518494,-0.9433490633964539,0.0056936293840408325,0.017146915197372437,-0.016382992267608643,-0.6220439428904382,-0.1458965483234466,-0.08390278764067416,-0.7646803328327062,0.31500976054508645,-0.12521846477693208,1.7957051961909367
1780770978685932800,0.20655584335327148,-0.030267557129263878,0.011984557844698429,0.1348152756690979,-0.11907733976840973,-0.30929991602897644,-0.9434797763824463,0.0005623325705528259,0.021229267120361328,-0.009706199169158936,-0.6215722862848304,-0.14579987137158543,-0.08368090966283101,-0.7651063376740247,0.3144567521284715,-0.12554699021839505,1.7970094536605627
1780770978695966720,0.21658968925476074,-0.02539743483066559,0.01589634269475937,0.156065434217453,-0.11936359107494354,-0.3088672161102295,-0.9435853958129883,0.006311230361461639,0.018233060836791992,-0.008471488952636719,-0.6210447503591748,-0.14571083335184723,-0.08352042476167877,-0.7655691476254423,0.3140017841728854,-0.12583168909149245,1.7984482319899713
1780770978706001664,0.2266247272491455,-0.06259779632091522,0.04509923234581947,0.12287793308496475,-0.11946301907300949,-0.3082553744316101,-0.9437728524208069,0.002214483916759491,0.0017825961112976074,0.00038295984268188477,-0.620514281394672,-0.14548650782912764,-0.0833501243570549,-0.7660604008461782,0.31335855129653944,-0.12591064452248446,1.7998829059513233
1780770978716036864,0.23665976524353027,-0.08776706457138062,0.02694912627339363,0.10481876879930496,-0.11945727467536926,-0.3074199855327606,-0.9440460205078125,-0.006336189806461334,-0.00958135724067688,0.012786865234375,-0.6201327764805221,-0.1451612762583705,-0.0830974294500729,-0.7664583944674046,0.31248051717314584,-0.12586860748207665,1.8009291181510356
1780770978726070784,0.24669384956359863,-0.1309097409248352,0.044788576662540436,0.14432595670223236,-0.11953125894069672,-0.30630090832710266,-0.9444003701210022,-0.004965208470821381,-0.02321264147758484,0.017749369144439697,-0.6197354292550775,-0.14477133707128975,-0.08271080707690881,-0.7668952140500747,0.31130471216957284,-0.12589897948035245,1.8020418511913228
1780770978736105984,0.2567288875579834,-0.16587118804454803,0.02733941376209259,0.13244879245758057,-0.11961004137992859,-0.30467385053634644,-0.9449165463447571,0.005077570676803589,-0.021742165088653564,0.02084428071975708,-0.6193065135850051,-0.14421000596435518,-0.08212917911476209,-0.7674096833322681,0.30959597681035017,-0.125912989950458,1.803265940127292
1780770978746139648,0.26676273345947266,-0.1478269398212433,0.02078084647655487,0.11724800616502762,-0.1197388544678688,-0.3030267655849457,-0.9454297423362732,0.0008576288819313049,-0.02311462163925171,0.026835381984710693,-0.6189472552399212,-0.1436706089024021,-0.08151006041408271,-0.7678665495183602,0.3078671461113246,-0.12597946343881897,1.804313419404602
1780770978756174848,0.2767977714538574,-0.15144404768943787,0.009002350270748138,0.14834174513816833,-0.11993524432182312,-0.30145126581192017,-0.9459083676338196,0.0017254054546356201,-0.023133695125579834,0.01416093111038208,-0.6185025742429021,-0.14317442701542077,-0.08091287563694352,-0.7683805359966529,0.306214353453728,-0.12612072712273276,1.8055845954505347
1780770978766208768,0.2868318557739258,-0.1402057707309723,-0.010318884626030922,0.18673306703567505,-0.12048833072185516,-0.2998788058757782,-0.9463378190994263,0.014928027987480164,-0.00026157498359680176,0.0064421892166137695,-0.6179678900992334,-0.14281437460984941,-0.08021937030910738,-0.7689503216764095,0.3045656219520757,-0.12663926810615464,1.8071268030474756
1780770978776243712,0.29686665534973145,-0.16320456564426422,-0.009015532210469246,0.1993604451417923,-0.12117882072925568,-0.2982117235660553,-0.9467763304710388,0.017998889088630676,0.010736137628555298,0.011229455471038818,-0.6172886877527377,-0.1424645204982604,-0.07947127211463026,-0.7696381330665633,0.30281857504543813,-0.12729885390400614,1.8090611376458452
1780770978786277888,0.3069007396697998,-0.19659501314163208,-0.04579751193523407,0.1791933923959732,-0.12191803753376007,-0.29658153653144836,-0.947193443775177,0.01266510784626007,-0.006107062101364136,0.022129356861114502,-0.616690148715414,-0.1421567413048076,-0.078706732277375,-0.770253195416045,0.3011111518816217,-0.1280111882647255,1.810784733556171
1780770978796312832,0.31693577766418457,-0.3478628396987915,-0.06238754466176033,0.25362926721572876,-0.12301195412874222,-0.29356804490089417,-0.9479904174804688,0.001155272126197815,-0.022960245609283447,0.043220579624176025,-0.6160819786866925,-0.14153251282361268,-0.07728733057908763,-0.7709981720666435,0.2979572128326734,-0.12903972787080217,1.812638626107403
1780770978806347776,0.32697081565856934,-0.29166534543037415,-0.11765214055776596,0.3269471824169159,-0.12467977404594421,-0.29012763500213623,-0.94883131980896,0.02055380493402481,-0.04074394702911377,0.03101515769958496,-0.6152203179098591,-0.1409768015557136,-0.07556370092107581,-0.7719583026298785,0.29436020971854854,-0.13065494934870542,1.8152197688365697
1780770978816381696,0.3370046615600586,-0.3271743357181549,-0.08396327495574951,0.38954824209213257,-0.12668301165103912,-0.28671637177467346,-0.9496026039123535,0.03763273358345032,-0.12134939432144165,-0.010632932186126709,-0.6140547047656892,-0.14054282500991955,-0.07379976992428827,-0.7731351791497737,0.2907975302074469,-0.1326232661399305,1.8186032973306565
1780770978826416640,0.34703969955444336,-0.1881818175315857,-0.05736894905567169,0.6143928170204163,-0.12885360419750214,-0.28359487652778625,-0.9502477049827576,0.038887783885002136,-0.07643625140190125,-0.008965551853179932,-0.6124356900717208,-0.14023708652167338,-0.07217831627099293,-0.7746266122389027,0.2875408348978065,-0.134777958720746,1.8231423004019287
1780770978836450816,0.3570737838745117,-0.13620969653129578,-0.05983396992087364,0.775948703289032,-0.13134703040122986,-0.28112560510635376,-0.9506399631500244,0.06469663977622986,0.02273327112197876,-0.042646169662475586,-0.6098515488950196,-0.1401969776066097,-0.07088600628564196,-0.7767888889433276,0.28496682255211414,-0.1372976812653927,1.8301490210803524
1780770978846485760,0.3671088218688965,0.010352306999266148,0.07489560544490814,0.9588660597801208,-0.13405324518680573,-0.27928534150123596,-0.9508046507835388,0.10091117024421692,0.04437631368637085,-0.05723673105239868,-0.6064443799909182,-0.14038625554510745,-0.069924163651609,-0.779504670287366,0.28304974793297344,-0.14006606459217516,1.8392340885843246
1780770978856519680,0.37714266777038574,-0.02907286398112774,0.08539658784866333,1.1074097156524658,-0.13622958958148956,-0.2779513895511627,-0.9508861899375916,0.13450536131858826,-0.05052456259727478,-0.07943302392959595,-0.6023190869012173,-0.14047227831569517,-0.06945826491407302,-0.7827226700084606,0.2816607983166561,-0.14229764679637563,1.8500474729444456
1780770978866554624,0.3871777057647705,-0.18598099052906036,-0.1735667884349823,1.3795701265335083,-0.1397080421447754,-0.2752823531627655,-0.9511578679084778,0.1900315284729004,-0.1443648636341095,-0.03777951002120972,-0.5975933257309366,-0.14062240415041274,-0.06816454713744093,-0.7864230322352409,0.278883397954341,-0.14583924299900283,1.862498491837601
1780770978876589824,0.3972127437591553,-0.1321297287940979,-0.32643717527389526,1.5581520795822144,-0.14654166996479034,-0.27140116691589355,-0.9512449502944946,0.26940542459487915,-0.23154377937316895,0.03275740146636963,-0.5919184289828934,-0.14171586336128472,-0.06552970727729863,-0.7907306515987973,0.2748485335092476,-0.15285090714001429,1.8775992176540437
1780770978886623744,0.40724682807922363,-0.0029773463029414415,-0.22068703174591064,1.5126008987426758,-0.15288680791854858,-0.26835572719573975,-0.951110303401947,0.3189939856529236,-0.35014402866363525,0.03741401433944702,-0.5859742750952873,-0.14289832540062897,-0.06344223463526272,-0.7951032302654318,0.27168575306221737,-0.1593821758506548,1.8931922475628002
1780770978896658944,0.4172818660736084,0.4314950108528137,0.4529801905155182,1.0332380533218384,-0.15637168288230896,-0.2681129574775696,-0.9506120681762695,0.31346094608306885,-0.37599101662635803,-0.020075738430023193,-0.5805081245269134,-0.1438391936240383,-0.06327912256685471,-0.7989469755647155,0.2714337496307991,-0.1630357356200305,1.9072034177234667
1780770978906692864,0.42731571197509766,1.0059863328933716,1.3962366580963135,0.02356678619980812,-0.14822180569171906,-0.27476102113723755,-0.9500192999839783,0.35058385133743286,-0.28125399351119995,-0.04001671075820923,-0.577579301908855,-0.1422572766258874,-0.06894356532548632,-0.8008819051152579,0.2783411527982998,-0.15477200270112904,1.9137167241971103
1780770978916727808,0.4373507499694824,0.8816531300544739,0.4905671179294586,0.46140164136886597,-0.1380014568567276,-0.28396138548851013,-0.9488527178764343,0.4172373116016388,-0.17815101146697998,-0.1355741024017334,-0.5760033676217661,-0.14069400974047616,-0.07601856822949755,-0.801652329794323,0.28792303574048855,-0.14442765980807792,1.9164696451085304
1780770978926761984,0.4473848342895508,0.1893194019794464,-1.2675637006759644,1.8392075300216675,-0.14569561183452606,-0.2875913977622986,-0.9466065764427185,0.5961961150169373,-0.11704117059707642,0.034405648708343506,-0.5710684017666027,-0.14458144821794017,-0.07611125644973558,-0.8044776395328952,0.2917110417316027,-0.15271520754341267,1.9294404155972151
1780770978936796928,0.45741987228393555,-0.24719160795211792,-1.2882250547409058,2.170083522796631,-0.16487905383110046,-0.2838243544101715,-0.9445944428443909,0.6551134586334229,-0.234867662191391,0.19294649362564087,-0.5631743242555107,-0.1508263226197203,-0.07038609342046631,-0.8094022664431823,0.2877801365331936,-0.17280910208757366,1.9509022338921689
1780770978946831616,0.4674546718597412,-0.49740439653396606,-0.68958979845047,2.059312582015991,-0.1798364520072937,-0.27669569849967957,-0.9439800381660461,0.3352929949760437,-0.49042466282844543,0.04999810457229614,-0.5552615541484217,-0.15439687768920948,-0.06458774885280377,-0.8146623293956391,0.2803538621356002,-0.18825291691878293,1.9717135304290743
1780770978956865792,0.47748875617980957,-0.7092074155807495,-0.7431415915489197,2.3468925952911377,-0.19222670793533325,-0.2668587565422058,-0.9443703293800354,0.11967116594314575,-0.5699179768562317,-0.0263480544090271,-0.5469701940009837,-0.1561744852766471,-0.058518135838752566,-0.8203710945769589,0.27013210293051293,-0.20080681854629592,1.9928713661287585
1780770978966900736,0.48752379417419434,-0.9141530990600586,-1.0645707845687866,2.546673059463501,-0.2072279304265976,-0.2543497383594513,-0.9446495771408081,0.3424360752105713,-0.3624562919139862,0.060356974601745605,-0.5376648203592432,-0.15840707058439085,-0.050817535008998466,-0.8265840928819007,0.2571752817154383,-0.21594946613250254,2.016216850713404
1780770978976934912,0.4975578784942627,-1.3312715291976929,-1.2804360389709473,2.5284643173217773,-0.22460316121578217,-0.23834742605686188,-0.944851279258728,0.6004271507263184,-0.17725621163845062,0.06357991695404053,-0.5282444969487198,-0.1609027760527447,-0.04104461647689766,-0.8326964783775062,0.24066388136763794,-0.23338115141664112,2.0393095450057164
1780770978986969600,0.5075926780700684,-1.8489285707473755,-1.5219248533248901,2.5435550212860107,-0.24364091455936432,-0.21744616329669952,-0.9451752305030823,0.6827278137207031,-0.10752025246620178,0.04811108112335205,-0.51915939510112,-0.16305937589087877,-0.028705589919548725,-0.8384874008167554,0.2191972640298069,-0.2522811897257556,2.0607197899662753
1780770978997003776,0.5176267623901367,-2.6727263927459717,-1.7132947444915771,2.515760898590088,-0.2641753554344177,-0.18979090452194214,-0.945616602897644,0.6931304335594177,-0.12011510133743286,0.06231582164764404,-0.5104775624151044,-0.16438489259138267,-0.013011303951502446,-0.8439318835715721,0.19094917847014153,-0.27242286845856206,2.079842422143649
1780770979007038720,0.5276618003845215,-3.7289040088653564,-1.8312149047851562,2.415013551712036,-0.2851947546005249,-0.1527315080165863,-0.9462225437164307,0.6600116491317749,-0.155694380402565,0.09702515602111816,-0.5026608984337795,-0.16382628058188883,0.007049228017330072,-0.8487893710386032,0.1533316246729471,-0.292743887690405,2.0948986953107265
1780770979017073920,0.5376968383789062,-5.010674953460693,-1.961820125579834,2.2671072483062744,-0.3061904013156891,-0.10444691777229309,-0.9462231397628784,0.6170119643211365,-0.1558375060558319,0.1557568907737732,-0.4960178526567711,-0.16076913938957274,0.03227544509627351,-0.852688586007251,0.10463776234145342,-0.31295804705141067,2.1043904367955655
1780770979027107840,0.5477306842803955,-6.420549392700195,-2.1664631366729736,2.025648832321167,-0.32730069756507874,-0.043425630778074265,-0.9439218640327454,0.6188350915908813,-0.10514919459819794,0.24679356813430786,-0.49083867829364425,-0.15492373218973177,0.06354298069611217,-0.8550078161227046,0.043439289743087445,-0.3337726016946975,2.106633497143106
1780770979037142784,0.5577657222747803,-7.838057518005371,-2.430516242980957,1.7086952924728394,-0.34908220171928406,0.030209537595510483,-0.9366050362586975,0.643958330154419,-0.05422686040401459,0.3488364815711975,-0.4872681564510167,-0.14650067225236724,0.10116831444310634,-0.8549107663549795,-0.030214134328364495,-0.3567616126233532,2.1000625063805143
1780770979047176960,0.5677998065948486,-9.059164047241211,-2.714791774749756,1.367027759552002,-0.37195706367492676,0.11471670120954514,-0.9211341142654419,0.6601650714874268,-0.05558888614177704,0.4390326738357544,-0.48512083087452484,-0.13591329954042655,0.14477749752247235,-0.8516014205159066,-0.11496981175661031,-0.3837808595368343,2.083613228056467
1780770979057211904,0.5778348445892334,-10.069382667541504,-3.017056465148926,1.1154452562332153,-0.3960528075695038,0.2067650705575943,-0.8946453928947449,0.6542315483093262,-0.0738152414560318,0.5616528391838074,-0.48367075469261755,-0.12377432477925088,0.19328014217819017,-0.8446214459173325,-0.20826741298994914,-0.41676040668453596,2.057272246810401
1780770979067245824,0.5878686904907227,-10.944530487060547,-3.2914273738861084,0.9364270567893982,-0.42116034030914307,0.3033340871334076,-0.8547586798667908,0.6434656381607056,-0.06348118185997009,0.619239330291748,-0.4820680375274682,-0.11046021740485026,0.2458031440951019,-0.8336605397611928,-0.3081896528248152,-0.45781007061116746,2.0206923789095534
1780770979077280768,0.5979037284851074,-11.637791633605957,-3.457024574279785,0.8333166241645813,-0.4461510181427002,0.40116578340530396,-0.800009548664093,0.6219170093536377,-0.026303112506866455,0.625113308429718,-0.4796268096290369,-0.09598302084714433,0.3013013345173469,-0.8185125421954472,-0.4127891725772393,-0.5087220507329262,1.9727430600901446
1780770979087315712,0.6079387664794922,-12.035689353942871,-3.473534107208252,0.7239935994148254,-0.4692310392856598,0.4959478974342346,-0.73065584897995,0.5831074118614197,-0.00037294626235961914,0.5792428851127625,-0.4759880233095289,-0.08029137750878537,0.3580857116335323,-0.7992267497466717,-0.518926088773252,-0.5708761145387897,1.9118175773084318
1780770979097349888,0.6179728507995605,-12.008281707763672,-3.440573215484619,0.6453845500946045,-0.489496648311615,0.5826944708824158,-0.648737370967865,0.5536292791366577,-0.02394813299179077,0.43996667861938477,-0.4709901340682451,-0.06400041288356906,0.41416814987791395,-0.7762325820949473,-0.6220402907546183,-0.6463987446639223,1.8363251717072826
1780770979107384832,0.6280078887939453,-11.306635856628418,-3.3820111751556396,0.6342307329177856,-0.5061571002006531,0.6568129658699036,-0.5589291453361511,0.5544512271881104,-0.11677390336990356,0.32989466190338135,-0.46428796042245846,-0.04819978862672297,0.4671319057021298,-0.7509336232453017,-0.7165843772348952,-0.7358914848527248,1.7473616914612622
1780770979117418752,0.6380417346954346,-10.541708946228027,-3.3653318881988525,0.6526160836219788,-0.5190831422805786,0.7163525223731995,-0.4662529528141022,0.5836430788040161,-0.25350767374038696,0.29405754804611206,-0.45584477263564965,-0.03388558451726397,0.5154854912687636,-0.7247979540387838,-0.7985606246559077,-0.8389632876546262,1.6467726291057672
1780770979127453696,0.6480767726898193,-9.67580509185791,-3.2702903747558594,0.721259593963623,-0.5280134677886963,0.7626532316207886,-0.37357982993125916,0.5698836445808411,-0.3534430265426636,0.48895150423049927,-0.4458151106140686,-0.021015685804822548,0.5592570303190132,-0.6985978149689964,-0.8674053365460953,-0.9550415425806433,1.5351694443271844
1780770979137487872,0.6581108570098877,-8.883757591247559,-3.187453031539917,0.8035624623298645,-0.5326683521270752,0.7972875833511353,-0.2838960886001587,0.4942314624786377,-0.42746031284332275,0.8040071725845337,-0.43456074774811504,-0.009413191578889724,0.5983003825639477,-0.673130790059094,-0.9227880975975838,-1.0811221459410885,1.4150771207134227
1780770979147522560,0.6681456565856934,-8.034716606140137,-2.9381213188171387,0.9353489875793457,-0.5330569744110107,0.8224316835403442,-0.19863680005073547,0.37700527906417847,-0.4807872772216797,1.0364205837249756,-0.42245812671152844,0.0013633152653838754,0.6329926849441896,-0.6487277152001877,-0.9656725358063858,-1.2140988443119312,1.2887980018687588
1780770979157557760,0.6781806945800781,-6.6284260749816895,-2.690297842025757,1.2151877880096436,-0.5286188125610352,0.8400304317474365,-0.12211042642593384,0.26926523447036743,-0.4361303448677063,1.1492711305618286,-0.40968138510180424,0.011285906002635931,0.6624329507044803,-0.62706964455085,-0.9973393284644751,-1.3437793124615491,1.1667147282143748
1780770979167591936,0.6882147789001465,-5.149195194244385,-2.3641817569732666,1.4521807432174683,-0.5195563435554504,0.852392852306366,-0.05905716121196747,0.20833808183670044,-0.31595486402511597,1.140951156616211,-0.3965408151765002,0.019829755720654943,0.6856224913504272,-0.6101508079759176,-1.0205444631769311,-1.4576136705398555,1.0621616433043595
1780770979177626880,0.6982498168945312,-3.801431655883789,-2.117549419403076,1.7007460594177246,-0.5067068338394165,0.8620712161064148,-0.009028579108417034,0.140450119972229,-0.0883132815361023,1.0560104846954346,-0.38345939390027384,0.02736692859951409,0.7033752638039097,-0.5978906486648262,-1.0393424923667403,-1.552980061250103,0.9769944321654143
1780770979187660800,0.7082836627960205,-2.4263834953308105,-1.9129321575164795,1.9415717124938965,-0.49064311385154724,0.8709116578102112,0.027973435819149017,0.06441929936408997,0.17030245065689087,0.8804891109466553,-0.37036784508205167,0.03371333156088576,0.7161355523382691,-0.5906276876736936,-1.0570543192061417,-1.627748487480408,0.9140514451990694
1780770979197695744,0.7183187007904053,-1.6217819452285767,-1.7006834745407104,2.173037052154541,-0.4718135893344879,0.8800345063209534,0.054142244160175323,-0.046573251485824585,0.20471280813217163,0.7085530757904053,-0.35739202982617246,0.039444938387782534,0.7249242843620787,-0.5875371340252199,-1.0759348115341227,-1.6850500255792085,0.8693002503563673
1780770979207729920,0.7283527851104736,-1.1928718090057373,-1.4831857681274414,2.3667004108428955,-0.4505750238895416,0.8896728157997131,0.07392319291830063,-0.18251222372055054,0.13506180047988892,0.6582239866256714,-0.3445794807383478,0.04554415037331456,0.7313599163156047,-0.5867737741332046,-1.0966280567385203,-1.7334117338462975,0.8326764304584809
1780770979217764864,0.7383878231048584,-0.7379946112632751,-1.3531193733215332,2.492920398712158,-0.42750000953674316,0.8996197581291199,0.08904097974300385,-0.2800653576850891,0.12249034643173218,0.604623556137085,-0.3319023020547931,0.05199998792276144,0.7360818513372852,-0.5876397763203446,-1.118898015270508,-1.7761434733303219,0.8009027830309897
1780770979227799808,0.7484228610992432,-0.2866399586200714,-1.2353469133377075,2.51019024848938,-0.40348637104034424,0.9095903038978577,0.09921937435865402,-0.32963743805885315,0.14538723230361938,0.5045250654220581,-0.3195157921663312,0.058286207671651165,0.7390618412110224,-0.5901695258376348,-1.1422969221158457,-1.8119173096327423,0.7758295841447874
1780770979237833728,0.7584567070007324,0.22627049684524536,-1.089949607849121,2.5056419372558594,-0.3792073726654053,0.9194324016571045,0.10414248704910278,-0.35866186022758484,0.23814499378204346,0.5039964914321899,-0.307667394769301,0.0641752688611239,0.740238325009283,-0.594364730191922,-1.166634627039573,-1.8388204030530253,0.7593208662892256
1780770979247868672,0.7684917449951172,0.6253055334091187,-0.9056263566017151,2.486292839050293,-0.3549915850162506,0.9290823340415955,0.10386146605014801,-0.3978160619735718,0.3504587411880493,0.5183309316635132,-0.29660401024956917,0.06979542009729887,0.7396345929678256,-0.600079492051303,-1.191923952966192,-1.8554268436400294,0.7522410162273487
1780770979257902848,0.7785258293151855,0.9924308061599731,-0.696724534034729,2.4660444259643555,-0.3309401273727417,0.9384408593177795,0.09903286397457123,-0.4639359712600708,0.39014190435409546,0.4971737861633301,-0.2864225536996953,0.07537549990255318,0.7374516704459751,-0.6069973378382806,-1.2180888636156129,-1.8615622208083766,0.7542757502998332
1780770979267937792,0.7885608673095703,1.1982718706130981,-0.5021931529045105,2.3952059745788574,-0.30736321210861206,0.9472774863243103,0.09051733464002609,-0.5315498113632202,0.37723129987716675,0.44389116764068604,-0.2772166330417148,0.08098652340634332,0.7339617501770435,-0.614729503895781,-1.2446295139329426,-1.8571962691757982,0.7651971065527002
1780770979277971712,0.7985947132110596,1.4125055074691772,-0.407716304063797,2.3364415168762207,-0.28435423970222473,0.9554253220558167,0.07940428704023361,-0.5725182890892029,0.3864783048629761,0.36670172214508057,-0.26871779963137743,0.08646176134731415,0.729538557169599,-0.6229675333840806,-1.2710969949578188,-1.8431040710777489,0.7848686587210871
1780770979288006656,0.8086297512054443,1.4974015951156616,-0.24829897284507751,2.2258753776550293,-0.2621300518512726,0.962742269039154,0.06644374132156372,-0.5992895364761353,0.4483598470687866,0.2719351053237915,-0.26095488581525794,0.09182134989604639,0.7244243983145692,-0.6314115165692255,-1.2969664265432388,-1.8190440495378282,0.8134536855391102
1780770979298040832,0.8186638355255127,1.7018537521362305,-0.0827426165342331,2.115131139755249,-0.24096418917179108,0.9691731929779053,0.05137575790286064,-0.6456325054168701,0.49769991636276245,0.18946897983551025,-0.2542036594768843,0.09712262421523932,0.7185089247395254,-0.6400723011117864,-1.3218524673629584,-1.7808600827006988,0.8546234541886208
1780770979308076032,0.8286988735198975,1.5234850645065308,0.10402007400989532,1.9103964567184448,-0.22127828001976013,0.9745604395866394,0.03560741990804672,-0.7109422087669373,0.4937623143196106,0.07138717174530029,-0.248522950343231,0.1023671094128126,0.7122672845457229,-0.6484077636556487,-1.3447513159985875,-1.730345496494385,0.9064857004288515
1780770979318110720,0.8387336730957031,1.3733315467834473,0.3192576766014099,1.6850945949554443,-0.20367375016212463,0.9788134098052979,0.021002955734729767,-0.7617955803871155,0.4796673059463501,0.024712441489100456,-0.24413607394533754,0.10768370416143493,0.7063325688262732,-0.6556645571017662,-1.3645837077419702,-1.673553704285837,0.9624661655775134
1780770979328144896,0.8487677574157715,1.201055884361267,0.5046560168266296,1.4363508224487305,-0.18838204443454742,0.982066810131073,0.007556659635156393,-0.8004943132400513,0.4736979603767395,0.0060999393463134766,-0.2411532580769152,0.11299878390758475,0.7007207750920332,-0.6618661689053685,-1.3811278887400964,-1.6108883119544042,1.0221344692193406
1780770979338179840,0.8588027954101562,1.0465960502624512,0.7309859991073608,1.193016529083252,-0.17536965012550354,0.9844914674758911,-0.004732714965939522,-0.8126217126846313,0.46707725524902344,-0.040952086448669434,-0.23957764947960863,0.11832004811568718,0.6954379977838008,-0.6670600201575005,-1.3944511833465865,-1.5438157954476708,1.0840296774537581
1780770979348214016,0.8688368797302246,1.2290984392166138,0.8863531947135925,0.9136578440666199,-0.1648622453212738,0.9861698150634766,-0.017017250880599022,-0.7996763586997986,0.49747276306152344,-0.08686459064483643,-0.23953361209543242,0.12338907038532607,0.6901206500870977,-0.6716638089211299,-1.404289817176041,-1.4679395558458304,1.15274973722482
1780770979358248704,0.8788716793060303,1.484845519065857,1.0228970050811768,0.602306067943573,-0.1571049690246582,0.9870703816413879,-0.03178336098790169,-0.7833704948425293,0.5742089152336121,-0.1794135570526123,-0.24111196686534822,0.1276438675607919,0.6839702939309633,-0.6765772411732969,-1.4098145765831895,-1.371183948682195,1.2410571830263566
1780770979368282880,0.8889057636260986,1.8905906677246094,1.1737264394760132,0.281474232673645,-0.1522565484046936,0.9870733022689819,-0.050042591989040375,-0.7552751898765564,0.6631952524185181,-0.28346872329711914,-0.24444502019117653,0.13088051873407852,0.6766453976326036,-0.6821055227888352,-1.409832735754309,-1.2532460654179824,1.3493310881440843
1780770979378317824,0.8989408016204834,2.5013508796691895,1.2738666534423828,-0.018362553790211678,-0.15022532641887665,0.9859102964401245,-0.07357575744390488,-0.7227910161018372,0.724981427192688,-0.32611292600631714,-0.2495923711366379,0.13282288445980753,0.6675104506646612,-0.6888335216166779,-1.4027314273233298,-1.1153666780340252,1.4766030796438492
1780770979388352768,0.9089758396148682,3.1327974796295166,1.3182493448257446,-0.26893511414527893,-0.15054211020469666,0.9831820726394653,-0.10339367389678955,-0.6794444918632507,0.6911801099777222,-0.33792102336883545,-0.25630875033275236,0.1332700896503044,0.6561571819283385,-0.6971389785275669,-1.387137525756566,-0.9689783606638606,1.6120246890370273
1780770979398386688,0.9190096855163574,3.688913583755493,1.314507007598877,-0.5183646082878113,-0.15282364189624786,0.9784281849861145,-0.13900867104530334,-0.6212241649627686,0.626109778881073,-0.32253921031951904,-0.2642685027809147,0.1321685428176272,0.6426718785712813,-0.7068710166349443,-1.362710805599286,-0.8327016111391773,1.7374541391312683
1780770979408421632,0.9290447235107422,4.236400127410889,1.2862486839294434,-0.7441151738166809,-0.15699821710586548,0.9711019396781921,-0.1797569841146469,-0.5582117438316345,0.6103036999702454,-0.2953559160232544,-0.27329843369647205,0.1294443103852389,0.627188711163166,-0.7177649101002938,-1.3298054009773392,-0.7179182543298304,1.8417751351226388
1780770979418455808,0.9390788078308105,4.698758125305176,1.2176512479782104,-0.9234804511070251,-0.1625712662935257,0.9606574177742004,-0.2251841425895691,-0.4954029619693756,0.5871635675430298,-0.2648061513900757,-0.2830936921588058,0.12514783850122424,0.6097097257055248,-0.7296917279340328,-1.289359653740792,-0.6253048906329629,1.9245894169752948
1780770979428490752,0.9491138458251953,4.8425703048706055,1.141017198562622,-1.071231484413147,-0.16929250955581665,0.9469992518424988,-0.2730064392089844,-0.43373483419418335,0.5031808018684387,-0.2536964416503906,-0.2933104669347357,0.11952823359192416,0.5909397399161176,-0.7419381513206315,-1.243762164485855,-0.5550711558932198,1.985794158834793
1780770979438524672,0.9591476917266846,4.696871757507324,1.0382243394851685,-1.1850247383117676,-0.17685091495513916,0.9307935237884521,-0.31991714239120483,-0.38636624813079834,0.3706132173538208,-0.1801285445690155,-0.30356380485694956,0.11310769194313292,0.572056003867941,-0.7535300173620891,-1.196577728280616,-0.5049920755195278,2.0274977375139156
1780770979448559872,0.9691827297210693,4.268507480621338,0.9206454753875732,-1.2894415855407715,-0.18545401096343994,0.9130791425704956,-0.3631710708141327,-0.33908212184906006,0.22339540719985962,-0.12448456883430481,-0.31363488753718993,0.10618224719794804,0.554201944504702,-0.7636875315610046,-1.1507723034699362,-0.47213280520889994,2.0526807940457577
1780770979458594816,0.9792177677154541,3.677143096923828,0.7816337943077087,-1.3892379999160767,-0.1945967823266983,0.8952587842941284,-0.40080395340919495,-0.2843308448791504,0.09544861316680908,-0.10890066623687744,-0.3232474473396712,0.09935032882700076,0.5382634469396512,-0.771954069397833,-1.109011716999469,-0.4519935343873663,2.0655882733853286
1780770979468628992,0.9892518520355225,3.104813575744629,0.5959222912788391,-1.4708417654037476,-0.2045925110578537,0.8782238364219666,-0.4322786331176758,-0.2242404967546463,-0.006199300289154053,-0.08815288543701172,-0.33233095576378363,0.09260342295380126,0.5246763680266232,-0.7782643945992564,-1.072135565547202,-0.44205097935990195,2.0690257581351137
1780770979478663936,0.9992868900299072,2.5829906463623047,0.4190928041934967,-1.5279343128204346,-0.21557119488716125,0.8623308539390564,-0.45816439390182495,-0.17166633903980255,-0.0691789984703064,-0.06481531262397766,-0.3408210872308239,0.08581413610351167,0.5133748572642354,-0.7828940966416894,-1.039855016442836,-0.4397790132500697,2.0658960652778697
1780770979488697856,1.0093207359313965,2.0324714183807373,0.31848710775375366,-1.5839943885803223,-0.2273189127445221,0.8480343818664551,-0.4787105619907379,-0.11664468050003052,-0.06512123346328735,-0.07397803664207458,-0.3488465671338884,0.07924517998703226,0.5043460342973288,-0.7859143446401854,-1.012265090821797,-0.44333141352662586,2.0575446575814618
1780770979498732800,1.0193557739257812,1.731842279434204,0.2527981102466583,-1.6136873960494995,-0.23957477509975433,0.8351455330848694,-0.495111882686615,-0.09283794462680817,-0.01034700870513916,-0.03667214512825012,-0.3566355039588046,0.07300147490211667,0.49710647224586063,-0.7876337944370628,-0.9883973536728548,-0.45066871144214454,2.045475525888347
1780770979508766720,1.0293896198272705,1.565441608428955,0.1796884685754776,-1.613218069076538,-0.25199753046035767,0.8228560090065002,-0.5093183517456055,-0.07089367508888245,0.00032508373260498047,-0.06827253103256226,-0.3641358953191029,0.06683700464935395,0.49078878911107066,-0.7887104455370435,-0.966418829374744,-0.4594581723328768,2.03234700358398
1780770979518801408,1.0394244194030762,1.5015650987625122,0.15388204157352448,-1.6425056457519531,-0.26459112763404846,0.810681164264679,-0.522290825843811,-0.027156919240951538,0.006152331829071045,-0.17236554622650146,-0.3714876184838828,0.060626664249456196,0.4849525606115292,-0.7893937489392787,-0.9453145685889185,-0.46891149882944155,2.0188416391096835
1780770979528836608,1.049459457397461,1.5268672704696655,0.14569228887557983,-1.594165563583374,-0.2769355773925781,0.7982852458953857,-0.5348339676856995,0.008319854736328125,0.04743313789367676,-0.17663753032684326,-0.37875958119365555,0.054470988791421586,0.4791825510372289,-0.7899102857653648,-0.9244427542475033,-0.47778383761370646,2.005876454239847
1780770979538870528,1.0594935417175293,1.7459498643875122,-0.005682187154889107,-1.5164268016815186,-0.2889576256275177,0.7849641442298889,-0.5480279922485352,0.035387128591537476,0.07720315456390381,-0.10658925771713257,-0.3855262379324245,0.04787584053995134,0.47296289280607096,-0.7908119166219439,-0.9026382899956309,-0.48522330122480983,1.9956218240071557
1780770979548905728,1.069528579711914,1.8312687873840332,-0.07430039346218109,-1.4666552543640137,-0.3009127378463745,0.7705532312393188,-0.5618712902069092,0.07637965679168701,0.09413182735443115,-0.09433293342590332,-0.39172777602745973,0.0406449642944066,0.4662749603711491,-0.7921395916975663,-0.8797086879528329,-0.4916850607399909,1.988010339643779
1780770979558939392,1.0795624256134033,1.9280635118484497,-0.12364278733730316,-1.460877537727356,-0.31268033385276794,0.75530606508255,-0.5759720206260681,0.09019193053245544,0.10858553647994995,-0.061051905155181885,-0.39768253632638934,0.0331365575034756,0.4592558869057727,-0.7936212111826902,-0.8561210367218585,-0.49735589697665966,1.9818411012480368
1780770979568974592,1.089597463607788,1.9677975177764893,-0.17117354273796082,-1.4137204885482788,-0.3244195580482483,0.7392563819885254,-0.5901287794113159,0.08795410394668579,0.09362936019897461,-0.008336186408996582,-0.4033686767684275,0.0252881138645784,0.4519912793990361,-0.7952095187112157,-0.8319654827479592,-0.502646370936711,1.9768524980033286
1780770979579008512,1.0996315479278564,2.0037341117858887,-0.14027301967144012,-1.343346118927002,-0.3355206847190857,0.7227817177772522,-0.6041626930236816,0.1024579405784607,0.0849575400352478,0.09116220474243164,-0.40873308540860676,0.017488790288975445,0.4445366170546592,-0.7968806159428766,-0.8078190926016939,-0.5069400840381548,1.9732031871089695
1780770979589043712,1.1096665859222412,1.975293517112732,-0.13021932542324066,-1.325026512145996,-0.3458847403526306,0.7059541344642639,-0.6180554032325745,0.11105194687843323,0.07821029424667358,0.14890867471694946,-0.4139192900803482,0.009887325793773521,0.43689190728373767,-0.7985602366124189,-0.7837693792933677,-0.5102095410193931,1.97046521428666
1780770979599078656,1.119701623916626,1.8474650382995605,-0.12569861114025116,-1.276678442955017,-0.3558751046657562,0.6893967986106873,-0.6309397220611572,0.10943040251731873,0.05144786834716797,0.1837504506111145,-0.41894388719066966,0.002531248143420482,0.42956224690149725,-0.799972430498899,-0.7606560303932284,-0.5135583592647672,1.9675554662880486
1780770979609112576,1.1297354698181152,1.8491758108139038,-0.13397172093391418,-1.2023786306381226,-0.36518463492393494,0.6730942726135254,-0.6431052088737488,0.13091644644737244,0.03077840805053711,0.20147007703781128,-0.42362635090270284,-0.004555183021176235,0.42240577997728196,-0.8013073123215118,-0.7383848422383031,-0.5164411418359629,1.965270158785198
1780770979619147520,1.1397705078125,1.6711323261260986,-0.12903381884098053,-1.1171106100082397,-0.3738279342651367,0.657231330871582,-0.6544461250305176,0.1716795265674591,0.04136180877685547,0.15577363967895508,-0.42796965047349084,-0.011324381190607576,0.4155101651550916,-0.8025366770066356,-0.7171393335768063,-0.518983372637826,1.96344141221088
1780770979629181696,1.1498045921325684,1.3559077978134155,-0.15681138634681702,-1.0349904298782349,-0.3817903399467468,0.643082320690155,-0.6638382077217102,0.21139544248580933,0.09243708848953247,0.12059485912322998,-0.4318928088514277,-0.017413076959034934,0.4096067225888375,-0.8033601959110679,-0.6985164647332003,-0.5219286420234897,1.961127484385105
1780770979639216640,1.1598396301269531,0.9005815386772156,-0.19355036318302155,-0.9804680943489075,-0.389458030462265,0.6316113471984863,-0.6703651547431946,0.2512286901473999,0.039119184017181396,0.11892783641815186,-0.4354959005779206,-0.022656381016680324,0.4053444325800705,-0.8034461843595775,-0.6836298571937782,-0.5263048539680555,1.9570670430562398
1780770979649250560,1.1698734760284424,0.5190688371658325,-0.21390649676322937,-0.9171231985092163,-0.3968498706817627,0.6230910420417786,-0.6739938855171204,0.2682335376739502,-0.07630759477615356,0.14341527223587036,-0.4388193658848318,-0.02697349957769236,0.4028343148583131,-0.8027668241480477,-0.6726885184592867,-0.5321459863459982,1.9510841657503661
1780770979659285504,1.1799085140228271,0.10432088375091553,-0.17896848917007446,-0.9008704423904419,-0.40394365787506104,0.6173185110092163,-0.6750907301902771,0.27909624576568604,-0.1356748342514038,0.1425589919090271,-0.4420300258172716,-0.030341751453205695,0.4019129502625223,-0.8013456908655021,-0.6653296308334935,-0.5392087812008626,1.9430650700840075
1780770979669320704,1.189943552017212,-0.07224056869745255,-0.08294980973005295,-0.809183657169342,-0.41025808453559875,0.6138062477111816,-0.6744850873947144,0.25716668367385864,-0.13635879755020142,0.18370145559310913,-0.44523869913264147,-0.032643437916362594,0.4021092585203638,-0.7993778537312537,-0.6608729328017287,-0.5464663386066821,1.933553244775801
1780770979679354624,1.1999776363372803,-0.0577085018157959,0.05076178163290024,-0.5729857683181763,-0.414706289768219,0.6113619208335876,-0.6739845275878906,0.23005971312522888,-0.0826907753944397,0.2066841721534729,-0.44800621461246104,-0.03399443973121242,0.4023084645903143,-0.7976732360980803,-0.6577804920406285,-0.5515974787354545,1.9255409157559065
1780770979689389568,1.210012435913086,-0.08200904726982117,0.1672540307044983,-0.3500044047832489,-0.4167172610759735,0.6099058985710144,-0.6740633845329285,0.2542569935321808,-0.00950312614440918,0.15645480155944824,-0.4500676776318169,-0.03430674678307405,0.4022329586977307,-0.7965367099661117,-0.6559418679127265,-0.5537065916145021,1.9202024522274008
1780770979699423488,1.2200465202331543,-0.2728804647922516,0.18534089624881744,-0.18478508293628693,-0.41715019941329956,0.6098877191543579,-0.6738120317459106,0.30338069796562195,-0.07666933536529541,0.11146461963653564,-0.4515210929966405,-0.03376845309334378,0.40243468310869834,-0.7956347610256826,-0.655918887836187,-0.5543380421980163,1.9162431803459818
1780770979709458688,1.230081558227539,-0.5722202658653259,0.19433945417404175,-0.05155539512634277,-0.4165623188018799,0.6122700572013855,-0.6720128655433655,0.3461582660675049,-0.258067786693573,0.0933842658996582,-0.4524334573568381,-0.03227745720118182,0.40367281396509064,-0.7945505156469015,-0.658928573824002,-0.5549036554482248,1.9121832087782953
1780770979719492352,1.2401154041290283,-0.7845554351806641,0.17419596016407013,0.029613494873046875,-0.41537103056907654,0.616849422454834,-0.6685534119606018,0.39092645049095154,-0.3852362632751465,0.0775347352027893,-0.45295317555438486,-0.02999826988467039,0.40598446514773356,-0.7931646716629196,-0.6647335626271229,-0.5559329115230353,1.9074813192709699
1780770979729527552,1.250150442123413,-0.8964995741844177,0.18916186690330505,0.14686235785484314,-0.4136364459991455,0.6228607296943665,-0.6640402674674988,0.4143536388874054,-0.40592652559280396,0.069008469581604,-0.45309866883842365,-0.02718748992247887,0.4089507492815812,-0.7916576231021284,-0.6723940645426422,-0.5570940439602239,1.9027052863144418
1780770979739562496,1.2601854801177979,-0.832078218460083,0.21944400668144226,0.3234155476093292,-0.41085442900657654,0.6296077966690063,-0.6593881249427795,0.41659173369407654,-0.33698999881744385,0.07879126071929932,-0.4527027443363668,-0.02393649335448301,0.41198661636289374,-0.7904140312132003,-0.681048253892183,-0.5572205729962555,1.8993018345084822
1780770979749596672,1.2702195644378662,-0.8865004777908325,0.31489595770835876,0.4656906723976135,-0.40654614567756653,0.6368111968040466,-0.655127227306366,0.38683179020881653,-0.29791349172592163,0.08624905347824097,-0.45175280098579135,-0.020138285499534996,0.4147659979235363,-0.7896093688282579,-0.6903553209501841,-0.5554005793874613,1.897964556993652
1780770979759631616,1.280254602432251,-1.2312977313995361,0.4286417067050934,0.502923846244812,-0.40095728635787964,0.6456103324890137,-0.6499389410018921,0.34216517210006714,-0.28911924362182617,0.07626950740814209,-0.45068050505857116,-0.015286889942011276,0.4180871329573176,-0.7885788739264572,-0.7018222551228757,-0.5527644778919927,1.8962593083626313
1780770979769665536,1.2902884483337402,-1.9348218441009521,0.5083618760108948,0.4886748194694519,-0.3946751058101654,0.6577231884002686,-0.6415854096412659,0.2939060628414154,-0.28559184074401855,0.1246938705444336,-0.4498263398920368,-0.008843487474739216,0.42323645292851286,-0.7864153382957975,-0.7177921732186983,-0.5514891594642808,1.890942068426223
1780770979779700480,1.300323486328125,-2.3304295539855957,0.530634880065918,0.6298272013664246,-0.3876563310623169,0.6737732887268066,-0.629088282585144,0.2509070932865143,-0.2517305016517639,0.16985982656478882,-0.4488334052282279,-0.00068986991234201,0.4306453074410199,-0.7830023377011881,-0.7393033468112086,-0.5522601668445377,1.8818862270357615
1780770979789734656,1.3103575706481934,-2.217395544052124,0.5174663662910461,0.7830460071563721,-0.37951958179473877,0.6907982230186462,-0.6154370307922363,0.22832024097442627,-0.17364734411239624,0.18274354934692383,-0.44714240642876396,0.008053705687292743,0.43842516840193113,-0.7796038486470354,-0.7625924152452354,-0.5525844382063324,1.8737203684577481
1780770979799769600,1.3203926086425781,-1.9765684604644775,0.5467510223388672,0.854110062122345,-0.37054911255836487,0.7067062258720398,-0.6027103066444397,0.22575843334197998,-0.0848190188407898,0.0371738076210022,-0.44498320186358886,0.016626384773164745,0.44538568433981923,-0.7767529734106456,-0.7848318631993138,-0.5512342196514782,1.868076020380974
1780770979809804544,1.3304274082183838,-1.7607417106628418,0.5631275773048401,0.9533019065856934,-0.3607220947742462,0.7211698293685913,-0.591433584690094,0.18585637211799622,0.03726828098297119,-0.03396308422088623,-0.44253126331309894,0.02497956174030128,0.4512861825954725,-0.7745210971532247,-0.8054894682427036,-0.5476754328958041,1.8651949345318664
1780770979819838464,1.3404614925384521,-1.723384141921997,0.5309852361679077,0.9906846880912781,-0.35033759474754333,0.7348586320877075,-0.5807291865348816,0.14477118849754333,0.06821143627166748,-0.06004840135574341,-0.4397225164718494,0.033175105013488186,0.4566561254082069,-0.7726633844453139,-0.8254581943432332,-0.5428218126574894,1.8643063610568955
1780770979829873664,1.350496530532837,-1.7807142734527588,0.47164231538772583,0.9370108246803284,-0.3402411937713623,0.7483111619949341,-0.5694440007209778,0.1232917308807373,0.023692011833190918,-0.07513308525085449,-0.43680160214653796,0.04119363506788642,0.4621483513922777,-0.7706662442107469,-0.8455124756543935,-0.5385771922002855,1.8632528146727594
1780770979839907584,1.3605306148529053,-1.5979634523391724,0.3826345205307007,0.867782473564148,-0.33095771074295044,0.7610526084899902,-0.5579122304916382,0.08799195289611816,0.023295044898986816,-0.04792279005050659,-0.43395013088496204,0.04872342635920047,0.46762154294469527,-0.7685333731076265,-0.864934225438162,-0.5354100126792932,1.8616660660488054
1780770979849942528,1.370565414428711,-1.0476664304733276,0.28809258341789246,0.8253695368766785,-0.32260769605636597,0.771310567855835,-0.548638641834259,0.04552334547042847,0.10774827003479004,-0.022436857223510742,-0.43110680288260955,0.05491263828949464,0.4718742341609673,-0.7671155955940623,-0.8808977838718192,-0.5315603410544054,1.8623815430462693
1780770979859976448,1.3805994987487793,-0.23295114934444427,0.28946277499198914,0.7461093068122864,-0.314901739358902,0.7774235606193542,-0.544471800327301,0.0054077208042144775,0.25588637590408325,-0.0301741361618042,-0.4285557456019804,0.05929587295881519,0.47354840793910313,-0.7671870399353367,-0.8905591738988737,-0.5243571406000929,1.8679822561377986
1780770979870011648,1.390634536743164,0.661523699760437,0.28998979926109314,0.6385822892189026,-0.307883083820343,0.7783970236778259,-0.5470886826515198,-0.06180685758590698,0.4276576042175293,-0.06985461711883545,-0.42666387982850656,0.06161480336961709,0.47186786689615534,-0.7690917824455012,-0.8921083173235532,-0.5125917421040642,1.87927423249465
1780770979880046592,1.4006695747375488,1.3665812015533447,0.22407084703445435,0.6142830848693848,-0.30160993337631226,0.7745801210403442,-0.5559290647506714,-0.14652541279792786,0.5028246641159058,-0.1403905153274536,-0.42518697017541895,0.06186970546518372,0.4671269865645627,-0.7727746119885289,-0.8860509841390908,-0.49709244941497754,1.8958994770519113
1780770979890080512,1.410703420639038,1.8946945667266846,0.1297624558210373,0.5349012017250061,-0.29609084129333496,0.7670453190803528,-0.569185197353363,-0.19138169288635254,0.4812151789665222,-0.13183408975601196,-0.42382823453086205,0.060412243682633066,0.46017144519050907,-0.7777932715016963,-0.8742231881998027,-0.4796776585597433,1.9161927611505258
1780770979900115456,1.4207384586334229,2.128736734390259,0.010691726580262184,0.3250110447406769,-0.29234257340431213,0.7565789818763733,-0.5849136114120483,-0.19989070296287537,0.40907037258148193,-0.15083461999893188,-0.4229060706212834,0.05739173673297987,0.45193958456089645,-0.7833307877581098,-0.858065506047871,-0.4634913461292883,1.9364381568098459
1780770979910149632,1.4307725429534912,2.331989049911499,-0.14525020122528076,0.20544123649597168,-0.29081469774246216,0.7440872192382812,-0.6014657020568848,-0.23645278811454773,0.32491302490234375,-0.20132970809936523,-0.42234737920155785,0.052977109797621935,0.44323874615120784,-0.7888950719632101,-0.8391675192376186,-0.450368815137154,1.9548591321932873
1780770979920184576,1.440807580947876,2.4981133937835693,-0.23702658712863922,0.11621922999620438,-0.29080742597579956,0.729761004447937,-0.6187728643417358,-0.26127079129219055,0.3049984574317932,-0.17146450281143188,-0.421882024451858,0.04744034883119006,0.4340080439003404,-0.7946080187076721,-0.8179723247025473,-0.4393399408018832,1.9724782990407461
1780770979930218496,1.4508414268493652,2.5526609420776367,-0.275605171918869,0.05191214010119438,-0.2918034493923187,0.7140400409698486,-0.6363942623138428,-0.2799128293991089,0.28686022758483887,-0.14381814002990723,-0.4215668753727405,0.04124041846517102,0.4243843842079932,-0.8002990562763791,-0.7952519700550815,-0.4299216872457088,1.9890505415444888
1780770979940253440,1.46087646484375,2.3648810386657715,-0.3941565752029419,-0.054445456713438034,-0.2938680946826935,0.6980106234550476,-0.6530105471611023,-0.309815376996994,0.1654232144355774,-0.09524989128112793,-0.4213251628223861,0.03469393997966003,0.4150795697938605,-0.8055994638203435,-0.7726155932706201,-0.42287091766729895,2.0036747390267524
1780770979950287616,1.4709105491638184,2.0006372928619385,-0.545078456401825,-0.18884508311748505,-0.2978208363056183,0.6832279562950134,-0.6667101383209229,-0.2997286021709442,-0.04647868871688843,-0.02570319175720215,-0.42119647179344477,0.027938948000164755,0.40726448130011916,-0.809906579796124,-0.7521741360242102,-0.4201080592613841,2.0144856536451745
1780770979960322560,1.4809455871582031,1.7496705055236816,-0.6354305744171143,-0.24685138463974,-0.3033384680747986,0.669958770275116,-0.6775994896888733,-0.2702699303627014,-0.15418118238449097,0.036974430084228516,-0.4211140382451375,0.021115156989461828,0.4009419069690971,-0.8133036089483069,-0.7341532604624545,-0.4209115432991323,2.0221423392131594
1780770979970357760,1.490980625152588,1.529129147529602,-0.642767071723938,-0.33784282207489014,-0.3096381723880768,0.6578211188316345,-0.6865825057029724,-0.24506458640098572,-0.16110175848007202,0.017316818237304688,-0.4211535264160261,0.014447327077202157,0.39560081917710854,-0.8160398422275928,-0.7179221971290661,-0.42367244514424296,2.027671104905557
1780770979980391424,1.5010144710540771,1.1690881252288818,-0.611460268497467,-0.47182297706604004,-0.3166203796863556,0.6471354961395264,-0.6935179829597473,-0.2483210265636444,-0.14736437797546387,-0.008859336376190186,-0.42164758127996527,0.008206005556487856,0.3913740871675186,-0.8179072392513826,-0.7038210574019212,-0.4282812657411615,2.0302463947583878
1780770979990426624,1.511049509048462,0.7176570296287537,-0.5977582931518555,-0.6126368045806885,-0.3243025243282318,0.6388004422187805,-0.6976831555366516,-0.2535630762577057,-0.1350620985031128,-0.006281018257141113,-0.42271353236970244,0.002677705673177197,0.3887817443548194,-0.8186297786086131,-0.692938102619588,-0.4351160503157726,2.0290019667412404
1780770980000460544,1.5210835933685303,0.3072207272052765,-0.5823778510093689,-0.7807464599609375,-0.3329102098941803,0.6329281330108643,-0.6989797949790955,-0.2349761426448822,-0.15114712715148926,0.015828609466552734,-0.42444038970115266,-0.0021920735843569974,0.3879501073494367,-0.8181321910548492,-0.6853294810331548,-0.4444922925878426,2.0235742038205022
1780770980010495744,1.531118631362915,0.01779717393219471,-0.5591647028923035,-0.8206451535224915,-0.34201693534851074,0.6291179060935974,-0.6980223059654236,-0.21009182929992676,-0.1684855818748474,0.014825284481048584,-0.4266334875231774,-0.006431994296744089,0.3885195948266942,-0.8166976921878599,-0.6804178843955508,-0.4555994778239615,2.015046386940552
1780770980020530432,1.5411534309387207,-0.18078994750976562,-0.5271010398864746,-0.8593400716781616,-0.35111063718795776,0.6267985701560974,-0.6955896615982056,-0.16628435254096985,-0.10049241781234741,0.0027185678482055664,-0.4290035027890064,-0.01011699088938961,0.3900036148363542,-0.8147091328091076,-0.6774376706403913,-0.4674538647320279,2.0048786564339878
1780770980030564608,1.551187515258789,-0.3761693239212036,-0.4941745400428772,-0.895107626914978,-0.3601859211921692,0.6255542635917664,-0.6920607686042786,-0.12087792158126831,-0.07231628894805908,-0.01568770408630371,-0.4316122058144674,-0.013334192892126565,0.39216299915241165,-0.8122447215386711,-0.675841744785687,-0.47987674973359445,1.993200306571706
1780770980040599552,1.5612225532531738,-0.665004551410675,-0.47287148237228394,-0.8917504549026489,-0.3691631257534027,0.6258465647697449,-0.6870477795600891,-0.09827461838722229,-0.10166150331497192,0.004430592060089111,-0.43433554891358267,-0.01595435363363632,0.3952487585817079,-0.809244388086254,-0.6762165122560941,-0.4930544296289676,1.979913291299687
1780770980050633728,1.5712566375732422,-1.0222276449203491,-0.43297359347343445,-0.8943188190460205,-0.3778880834579468,0.628254771232605,-0.6800709366798401,-0.07453498244285583,-0.14644330739974976,0.05259901285171509,-0.4371032483368998,-0.017743808690920522,0.39956188595956554,-0.8055905180869609,-0.6793079838250016,-0.5071781785159125,1.964680039052659
1780770980060668416,1.5812914371490479,-1.3523306846618652,-0.3394797444343567,-0.9336848855018616,-0.3863236904144287,0.6328144073486328,-0.6710438132286072,-0.05505204200744629,-0.1772480010986328,0.08681535720825195,-0.4401192523020563,-0.018541425306181653,0.4051349089012129,-0.8011347081021554,-0.6851825839834428,-0.5223644033476005,1.94678915749344
1780770980070702592,1.5913255214691162,-1.5057538747787476,-0.18742363154888153,-0.9096644520759583,-0.3940318524837494,0.638858437538147,-0.6607562303543091,-0.051494300365448,-0.14685404300689697,0.12091553211212158,-0.4434221273103121,-0.0183047615656465,0.41144480938212824,-0.796087196394447,-0.6930134721831742,-0.5377200483305252,1.9268641254830858
1780770980080737536,1.601360559463501,-1.4268786907196045,-0.03344004973769188,-0.8089107275009155,-0.40033429861068726,0.6450698375701904,-0.6508589386940002,-0.030589193105697632,-0.07605433464050293,0.14765459299087524,-0.44676279697913224,-0.017269522259444108,0.4174593463575859,-0.7910957091912066,-0.7011146722390811,-0.5514384655418446,1.9072392914720593
1780770980090772736,1.6113955974578857,-1.3564386367797852,0.13213053345680237,-0.6913840770721436,-0.40489259362220764,0.6511011123657227,-0.6419730186462402,0.0029760897159576416,-0.052941322326660156,0.14853429794311523,-0.4499555013902734,-0.015510103751565104,0.42281546380093044,-0.786464660631484,-0.7090343136316023,-0.5626879051958757,1.889105130236957
1780770980100806400,1.621429443359375,-1.186751365661621,0.22985577583312988,-0.5449935793876648,-0.4077633321285248,0.6567183136940002,-0.6343895792961121,0.03119167685508728,-0.07230669260025024,0.16901171207427979,-0.4528989217454491,-0.01320870115209288,0.42735318238740105,-0.7823537595004036,-0.7164589007956559,-0.57127219998291,1.8730752957108576
1780770980110841600,1.6314644813537598,-1.095002293586731,0.2770853340625763,-0.43466657400131226,-0.4093675911426544,0.6618861556053162,-0.6279529333114624,0.05873587727546692,-0.14490312337875366,0.1975177526473999,-0.45540333986639603,-0.010691169124371763,0.4311719123286558,-0.7788352458481748,-0.7233322037328117,-0.5777153710153038,1.8594687681497841
1780770980120875520,1.6414985656738281,-1.0559786558151245,0.3674716651439667,-0.38770678639411926,-0.41012799739837646,0.6669484972953796,-0.6220729351043701,0.08818277716636658,-0.20091456174850464,0.20891070365905762,-0.45775352823622806,-0.007880121901674158,0.4346279133687732,-0.7755631816638467,-0.7301058493013085,-0.5828799638862202,1.8468981557765978
1780770980130910720,1.651533603668213,-0.8912659287452698,0.43372607231140137,-0.31343093514442444,-0.40996253490448,0.6716390252113342,-0.6171156764030457,0.10439002513885498,-0.18891197443008423,0.20138996839523315,-0.46003742543599274,-0.0047994877235425564,0.4375147215433414,-0.7726081750801691,-0.7364188315828579,-0.5863765197183156,1.8355864039855334
1780770980140944384,1.6615674495697021,-0.636246383190155,0.4687655568122864,-0.2621360719203949,-0.4091213047504425,0.6751388311386108,-0.6138462424278259,0.12352254986763,-0.16798251867294312,0.2058262825012207,-0.4621486910695129,-0.0019370861854670273,0.43940087453853216,-0.7702866969513427,-0.7411529124238372,-0.5878790700262663,1.8266532795465114
1780770980150979584,1.671602487564087,-0.41725683212280273,0.5557470321655273,-0.18527324497699738,-0.4075400233268738,0.6774677038192749,-0.6123305559158325,0.13466709852218628,-0.1337360143661499,0.19324791431427002,-0.46415540110319725,0.000757016155356176,0.44026600895652984,-0.7685864157419608,-0.7443144258015503,-0.5872330199477872,1.8200564866890045
1780770980161014528,1.6816375255584717,-0.11886107176542282,0.6466895937919617,-0.08080115914344788,-0.4047037959098816,0.678605318069458,-0.6129515767097473,0.1466013789176941,-0.05868649482727051,0.1752837896347046,-0.46599061424472316,0.0034357949986448177,0.439900437362541,-0.7676773854957589,-0.7458621735075431,-0.5835499605921765,1.8165294676343897
1780770980171048704,1.69167160987854,0.08496183156967163,0.7286425232887268,-0.08117400109767914,-0.40101101994514465,0.6783074736595154,-0.615702211856842,0.16411826014518738,-0.014077067375183105,0.12267547845840454,-0.46778739375208006,0.005901820097813272,0.43830818142148764,-0.7674804217119149,-0.7454567483589152,-0.5772933166722952,1.8156517159935952
1780770980181083392,1.7017064094543457,0.14784759283065796,0.7945060729980469,-0.0814799964427948,-0.3968667984008789,0.6772493124008179,-0.6195401549339294,0.1626138985157013,0.035168230533599854,0.08479595184326172,-0.4698187000679964,0.008393271281894656,0.43607279004608374,-0.7674896401219768,-0.7440175944911867,-0.5697265798027764,1.8154600302945423
1780770980191117568,1.711740493774414,0.22461028397083282,0.7602618336677551,-0.021607881411910057,-0.392246276140213,0.6758251786231995,-0.6240217685699463,0.1672249436378479,0.10316646099090576,0.09608298540115356,-0.4717236251993481,0.010864061474087345,0.43344098727337227,-0.767781007385136,-0.7420836877757105,-0.5611680241347968,1.816401055695937
1780770980201152512,1.7217755317687988,-0.491433322429657,0.7303540110588074,-0.06732210516929626,-0.38801828026771545,0.676285982131958,-0.6261622309684753,0.17621102929115295,0.08672976493835449,0.12991589307785034,-0.4734462931263883,0.013782778312142802,0.43212142030395273,-0.7674176024932836,-0.7427090447934017,-0.5547623171826747,1.8151848365766556
1780770980211186688,1.7318096160888672,-1.2648717164993286,0.6817361116409302,-0.0011478796368464828,-0.3837348222732544,0.6816021800041199,-0.6230297088623047,0.1466132402420044,0.04131340980529785,0.18534666299819946,-0.4752078729838226,0.018624697639238467,0.4337490981749955,-0.7653052785239319,-0.7499499725975523,-0.5520413224443893,1.8081881976262784
1780770980221221376,1.7418444156646729,-1.830524206161499,0.32083961367607117,0.1491532027721405,-0.38007113337516785,0.6916372179985046,-0.6141529083251953,0.16219088435173035,-0.037340402603149414,0.1640797257423401,-0.475768414330667,0.0244250679655353,0.43855096377779074,-0.7620503756408941,-0.7637534271881281,-0.5541676571473733,1.7979235454541438
1780770980231256576,1.7518794536590576,-2.1420979499816895,0.10395123809576035,0.16281308233737946,-0.3777441084384918,0.7045302391052246,-0.6007883548736572,0.1971411108970642,-0.09042501449584961,0.03972268104553223,-0.4753392759977718,0.030353807552091255,0.4457403491248393,-0.7579227504535349,-0.7817609574283705,-0.5612895115575156,1.7848291196331176
1780770980241290496,1.761913537979126,-1.9843641519546509,0.017102621495723724,0.17961417138576508,-0.37619614601135254,0.7175602316856384,-0.5861601829528809,0.14714643359184265,-0.08331340551376343,-0.0013031959533691406,-0.47447594126613496,0.03590668654605669,0.45346512215616264,-0.7536263029921665,-0.800293013949772,-0.5705873261673651,1.7709594110414049
1780770980251325696,1.7719485759735107,-1.8262338638305664,0.0014930348843336105,0.1892276555299759,-0.37481722235679626,0.7292989492416382,-0.5723942518234253,0.11958345770835876,-0.0030416250228881836,-0.07576858997344971,-0.47340675409215066,0.04085888144785258,0.4605794531483417,-0.7497221059742573,-0.8172967353842824,-0.5797586556879116,1.7582503693656462
1780770980261359360,1.781982421875,-1.656642198562622,0.05554388463497162,0.15504491329193115,-0.3734046518802643,0.7398891448974609,-0.5595828890800476,0.08838573098182678,0.11983674764633179,-0.04657250642776489,-0.47243300233309876,0.04550419124717842,0.4670523876911296,-0.7460552468638881,-0.8329055402573368,-0.5884347448658394,1.7461142158057925
1780770980271394560,1.7920174598693848,-1.4701952934265137,0.11829248815774918,0.09110855311155319,-0.3719812035560608,0.7489830851554871,-0.5483195781707764,0.0432000458240509,0.19074469804763794,-0.03557324409484863,-0.4717995893875311,0.04980178493638143,0.4726097686848693,-0.7426741722312207,-0.8465259487350418,-0.596083237556788,1.7346618985009714
1780770980281428480,1.8020515441894531,-1.3960353136062622,0.17442727088928223,0.03235708177089691,-0.3707315921783447,0.7570367455482483,-0.5380087494850159,0.011829614639282227,0.1839575171470642,-0.046936869621276855,-0.4715726324630193,0.05390159272439329,0.4775879344642017,-0.7393399673400499,-0.858765769546684,-0.603360094814185,1.7229934923600876
1780770980291463680,1.812086582183838,-1.1717801094055176,0.13138020038604736,0.0614720918238163,-0.3695654273033142,0.7640990614891052,-0.5287476181983948,0.001569211483001709,0.18061834573745728,-0.025283753871917725,-0.47143106102229115,0.05763658562474375,0.48197948178697264,-0.7362924453667476,-0.8696435746497315,-0.6100174786073942,1.7121708868903505
1780770980301498624,1.8221216201782227,-1.0511970520019531,0.08019636571407318,0.07757996022701263,-0.3684616684913635,0.7701672911643982,-0.5206519365310669,0.020240843296051025,0.1518450379371643,-0.032647013664245605,-0.47108452300524045,0.06079694673341294,0.48577541858229517,-0.7337612054206062,-0.8791034239009956,-0.6158703388278033,1.7031959490918411
1780770980311532544,1.832155466079712,-0.9284825325012207,0.0686694085597992,0.10152789950370789,-0.3673960566520691,0.7756766676902771,-0.5131723880767822,0.029032409191131592,0.1196327805519104,-0.05202841758728027,-0.47063521926441104,0.0636486654959302,0.4892470146566205,-0.7314976306247188,-0.8877865472567918,-0.6213381074264854,1.6951477294545176
1780770980321567488,1.8421905040740967,-0.8333117961883545,0.05142650753259659,0.09694273769855499,-0.3662657141685486,0.7804931402206421,-0.5066360235214233,0.022195249795913696,0.05722975730895996,-0.07069557905197144,-0.4701175367067224,0.06617270523504598,0.49224300521816916,-0.7295941369279885,-0.8954542130162194,-0.6259543705023889,1.6884331374542711
1780770980331601664,1.852224588394165,-0.8686964511871338,0.034501317888498306,0.060122136026620865,-0.3654463291168213,0.78508460521698,-0.5000911355018616,0.022321969270706177,-0.013478219509124756,-0.10229533910751343,-0.4696641363551703,0.06853744532318946,0.495234345399576,-0.7276408164948907,-0.9028327128626901,-0.6310730409803386,1.6813188148690403
1780770980341636608,1.8622596263885498,-0.8469381332397461,-0.03483407944440842,0.09092399477958679,-0.36484596133232117,0.7896232604980469,-0.493338018655777,0.014992475509643555,-0.016552090644836426,-0.10605770349502563,-0.46910218118343155,0.07074918288275384,0.4983227347046747,-0.7256804082154985,-0.9101948011735238,-0.6367766716129004,1.674036751677756
1780770980351671552,1.8722944259643555,-0.8526650071144104,-0.07930327951908112,0.09784714877605438,-0.36437106132507324,0.7941673398017883,-0.4863455295562744,0.030524015426635742,-0.01572495698928833,-0.13613677024841309,-0.46829043262945447,0.07277687814385474,0.5015284208566357,-0.7237934158052339,-0.9176362135933053,-0.6429902221482399,1.66695702952273
1780770980361705472,1.8823285102844238,-0.7976675033569336,-0.09919456392526627,0.09761598706245422,-0.36403828859329224,0.7985190749168396,-0.4794198274612427,0.031717121601104736,-0.0146903395652771,-0.14889132976531982,-0.46740922537893037,0.07463129526468344,0.5046981891516976,-0.7219684911833022,-0.9248310835897705,-0.6494462035741596,1.6599832646290136
1780770980371740672,1.8923635482788086,-0.730606734752655,-0.10284948348999023,0.10675888508558273,-0.3637191355228424,0.8025609254837036,-0.47286808490753174,0.021311938762664795,0.007909595966339111,-0.15228453278541565,-0.46649103477676773,0.07631616583734137,0.5076827821837804,-0.7202916227131486,-0.9315756530513304,-0.6556617100754114,1.6535101900544538
1780770980381774592,1.902397632598877,-0.5376790761947632,-0.10432394593954086,0.13295824825763702,-0.36324986815452576,0.8060162663459778,-0.4673192501068115,0.019942402839660645,0.05087155103683472,-0.13262581825256348,-0.4655555442477894,0.0777469714663716,0.5101919046525827,-0.7189698815919777,-0.9373904881925536,-0.660748901031856,1.6484636373578396
1780770980391809536,1.9124324321746826,-0.4021891951560974,-0.08294568210840225,0.1407778263092041,-0.3625466525554657,0.8086819052696228,-0.4632423222064972,0.012845754623413086,0.06637907028198242,-0.06709209084510803,-0.4646216829622188,0.078842822338126,0.5120182142281284,-0.7181558485827693,-0.9419079567097701,-0.6640584747222025,1.645542179066193
1780770980401843456,1.922466516494751,-0.2736075222492218,-0.04170210659503937,0.15326538681983948,-0.36165958642959595,0.8108006119728088,-0.4602223336696625,0.0037799477577209473,0.06900578737258911,-0.007413744926452637,-0.4638025702688719,0.07979079969987574,0.5133442006764227,-0.7176337821877897,-0.9455186777675342,-0.6660448991571483,1.6438632198477532
1780770980411878656,1.9325015544891357,-0.20288459956645966,-0.006933207157999277,0.16762755811214447,-0.36044806241989136,0.8124353885650635,-0.45828574895858765,0.006810396909713745,0.07294052839279175,-0.011700183153152466,-0.4630583405405136,0.08064623225423252,0.5141529985227369,-0.7174397107694052,-0.9483169956139895,-0.666463349880764,1.6436624892215337
1780770980421913600,1.9425365924835205,-0.22949384152889252,0.026924891397356987,0.16146180033683777,-0.35904887318611145,0.8140286803245544,-0.45655354857444763,0.021493971347808838,0.05088520050048828,-0.019139200448989868,-0.46241476428263184,0.0816246372371456,0.514840404518469,-0.717251233466558,-0.9510549612186943,-0.666413575580826,1.6435568582166158
1780770980431947520,1.9525704383850098,-0.25969356298446655,0.01991438679397106,0.2066897302865982,-0.3574329912662506,0.8157916069030762,-0.45467087626457214,0.03260388970375061,0.04784053564071655,-0.02994823455810547,-0.4617273104574066,0.08275431867391973,0.5155737381580887,-0.7170378574489175,-0.9540966682231294,-0.6662297111737125,1.6434519754385393
1780770980441982464,1.9626054763793945,-0.3792881369590759,-0.006927880924195051,0.2331322580575943,-0.3556029796600342,0.818018913269043,-0.45209676027297974,0.05552366375923157,0.025792062282562256,-0.056921154260635376,-0.4608089852097382,0.08407070497648658,0.5166079146819832,-0.7167310125533537,-0.957958289768191,-0.6664943144744524,1.643083005398137
1780770980452016640,1.972639560699463,-0.44730207324028015,0.005889913532882929,0.22269320487976074,-0.35370224714279175,0.8207379579544067,-0.4486466944217682,0.06363269686698914,-0.004408061504364014,-0.07074716687202454,-0.4597950049135278,0.08563664722954763,0.5180183591528333,-0.7161786072720503,-0.9627014962848655,-0.667612779968206,1.6417301795632495
1780770980462051584,1.9826745986938477,-0.47556328773498535,0.030285267159342766,0.21031269431114197,-0.35185888409614563,0.8235690593719482,-0.44489234685897827,0.05382421612739563,-0.017752528190612793,-0.056709855794906616,-0.4588636535659411,0.08731668782905816,0.5195475204965461,-0.7154650449383063,-0.9676748684559479,-0.6691585170075789,1.63965853272558
1780770980472085504,1.992708444595337,-0.445144921541214,0.12384078651666641,0.2135513722896576,-0.34977859258651733,0.8263721466064453,-0.4413207471370697,0.02656695246696472,0.008558213710784912,0.022421211004257202,-0.4580954527664342,0.08920111834009126,0.5209441289452879,-0.7147089875615579,-0.9726345438632602,-0.6701954036490742,1.6374945479400589
1780770980482120448,2.0027434825897217,-0.3886829614639282,0.2405691295862198,0.22212328016757965,-0.3471643030643463,0.8289687037467957,-0.4385063946247101,-0.0059088170528411865,0.057566940784454346,0.051940202713012695,-0.45760535690224025,0.09138086024052741,0.5219160289149029,-0.7140381873408138,-0.9772612152526259,-0.6696577280168162,1.6359278557528794
1780770980492155648,2.0127785205841064,-0.39856410026550293,0.3063116669654846,0.2315724492073059,-0.3440479338169098,0.8314663171768188,-0.4362279772758484,-0.01853141188621521,0.05392491817474365,0.06136530637741089,-0.45733694510160505,0.09386548916989432,0.522566050746226,-0.7134122300574401,-0.9817418059414593,-0.6678054597511275,1.6348016078553766
1780770980502190848,2.0228137969970703,-0.43741828203201294,0.33033204078674316,0.23384065926074982,-0.34070953726768494,0.8340865969657898,-0.4338392913341522,-0.016452938318252563,0.019444286823272705,0.06331014633178711,-0.4571454327152961,0.0965771097128414,0.5232143109707154,-0.7126974422532626,-0.9864748455464384,-0.665735204352136,1.6334323986997197
1780770980512225792,2.032848834991455,-0.45207154750823975,0.315255343914032,0.23800131678581238,-0.3373202383518219,0.836831271648407,-0.4311942458152771,0.0019778311252593994,-0.012170016765594482,-0.0010567307472229004,-0.4569430027253453,0.09938988730284133,0.5239508771003241,-0.71189902157981,-0.9914692903518882,-0.6638503466708302,1.6317647137381075
1780770980522259968,2.0428829193115234,-0.4159952998161316,0.25012561678886414,0.23560208082199097,-0.3340924084186554,0.8395175933837891,-0.42847707867622375,0.030488312244415283,-0.03498268127441406,-0.05856823921203613,-0.4566104534882589,0.10202475498193371,0.5247403326167066,-0.7111579023975718,-0.9963947725917943,-0.6622525957130737,1.6302963252814924
1780770980532294656,2.052917718887329,-0.37123313546180725,0.2262684851884842,0.21578070521354675,-0.33116021752357483,0.8419632911682129,-0.4259469211101532,0.04073968529701233,-0.03907632827758789,-0.08769446611404419,-0.4562143660544514,0.1043650425419245,0.5254849907321784,-0.7105222927028304,-1.000911765977232,-0.6608503022422086,1.6291537199766544
1780770980542329856,2.062952756881714,-0.2886509299278259,0.21090124547481537,0.20309951901435852,-0.3284602761268616,0.8440760374069214,-0.42385077476501465,0.020324349403381348,-0.022130906581878662,-0.11307552456855774,-0.45587500956772514,0.10646171730256754,0.5260613256611645,-0.7100023593812612,-1.0048397310614035,-0.6592745984888811,1.6284065983978668
1780770980552363776,2.0729868412017822,-0.21013425290584564,0.21965532004833221,0.19504745304584503,-0.3258545994758606,0.8457702994346619,-0.42248252034187317,-0.005352675914764404,-0.010733067989349365,-0.10806554555892944,-0.45558989388658055,0.10830657935852994,0.5263349012498192,-0.7097035914811317,-1.0080072631411738,-0.6569851618096347,1.62859095416014
1780770980562398976,2.083021879196167,-0.20352615416049957,0.26662468910217285,0.15888573229312897,-0.32331374287605286,0.847210168838501,-0.42154842615127563,-0.031681954860687256,-0.017605125904083252,-0.07369080185890198,-0.45547950492846845,0.11010071324289715,0.5264063270200062,-0.7094452216769319,-1.0107116775171958,-0.6542718603795733,1.6289352985692633
1780770980572432640,2.0930557250976562,-0.22772203385829926,0.3381215035915375,0.13167141377925873,-0.3208010494709015,0.8485819101333618,-0.4207080900669098,-0.06030246615409851,-0.011988341808319092,-0.021537333726882935,-0.4556462034340142,0.11205099184806548,0.5263938872354911,-0.709041972235123,-1.0132991819345878,-0.6514699301623689,1.6286512709793195
1780770980582467840,2.103090763092041,-0.23339617252349854,0.3679824769496918,0.11961076408624649,-0.31822699308395386,0.8499494791030884,-0.4199015498161316,-0.06962087750434875,0.0005448460578918457,0.01221725344657898,-0.4560122858047029,0.11417453795794855,0.5263206199567908,-0.7085220425490335,-1.0158894466045778,-0.6485131466580737,1.6279172992139066
1780770980592501760,2.1131248474121094,-0.24091294407844543,0.3636487126350403,0.11278428137302399,-0.31569597125053406,0.8513238430023193,-0.41902703046798706,-0.06356123089790344,-0.019338369369506836,0.048681020736694336,-0.45642350988969665,0.1163246038191146,0.526265206994872,-0.7079484704336654,-1.0185035260170439,-0.6456750906971823,1.6269497995486888
1780770980602536960,2.123159885406494,-0.23128987848758698,0.36970609426498413,0.1039724200963974,-0.3132104277610779,0.852671205997467,-0.41815185546875,-0.05118468403816223,-0.042429566383361816,0.03808596730232239,-0.45686518755573563,0.1184675979526807,0.526202901202001,-0.7073543132142971,-1.02107706416055,-0.6428833078070612,1.625890728783184
1780770980612571904,2.133194923400879,-0.2316073179244995,0.3543343245983124,0.08884353190660477,-0.3108466863632202,0.8539475202560425,-0.41731056571006775,-0.029973596334457397,-0.04500281810760498,-0.011675059795379639,-0.457342160728479,0.12054924860891997,0.5261298300658628,-0.706748574107257,-1.0235248711075458,-0.6402168590824399,1.624730093523987
1780770980622605824,2.143228769302368,-0.19309374690055847,0.3124760687351227,0.09000733494758606,-0.30867519974708557,0.8551275134086609,-0.4165051579475403,-0.008875429630279541,-0.03127497434616089,-0.04614132642745972,-0.45778389301905625,0.12247336443076412,0.5260681479494057,-0.7061773784669817,-1.0257967657607672,-0.6377857523462156,1.6236208402871064
1780770980632640768,2.153263807296753,-0.19876176118850708,0.2751455008983612,0.07797437161207199,-0.3067149519920349,0.8561820983886719,-0.4157862067222595,0.012632310390472412,-0.019283294677734375,-0.060928940773010254,-0.4581348341151553,0.12417101574798316,0.5260118456626854,-0.7056951154034746,-1.0278344533808799,-0.6355661141013443,1.6227829963172005
1780770980642674944,2.1632978916168213,-0.22188705205917358,0.25114455819129944,0.05559476092457771,-0.3050515949726105,0.8572689890861511,-0.41476935148239136,0.017377644777297974,-0.019485056400299072,-0.05590325593948364,-0.4584666431825239,0.12576708508918946,0.5261159172437975,-0.7051192687491821,-1.0299416894009126,-0.6341387213592358,1.6213570860534332
1780770980652709888,2.173332929611206,-0.21969659626483917,0.2362995445728302,0.05637639760971069,-0.30356651544570923,0.8583594560623169,-0.41360196471214294,0.011879503726959229,-0.007712364196777344,-0.022265374660491943,-0.45877373405380517,0.12728370668766764,0.5263058743568829,-0.7045053390135478,-1.0320633981798262,-0.6331550008717584,1.6196567664984336
1780770980662744832,2.1833677291870117,-0.18824760615825653,0.2485002875328064,0.04992755502462387,-0.3020879924297333,0.859351396560669,-0.4126233756542206,0.007272928953170776,0.004021406173706055,0.010218560695648193,-0.459082754229644,0.12873679018910167,0.5264172722478235,-0.7039564704397641,-1.0339999406070215,-0.63195644877966,1.6182455549525707
1780770980672778752,2.19340181350708,-0.24817511439323425,0.27766430377960205,0.03649723157286644,-0.30063822865486145,0.8603743314743042,-0.4115491211414337,-0.0004481971263885498,0.0128861665725708,0.033360064029693604,-0.4594869304900806,0.1302743083261713,0.5265491865574299,-0.7033109899206579,-1.036003710283615,-0.6309063987053309,1.6164020680584161
1780770980682813952,2.203436851501465,-0.2801154851913452,0.2831357419490814,0.05646215379238129,-0.299088716506958,0.8615991473197937,-0.4101134240627289,-0.004484891891479492,0.026874423027038574,0.052401602268218994,-0.45990093239501545,0.13199754259202012,0.5268016084441439,-0.7025296843741431,-1.0384117218387656,-0.630109803605736,1.6140388562247647
1780770980692847616,2.213470697402954,-0.3306148648262024,0.2866058647632599,0.08182370662689209,-0.297320693731308,0.8630406260490417,-0.40836408734321594,0.005633682012557983,0.013531029224395752,0.06272202730178833,-0.4602028682146114,0.1338724977526654,0.5271585182095511,-0.7017088549380234,-1.0412584859987308,-0.6293224105147835,1.611656872899209
1780770980702882816,2.223505735397339,-0.4345490038394928,0.3051643669605255,0.09378395974636078,-0.29535332322120667,0.864851713180542,-0.40595337748527527,0.011616110801696777,-0.02430593967437744,0.047600626945495605,-0.46041348725462455,0.13601585616301015,0.5277527856059299,-0.7007112535091451,-1.0448548966676305,-0.6289807476838996,1.6086382229989653
1780770980712916736,2.2335398197174072,-0.495991051197052,0.31815311312675476,0.12362015247344971,-0.29313966631889343,0.867093026638031,-0.40276414155960083,0.013842791318893433,-0.045834481716156006,0.00209885835647583,-0.4605468161998049,0.13850526371607688,0.5286153880539511,-0.6994846412695425,-1.049336721488174,-0.6291539309436448,1.6047787062897558
1780770980722951936,2.243574857711792,-0.5487170815467834,0.272222638130188,0.12672778964042664,-0.29082974791526794,0.8695215582847595,-0.3991870880126953,0.030148595571517944,-0.05511420965194702,-0.04278373718261719,-0.46051974871492973,0.1410589613319462,0.5296308421219297,-0.6982228210970376,-1.0542327775124611,-0.6296344653999124,1.6008183033461285
1780770980732986880,2.2536098957061768,-0.5801807641983032,0.24291537702083588,0.1288631111383438,-0.2886994481086731,0.8721910715103149,-0.39488643407821655,0.04637464880943298,-0.06097286939620972,-0.05024293065071106,-0.4603511570824515,0.14363214799245108,0.5309675972957624,-0.6967926104567743,-1.059663745146724,-0.6312916508946317,1.5959444122265716
1780770980743020800,2.263643741607666,-0.543958306312561,0.2087644636631012,0.13488797843456268,-0.2866579592227936,0.8747753500938416,-0.3906347155570984,0.03896200656890869,-0.021427452564239502,-0.025106310844421387,-0.46007705923442094,0.14605460584746863,0.5323069537967012,-0.6954470528251714,-1.0649719790241574,-0.6330691900451981,1.591347837181416
1780770980753055744,2.273678779602051,-0.4570721387863159,0.2224419265985489,0.1539333164691925,-0.2845911681652069,0.8771809935569763,-0.38673171401023865,0.02841132879257202,0.01780802011489868,-0.01979297399520874,-0.4597610853345375,0.1483457293376894,0.5335050975055439,-0.6942518814513318,-1.0699594249005877,-0.6344079773120033,1.5874254274478932
1780770980763089920,2.283712863922119,-0.37255141139030457,0.2261943221092224,0.13653407990932465,-0.28238537907600403,0.8791465163230896,-0.3838750720024109,0.012579470872879028,0.0391121506690979,-0.01938420534133911,-0.45953774720374824,0.1504494641868465,0.5342540811819153,-0.693370559713995,-1.0740682775088322,-0.6342328489232154,1.5850566404114637
1780770980773124864,2.293747901916504,-0.37869957089424133,0.25878235697746277,0.11607888340950012,-0.2803610861301422,0.8809659481048584,-0.3811781406402588,-0.009723752737045288,0.009948968887329102,-0.01687788963317871,-0.4594652582306048,0.15250635133853752,0.5349324698471739,-0.6924455337767801,-1.0778997170279794,-0.6341641225109225,1.5823735977505091
1780770980783159808,2.3037827014923096,-0.3362962007522583,0.2332742065191269,0.12946312129497528,-0.27833306789398193,0.8826525211334229,-0.3787548840045929,-0.027361512184143066,0.0062940120697021484,-0.011793851852416992,-0.4594425190367115,0.15451410075973873,0.5354885150634259,-0.6915851506551869,-1.0814759563769516,-0.6337430366364435,1.5800071276283625
1780770980793193728,2.313816785812378,-0.37031620740890503,0.23189762234687805,0.11028917133808136,-0.2763402462005615,0.8843557238578796,-0.37623274326324463,-0.024791955947875977,0.005246937274932861,-0.02124345302581787,-0.45933210066594543,0.1564647776260035,0.5360992453948451,-0.6907463032339813,-1.085112065780798,-0.6335024228417436,1.5777014144912795
1780770980803228928,2.3238518238067627,-0.3231857120990753,0.23981983959674835,0.06615126878023148,-0.2746889293193817,0.8859003782272339,-0.37380000948905945,-0.0344998836517334,-0.008260667324066162,-0.041803568601608276,-0.4594020370629493,0.1583191974507537,0.536688948281219,-0.689818627244586,-1.0884314459738686,-0.6337378551330298,1.574740097284606
1780770980813262848,2.333885908126831,-0.30136430263519287,0.23231959342956543,0.08891357481479645,-0.273136168718338,0.8872946500778198,-0.37162455916404724,-0.04612347483634949,0.0016671419143676758,-0.07142961025238037,-0.45952626155562726,0.16007212781336147,0.5371821249816068,-0.6889469545404767,-1.0914458480063254,-0.6338180357957728,1.5719714810987424
1780770980823297792,2.3439207077026367,-0.18514475226402283,0.23668505251407623,0.10924600809812546,-0.27135181427001953,0.8884815573692322,-0.37009286880493164,-0.04868602752685547,0.04239612817764282,-0.05625295639038086,-0.45960551140118355,0.16171841251794225,0.5374018211218254,-0.688338038294616,-1.0940257560283833,-0.6326616177167026,1.5706311532617925
1780770980833331712,2.353954792022705,-0.11362289637327194,0.2506394684314728,0.1112268716096878,-0.2694607377052307,0.8893296718597412,-0.36943697929382324,-0.049371689558029175,0.03875565528869629,-0.06606411933898926,-0.45975848825074683,0.16319738132967648,0.5372598246451309,-0.6879975731508525,-1.0958771311711328,-0.6301745403492418,1.5706828084997917
1780770980843366912,2.36398983001709,-0.03612890839576721,0.2234002649784088,0.09943092614412308,-0.26760542392730713,0.8898933529853821,-0.36942821741104126,-0.04735124111175537,0.01330488920211792,-0.06119006872177124,-0.45998196533707525,0.164494811920313,0.5368680875912046,-0.6878449783998523,-1.0971112771659066,-0.6268999001842747,1.5716260964902171
1780770980853401856,2.3740248680114746,0.012861804105341434,0.17199885845184326,0.09892306476831436,-0.26599451899528503,0.890191912651062,-0.3698718845844269,-0.029949694871902466,0.009298384189605713,-0.01503106951713562,-0.46016111185639536,0.16545907158991763,0.5363649434277403,-0.6878863444029188,-1.0977662147325715,-0.6234650567101762,1.5732736999529409
1780770980863435776,2.384058713912964,0.05064646527171135,0.1732550710439682,0.09724580496549606,-0.26447659730911255,0.8903404474258423,-0.370602011680603,-0.009784847497940063,0.031381845474243164,0.052364736795425415,-0.4603058887471472,0.16624417734226063,0.5357815451627713,-0.6880547914409834,-1.098092415659089,-0.6198220925678408,1.5754373882221544
1780770980873470720,2.3940937519073486,0.08140438050031662,0.17727698385715485,0.10474739968776703,-0.2629256546497345,0.8903710842132568,-0.3716309666633606,-0.002256840467453003,0.06739258766174316,0.0673249363899231,-0.46049769562554893,0.1669851322109404,0.5350705430462179,-0.6883003891159533,-1.0981596224075212,-0.6157359556517342,1.5780078629819023
1780770980883504896,2.404127836227417,0.0644160807132721,0.14079460501670837,0.14443407952785492,-0.26120278239250183,0.8904002904891968,-0.372774213552475,0.007861077785491943,0.07006430625915527,0.051530927419662476,-0.4605708208072382,0.1676974117188708,0.534313077748537,-0.6886666838255135,-1.0982238497717858,-0.6111954007862904,1.5812725065277549
1780770980893539840,2.4141628742218018,-0.004918524529784918,0.07342967391014099,0.17417173087596893,-0.25937241315841675,0.8907003402709961,-0.37333473563194275,0.035251349210739136,0.04373258352279663,0.02096351981163025,-0.46032858572031654,0.16842140524694818,0.5338228702704314,-0.689031904453666,-1.0988834732319066,-0.6071903359993467,1.584570619915134
1780770980903575040,2.4241979122161865,-0.07072736322879791,0.01806735061109066,0.20947912335395813,-0.25748521089553833,0.8913426399230957,-0.3731081783771515,0.06322559714317322,0.029540538787841797,0.005081474781036377,-0.45975839049321404,0.1691853992430588,0.5336873707236021,-0.6893303761497287,-1.100298338790827,-0.6040566524985258,1.5875622235480735
1780770980913608704,2.434231758117676,-0.06361912190914154,-0.027524100616574287,0.24795088171958923,-0.2554369568824768,0.892198920249939,-0.37246882915496826,0.0752154290676117,0.04322582483291626,0.014985889196395874,-0.4588775528500065,0.16994116274020526,0.5337467464875795,-0.6896852769753283,-1.1021907030575522,-0.6011281212000951,1.5909276739394085
1780770980923643904,2.4442667961120605,-0.06505829095840454,-0.023710856214165688,0.26725053787231445,-0.2532244026660919,0.8931058645248413,-0.3718053698539734,0.0797777771949768,0.058355867862701416,0.020319193601608276,-0.4578508197025063,0.17068912827536561,0.5338188209146361,-0.690126999703002,-1.1042028440351443,-0.5979060024372763,1.5948515404297954
1780770980933677824,2.454300880432129,-0.03792707622051239,-0.030682479962706566,0.2836873233318329,-0.25084802508354187,0.8939911127090454,-0.37128862738609314,0.06855127215385437,0.06735837459564209,0.027782738208770752,-0.4567840580027619,0.17145445325036576,0.5338155667487757,-0.6906465680989297,-1.1061745379538441,-0.594171785521094,1.599318506728657
1780770980943713024,2.4643359184265137,-0.020512931048870087,-0.035849008709192276,0.2916078269481659,-0.2483634352684021,0.8948235511779785,-0.3709535300731659,0.05640788376331329,0.06391668319702148,0.040356576442718506,-0.45566408875698233,0.17218237399185532,0.5337382018846982,-0.6912648164704839,-1.108035744394399,-0.5899802740298574,1.604375568139686
1780770980953747712,2.4743707180023193,-0.04117080569267273,-0.007569170091301203,0.27647972106933594,-0.24587763845920563,0.8956347107887268,-0.3706517219543457,0.05303707718849182,0.05750554800033569,0.0370488166809082,-0.45459302248705147,0.17293687595470145,0.5336356252831632,-0.6918605961300177,-1.10985616365781,-0.585713855711226,1.609377983160604
1780770980963781888,2.4844048023223877,-0.07941965013742447,-0.010927416384220123,0.26605504751205444,-0.24345754086971283,0.896514892578125,-0.37012073397636414,0.04605460166931152,0.043029725551605225,0.03233698010444641,-0.45359004993663016,0.173778911204292,0.5336108312266513,-0.6923267783955649,-1.111839005111994,-0.5818241280531377,1.6137675184805738
1780770980973816832,2.4944398403167725,-0.12647505104541779,-0.016473982483148575,0.2647556960582733,-0.2411106675863266,0.8975452780723572,-0.3691587448120117,0.038260310888290405,0.010657846927642822,0.044711172580718994,-0.4525324559410851,0.1746750442835496,0.5337689117631274,-0.6926714786080597,-1.1141702835410374,-0.5785762478940635,1.6175569579668787
1780770980983851008,2.504473924636841,-0.1614876240491867,-0.008138020522892475,0.25015518069267273,-0.23879890143871307,0.8987179398536682,-0.36780568957328796,0.030669033527374268,-0.03618443012237549,0.03826168179512024,-0.45146721567777776,0.17567055148203153,0.5340758498867558,-0.6928781448475131,-1.1168371808807247,-0.5758498252791151,1.620712578789932
1780770980993885696,2.5145087242126465,-0.16718119382858276,-0.00840992946177721,0.2290285974740982,-0.2366609126329422,0.8998987078666687,-0.3662974238395691,0.0206422358751297,-0.07697701454162598,0.0069529712200164795,-0.45046333914270886,0.17665874697990103,0.5344557685796751,-0.692987317674498,-1.1195372117403761,-0.5736212536807541,1.6232843885707433
1780770981003919872,2.524542808532715,-0.16297872364521027,-0.0028030434623360634,0.20341217517852783,-0.23472023010253906,0.9010259509086609,-0.36477187275886536,0.008310332894325256,-0.09479737281799316,-0.03387919068336487,-0.44954577159619485,0.1776001055059757,0.5348572446928385,-0.6930327758941628,-1.1221289664220822,-0.5717719514672599,1.62539783196771
1780770981013954816,2.5345778465270996,-0.10662331432104111,-0.006836933083832264,0.17881202697753906,-0.23299144208431244,0.9019862413406372,-0.36350467801094055,-0.00039170682430267334,-0.07662320137023926,-0.05161067843437195,-0.4487417460009859,0.17841766309473447,0.5351773469656586,-0.6930967076157639,-1.1243478758645393,-0.5699929218969062,1.6274125513205917
1780770981023990016,2.5446128845214844,-0.052817076444625854,-0.0038270289078354836,0.13686510920524597,-0.23156173527240753,0.9026561975479126,-0.3627549111843109,-0.005819275975227356,-0.05609846115112305,-0.06797018647193909,-0.4481115407792499,0.17902272880589548,0.5353255106375245,-0.6932341750464176,-1.1259020719286053,-0.5681361439096135,1.6294910483169773
1780770981034023680,2.5546467304229736,0.07862990349531174,-0.02213785983622074,0.11188120394945145,-0.23047471046447754,0.9029027819633484,-0.3628331422805786,-0.009271383285522461,-0.046777963638305664,-0.0845087468624115,-0.44765167457957605,0.17928686816498324,0.5352005625984614,-0.6935592926128886,-1.1264754257325424,-0.5659066140507115,1.632104642559107
1780770981044058880,2.5646817684173584,0.16582925617694855,-0.02841319888830185,0.07396391779184341,-0.22970961034297943,0.9026613831520081,-0.3639175295829773,-0.013652816414833069,-0.04118067026138306,-0.0681503415107727,-0.44737383566829153,0.1791742458186426,0.5347315446932067,-0.6941293009149114,-1.1259142167868876,-0.5630548970710044,1.6355276798857412
1780770981054092800,2.5747158527374268,0.18091446161270142,-0.014528541825711727,0.03576939180493355,-0.229283407330513,0.9021334648132324,-0.3654921054840088,-0.020716562867164612,-0.031085491180419922,-0.02310347557067871,-0.447278229140519,0.1788426280943321,0.5341060450176903,-0.6947577371526867,-1.1246889719078474,-0.5602716086238416,1.6388648714673906
1780770981064128000,2.5847508907318115,0.13030800223350525,-0.01478793378919363,0.01989215798676014,-0.2290801852941513,0.9016239047050476,-0.3668741285800934,-0.0353240966796875,-0.025387942790985107,0.008567273616790771,-0.4472943106798822,0.17852740166468142,0.5335643327036848,-0.6952445063859236,-1.1235095019815442,-0.558175538956315,1.6413112454880385
1780770981074162944,2.5947859287261963,0.09260377287864685,-0.022206168621778488,0.002206371631473303,-0.22904497385025024,0.901226818561554,-0.36787039041519165,-0.04936690628528595,-0.037808239459991455,0.03094106912612915,-0.44730050583398107,0.1782302238863565,0.5331967676817179,-0.695598633553427,-1.122592273358561,-0.5568889741479847,1.64296489748083
1780770981084196864,2.6048197746276855,0.0388750284910202,-0.03845091909170151,-0.02012077160179615,-0.22923769056797028,0.900963544845581,-0.3683951199054718,-0.057780131697654724,-0.056389451026916504,0.025209695100784302,-0.44731439487928637,0.17795684565902395,0.5330420222877142,-0.6957783649999963,-1.1219850760151524,-0.556626827863039,1.6435793920795907
1780770981094231808,2.6148548126220703,0.02490648254752159,-0.047101929783821106,-0.032793156802654266,-0.2296288162469864,0.9008106589317322,-0.3685251772403717,-0.0672309398651123,-0.05635875463485718,-0.002904236316680908,-0.44730424809244196,0.17767554037044953,0.5330748665813421,-0.6958315321543381,-1.1216328598860157,-0.557233379783838,1.6434058363430455
1780770981104265984,2.6248888969421387,0.11371811479330063,-0.0453847236931324,-0.0419059619307518,-0.23014074563980103,0.9004853963851929,-0.3690004050731659,-0.07244102656841278,-0.04039323329925537,-0.03688335418701172,-0.44737129838591544,0.17727003844397654,0.5329869845650163,-0.6959591697017866,-1.1208844122737147,-0.557654537240775,1.6434485408302055
1780770981114300672,2.6349236965179443,0.2225436568260193,-0.028321586549282074,-0.05893208459019661,-0.2307354360818863,0.8997374176979065,-0.370450884103775,-0.07076294720172882,-0.019137442111968994,-0.06515705585479736,-0.4475926615361272,0.17661780107029781,0.5325229665594452,-0.6963378053591567,-1.1191674686419484,-0.5570519604236819,1.6445525152204614
1780770981124334848,2.6449577808380127,0.33746811747550964,0.0036703019868582487,-0.05418686196208,-0.23127585649490356,0.8985723257064819,-0.3729335069656372,-0.06425639986991882,0.022219419479370117,-0.05295458436012268,-0.4479998426536901,0.1758049915326376,0.5316256665787693,-0.6969670357619578,-1.1165052490097194,-0.5551062883937905,1.6468471228337394
1780770981134369792,2.6549928188323975,0.45594361424446106,0.031770914793014526,-0.033440571278333664,-0.23159627616405487,0.8969712853431702,-0.37657126784324646,-0.05470439791679382,0.07010036706924438,-0.030121266841888428,-0.4835894957987569,0.20169240655755946,0.5206097714708146,-0.6741120421509098,-1.1128702651358422,-0.5513854784819437,1.548658139214956
1780770981144404992,2.6650278568267822,0.5299784541130066,0.03625953570008278,-0.013523322530090809,-0.23165784776210785,0.8950345516204834,-0.3811139464378357,-0.03997908532619476,0.0762636661529541,-0.05817133188247681,-0.5140834977320257,0.22364095070929713,0.5093405132030219,-0.6528975356890118,-1.1085087223030807,-0.5461672625983477,1.4642734720219128
1780770981154438656,2.6750617027282715,0.5414729118347168,0.0076036578975617886,0.008715404197573662,-0.23159803450107574,0.8929507732391357,-0.3860069215297699,-0.02546679973602295,0.04396939277648926,-0.08880078792572021,-0.5401025701165402,0.24211496258446716,0.4983742341432026,-0.6334767043493276,-1.1038581438165862,-0.540407825558569,1.3917349639462777
1780770981164473856,2.6850967407226562,0.6074700355529785,-0.05272945761680603,0.055012062191963196,-0.231389120221138,0.8908069133758545,-0.39105281233787537,-0.011195123195648193,0.02252328395843506,-0.1111292839050293,-0.5625422797277594,0.2578282962020992,0.4878505560272258,-0.6156888401590735,-1.0991179546240732,-0.5343002127378519,1.328766254544851
1780770981174507776,2.6951308250427246,0.6882210969924927,-0.12398286908864975,0.08373958617448807,-0.23109936714172363,0.8884010910987854,-0.3966566324234009,0.012456163763999939,0.018642306327819824,-0.16094529628753662,-0.581633961448144,0.2706884672624604,0.4779115360881537,-0.6000251774043399,-1.093850461383533,-0.5275407004280231,1.275965404100356
1780770981184542976,2.7051658630371094,0.7933775782585144,-0.19269496202468872,0.100436270236969,-0.2309177815914154,0.8856629729270935,-0.4028375446796417,0.028189480304718018,0.022357046604156494,-0.22091126441955566,-0.5981572317273037,0.2811462031661199,0.4685488733962088,-0.586196815933254,-1.087919907288797,-0.5205015988510875,1.2312244022671803
1780770981194577920,2.715200901031494,0.9226117730140686,-0.2611815929412842,0.11027398705482483,-0.2308872938156128,0.8823934197425842,-0.4099667966365814,0.028235360980033875,0.048362135887145996,-0.2533784806728363,-0.6125741320373859,0.2893329101661247,0.45967713130625937,-0.5742266553441936,-1.0809250588274815,-0.5129099350420371,1.1940489734840176
1780770981204611840,2.7252347469329834,1.0206056833267212,-0.33044204115867615,0.11244979500770569,-0.23116368055343628,0.8786159157752991,-0.41784873604774475,0.02188938856124878,0.05421489477157593,-0.27708232402801514,-0.6250849068964869,0.29538640005010824,0.45146706740917836,-0.5640862577502755,-1.072955959963959,-0.5053146032052396,1.1636270922226375
1780770981214646784,2.735269784927368,0.9200212955474854,-0.34120360016822815,0.08064259588718414,-0.23166613280773163,0.8746296167373657,-0.4258566200733185,-0.0015644282102584839,0.03511464595794678,-0.26728910207748413,-0.6358582474949799,0.2997798860072174,0.44407624113966565,-0.5555291714600109,-1.0646713291939047,-0.49822526004686407,1.1386549065817329
1780770981224680960,2.7453038692474365,0.6204484105110168,-0.29657116532325745,0.02254786156117916,-0.2326197624206543,0.8714295029640198,-0.43185487389564514,-0.0315861701965332,0.011367738246917725,-0.23672425746917725,-0.6449910679407174,0.3035722741629226,0.43808268736793693,-0.547644005980641,-1.0581091228715358,-0.49408951180965777,1.1151279236976697
1780770981234715904,2.7553389072418213,0.352238267660141,-0.18675437569618225,0.032978396862745285,-0.23349779844284058,0.8693590760231018,-0.4355382025241852,-0.07721689343452454,-0.014882206916809082,-0.17324170470237732,-0.6529272118502956,0.3075994421286926,0.4331437168401365,-0.5398658092915637,-1.0539038602695385,-0.49211910695775857,1.0915888153172761
1780770981244750848,2.765373706817627,0.27208030223846436,-0.07288825511932373,0.11319680511951447,-0.2333623766899109,0.8682016730308533,-0.43791303038597107,-0.10857182741165161,-0.05625098943710327,-0.17314046621322632,-0.6595043487147809,0.3117141633022115,0.42880971116283495,-0.5329263197874019,-1.0515665987450062,-0.48961727081097894,1.0713675761092631
1780770981254784768,2.7754077911376953,0.22449176013469696,0.009694239124655724,0.04584546014666557,-0.23273009061813354,0.8672856092453003,-0.4400594234466553,-0.14692381024360657,-0.10634511709213257,-0.19478246569633484,-0.6651299593590773,0.31542476284228105,0.4248264416730372,-0.5269077394213652,-1.0497234706599252,-0.48646862535822455,1.0544992176302512
1780770981264819968,2.78544282913208,0.16711050271987915,-0.002971755340695381,-0.036521315574645996,-0.23265604674816132,0.8664268255233765,-0.4417869746685028,-0.1774391531944275,-0.16168439388275146,-0.23582535982131958,-0.6699476352625002,0.31842973408210823,0.42155547092232376,-0.5215972394903626,-1.0480009718031222,-0.4847199879081939,1.0392571522985656
1780770981274853888,2.7954769134521484,0.14318811893463135,-0.10865211486816406,-0.06367996335029602,-0.23334647715091705,0.8655909895896912,-0.4430592954158783,-0.17238472402095795,-0.15860557556152344,-0.2267252504825592,-0.6702291487113092,0.3176402025861099,0.42139656047425617,-0.5218452035409664,-1.0463293820489794,-0.48475606264540877,1.0398285962559939
1780770981284888832,2.805511713027954,0.10005849599838257,-0.17622782289981842,-0.07749351114034653,-0.23462027311325073,0.8648430109024048,-0.44384658336639404,-0.16413763165473938,-0.11618584394454956,-0.18707379698753357,-0.6703196214979175,0.31667119329145343,0.4216587020821022,-0.522106108742442,-1.0448375591688803,-0.486270190577901,1.0397570663597888
1780770981294923776,2.815546751022339,-0.006367550231516361,-0.20439741015434265,-0.0721576064825058,-0.2361295521259308,0.8644068837165833,-0.44389599561691284,-0.1891634166240692,-0.08420974016189575,-0.14610034227371216,-0.6702126276456759,0.3158216493860926,0.4222661329728714,-0.5222672843138342,-1.0439695381691183,-0.4888781078120106,1.038931635507481
1780770981304957952,2.8255808353424072,-0.1516168862581253,-0.24435175955295563,-0.05971425399184227,-0.23770761489868164,0.864565908908844,-0.4427424669265747,-0.23760367929935455,-0.09927666187286377,-0.11289107799530029,-0.6697991769912361,0.3153326346800515,0.4233132299260437,-0.5222454901574374,-1.0442859389867447,-0.4927285865332414,1.0370798959595244
1780770981314992896,2.835615873336792,-0.3950042426586151,-0.27669477462768555,-0.02012130431830883,-0.23922735452651978,0.865624189376831,-0.43984654545783997,-0.2803038954734802,-0.17363816499710083,-0.06357145309448242,-0.668948617874721,0.31544583896717293,0.4249360572923018,-0.5219492295050331,-1.0463957230702325,-0.4981387581983779,1.033818552891659
1780770981325026816,2.8456497192382812,-0.6763706803321838,-0.3473052978515625,0.05625415965914726,-0.2404634952545166,0.8679769039154053,-0.43450361490249634,-0.3061673641204834,-0.2521932125091553,-0.04623979330062866,-0.6674068886444549,0.3164334291393113,0.4273383701419917,-0.5213634442860917,-1.0511138559884001,-0.5054660440705528,1.0289692144622598
1780770981335061760,2.855684757232666,-0.8918763399124146,-0.4254712164402008,0.16663126647472382,-0.24119575321674347,0.871675431728363,-0.4266222417354584,-0.3142699599266052,-0.30456727743148804,-0.06745731830596924,-0.6650384512733929,0.3183244151000659,0.4305327439641293,-0.5206102372177571,-1.0586107189392395,-0.5145604646563537,1.0229283314623536
1780770981345095936,2.8657188415527344,-0.866290807723999,-0.5908026099205017,0.28749749064445496,-0.2413090169429779,0.8759668469429016,-0.4176747798919678,-0.3075343370437622,-0.3576715588569641,-0.14070534706115723,-0.661941456789732,0.32045086321926847,0.4341357619663835,-0.5202605645768523,-1.0674365638876346,-0.5238939008122472,1.0179951911314136
1780770981355130880,2.875753879547119,-0.7905845642089844,-0.8179345726966858,0.3654111921787262,-0.24136774241924286,0.8801811337471008,-0.4086841642856598,-0.28147464990615845,-0.4161766767501831,-0.2894206941127777,-0.6582138911264441,0.3220556586949878,0.43810737487135376,-0.5206692928862008,-1.076243684200701,-0.5334770140285012,1.015151591781463
1780770981365165824,2.885788917541504,-0.5986832976341248,-0.978264331817627,0.4785260260105133,-0.24133387207984924,0.8840603232383728,-0.40024393796920776,-0.26148897409439087,-0.4104428291320801,-0.37485674023628235,-0.6539887987505157,0.3229465696292139,0.4422482755225755,-0.5219392199918683,-1.0844796104132945,-0.5425982270830937,1.0150635266826142
1780770981375199744,2.895822763442993,-0.2947138845920563,-1.0620044469833374,0.5919815301895142,-0.24065686762332916,0.8871147632598877,-0.3938422203063965,-0.25725269317626953,-0.3399193286895752,-0.3753838539123535,-0.6495910953522042,0.32289968183139023,0.44588640425298337,-0.5243591523828038,-1.0910558818203062,-0.5485041304464129,1.019980802779497
1780770981385234944,2.905857801437378,0.006198841612786055,-1.125842571258545,0.7006986737251282,-0.23921826481819153,0.8892235159873962,-0.3899439871311188,-0.27175283432006836,-0.28146588802337646,-0.32053571939468384,-0.6452083471944849,0.3219202134307706,0.4487709630487528,-0.5278998781143834,-1.0956449719809127,-0.5502638077271343,1.0303508970813842
1780770981395268864,2.9158918857574463,0.2439669370651245,-1.172321081161499,0.8606470823287964,-0.23676006495952606,0.8905789852142334,-0.38834744691848755,-0.2833815813064575,-0.2480466365814209,-0.21014803647994995,-0.6407435605695849,0.32019617393354094,0.45088877302089514,-0.532561151942676,-1.0986165104210424,-0.5474924876245327,1.046456693580613
1780770981405304064,2.925926923751831,0.5090774297714233,-1.2131506204605103,1.0212689638137817,-0.233017235994339,0.8913154006004333,-0.38892117142677307,-0.2657315135002136,-0.2299385666847229,-0.15177398920059204,-0.6361296365177562,0.317910032074223,0.4521865004974992,-0.5383303369950262,-1.1002382602557153,-0.539785043493249,1.0685237453015195
1780770981415338752,2.9359617233276367,0.761638879776001,-1.2667853832244873,1.1942218542099,-0.22801832854747772,0.8913444876670837,-0.39180684089660645,-0.24187606573104858,-0.23439264297485352,-0.15561744570732117,-0.631343731913983,0.31499738017412443,0.45262924435387186,-0.5452600022937549,-1.1003024042703144,-0.5270537909648088,1.096756770555043
1780770981425372928,2.945995807647705,0.9944475889205933,-1.28481125831604,1.3805038928985596,-0.2215743511915207,0.8907386064529419,-0.3968496024608612,-0.21804660558700562,-0.2622290849685669,-0.1646585464477539,-0.6262939954696886,0.31160059653136823,0.45219494621004397,-0.553335932098962,-1.0989675927957574,-0.5092186183669465,1.1311549266463463
1780770981435407872,2.95603084564209,1.2236320972442627,-1.2944574356079102,1.571153163909912,-0.2136138677597046,0.8894622325897217,-0.4040123522281647,-0.19481812417507172,-0.26836854219436646,-0.17617255449295044,-0.6209989324429129,0.3078355542180879,0.45081160163216955,-0.5624645642157163,-1.0961670427828643,-0.4863673786640363,1.1713325444276192
1780770981445442048,2.966064929962158,1.3512959480285645,-1.3355282545089722,1.7753931283950806,-0.20409029722213745,0.8875779509544373,-0.41298016905784607,-0.16215117275714874,-0.25339215993881226,-0.17809951305389404,-0.615295704031847,0.30379429035006184,0.4485743495605922,-0.5726267073739681,-1.0920604270830045,-0.4589880852656619,1.216964781689507
1780770981455476736,2.976099729537964,1.1434221267700195,-1.403306245803833,1.9444659948349,-0.19326423108577728,0.8860211372375488,-0.42144453525543213,-0.1259801834821701,-0.22884035110473633,-0.16707170009613037,-0.6087268256417699,0.30013452058309315,0.4463149110633265,-0.5832442827086158,-1.088691747603161,-0.42996256609926065,1.2652052701982717
1780770981465511680,2.9861347675323486,0.9156047105789185,-1.4222954511642456,2.0291740894317627,-0.18164506554603577,0.8853453993797302,-0.4279822111129761,-0.10853134095668793,-0.20002728700637817,-0.0959283709526062,-0.6012553902638574,0.2972553844004354,0.44457635142498725,-0.5937029427602197,-1.087236345880137,-0.4013809695699912,1.3134960197004657
1780770981475545856,2.996168851852417,0.549231767654419,-1.381458044052124,2.08577036857605,-0.16944268345832825,0.8857260346412659,-0.43217888474464417,-0.11301277577877045,-0.22640901803970337,-0.03548771142959595,-0.5930625146783703,0.2953615707786412,0.44347728566701644,-0.6036276475506276,-1.0880557524129435,-0.37364815349342884,1.3607488057453192
1780770981485580800,3.0062038898468018,0.2926796078681946,-1.2879847288131714,2.157743453979492,-0.15642453730106354,0.8874503374099731,-0.4335472285747528,-0.12175843119621277,-0.26693642139434814,0.004424333572387695,-0.5842291381873497,0.29481196528466175,0.4430714292274492,-0.61273961916907,-1.0917834390095065,-0.34626503604071995,1.4067471037531836
1780770981495614720,3.016237735748291,0.4838000237941742,-1.238982081413269,2.301056146621704,-0.14206725358963013,0.8891768455505371,-0.43494993448257446,-0.11873596906661987,-0.2783827781677246,-0.008729875087738037,-0.5750891916015266,0.2947878225233328,0.4422953476441813,-0.6218901524127479,-1.0955429702930028,-0.31570456620046694,1.4553527076903665
1780770981505649920,3.026273012161255,0.854375958442688,-1.2215124368667603,2.4569361209869385,-0.12631529569625854,0.8894327878952026,-0.4392649233341217,-0.08630067110061646,-0.2333964705467224,-0.0796407163143158,-0.5658792155789804,0.2942345025744156,0.44021994747916393,-0.6319913883859273,-1.096102731726073,-0.2800058208579965,1.509440883259018
1780770981515685120,3.0363080501556396,1.5486987829208374,-1.131792664527893,2.670375347137451,-0.10873857885599136,0.8872578144073486,-0.44827380776405334,-0.05411846935749054,-0.07266741991043091,-0.09924206137657166,-0.5568259053963593,0.2928146509709527,0.4360305914314232,-0.6434918481415984,-1.0913659706736223,-0.23797527212101477,1.570025324387636
1780770981525719040,3.046342134475708,2.455592155456543,-1.1749409437179565,2.9238996505737305,-0.08912039548158646,0.8807374835014343,-0.46514400839805603,-0.03250740468502045,0.0743863582611084,-0.16780582070350647,-0.5482071681263997,0.28956060364437236,0.42846546761884113,-0.65729812726196,-1.077417150042548,-0.18930326860440005,1.6379329708629773
1780770981535753984,3.0563769340515137,2.862025022506714,-1.306118369102478,2.915210247039795,-0.06923143565654755,0.870209276676178,-0.48779386281967163,0.010149411857128143,0.09968513250350952,-0.38313204050064087,-0.5396062465404978,0.28430567213557734,0.4186566121223303,-0.6728462501482055,-1.0556269713410655,-0.14098603381497046,1.707421484371867
1780770981545788160,3.066411018371582,2.7820827960968018,-1.2962616682052612,2.716174364089966,-0.0514252595603466,0.8575711846351624,-0.5117881298065186,0.0582306869328022,0.12877219915390015,-0.41002583503723145,-0.5313385138607857,0.277996251193102,0.4084409468756235,-0.6881667503492499,-1.0305289607018024,-0.10014539411835748,1.7698485501699919
1780770981555823104,3.076446056365967,2.250121831893921,-1.3019243478775024,2.5372345447540283,-0.03580775484442711,0.8453617691993713,-0.5329927802085876,0.07296289503574371,0.16156572103500366,-0.25782454013824463,-0.5230474334268991,0.2720328363161272,0.39937671179988943,-0.7020810045298543,-1.0072420109112683,-0.06708163791518222,1.824038561327892
1780770981565858048,3.0864810943603516,1.3524001836776733,-1.1653335094451904,2.37752366065979,-0.021946296095848083,0.836205780506134,-0.547976553440094,0.09100757539272308,0.16087985038757324,-0.102414071559906,-0.5143411391101069,0.2677242122191916,0.39285552793398404,-0.7137517019530407,-0.9903277301853047,-0.04002830466458176,1.8711160799679822
1780770981575891968,3.096514940261841,0.5987164974212646,-0.9769693613052368,2.3699376583099365,-0.008106120862066746,0.8313537836074829,-0.5556844472885132,0.06346502155065536,0.05501401424407959,0.16614282131195068,-0.5049938267472868,0.26609974180864693,0.38903559062906246,-0.7230653808141168,-0.9815392599646858,-0.01458659812591696,1.914486043126811
1780770981585926912,3.1065499782562256,0.6201655864715576,-0.8991331458091736,2.4458696842193604,0.0066477046348154545,0.8281763792037964,-0.5604281425476074,0.07008875906467438,-0.07921397686004639,0.2553896903991699,-0.49517389056005845,0.26592302869365186,0.38609698890343835,-0.7314485000095436,-0.9758461215316305,0.01186127659789081,1.9576744627705223
1780770981595961088,3.116584062576294,1.4074724912643433,-0.8903245329856873,2.5450055599212646,0.022245794534683228,0.8223152160644531,-0.5685972571372986,0.20077666640281677,0.002758026123046875,0.1720365285873413,-0.4855640290138999,0.2650536796846265,0.38137635240412343,-0.7406255793674508,-0.9654678517904721,0.03910404712775907,2.0014662298373387
1780770981605996032,3.1266191005706787,2.625823736190796,-0.9425132870674133,2.6407182216644287,0.038189079612493515,0.8098142743110657,-0.5854421854019165,0.4018743932247162,0.3868715167045593,0.019234299659729004,-0.47679178008846496,0.261648160748357,0.3725844250949347,-0.7519247633745683,-0.9438355156390255,0.06513888757420816,2.0446214864911765
1780770981616031232,3.1366541385650635,3.4044222831726074,-0.9938145875930786,2.6259679794311523,0.05353859066963196,0.7902659177780151,-0.6104207038879395,0.5360152125358582,0.6727467775344849,-0.13869428634643555,-0.46892164362908817,0.25554392417458327,0.3598429540174538,-0.7650639542771712,-0.9112428122870719,0.08748382378938159,2.084752973916855
1780770981626064896,3.1466879844665527,3.7379331588745117,-0.9249280691146851,2.486102819442749,0.06745177507400513,0.7661479115486145,-0.6391147375106812,0.5327984690666199,0.664256751537323,-0.07293665409088135,-0.46185170874429565,0.24791801402925637,0.34493374785979103,-0.778620823108911,-0.8728256138192687,0.10515012839095528,2.1199113927058346
1780770981636100096,3.1567230224609375,3.708648204803467,-0.8261300921440125,2.3113832473754883,0.07976632565259933,0.7397559285163879,-0.6681306958198547,0.44921013712882996,0.5102745890617371,0.05411696434020996,-0.4555290139993334,0.23986108012739704,0.32924356729177523,-0.7915546732763399,-0.832707561007716,0.11882488848153672,2.1497880955733892
1780770981646134016,3.166757106781006,3.3619673252105713,-0.7438501119613647,2.1355342864990234,0.09055487811565399,0.7135416269302368,-0.6947360634803772,0.3591826558113098,0.3797353506088257,0.0912051796913147,-0.4495796609944065,0.23220960521991996,0.3141825353371458,-0.803272189038262,-0.79454031200865,0.12961355859947227,2.1755411668105946
1780770981656168960,3.1767919063568115,2.7031917572021484,-0.6594183444976807,1.9452351331710815,0.09985370934009552,0.6899222135543823,-0.7169634699821472,0.3008268177509308,0.3084602952003479,0.17217892408370972,-0.44373846294594077,0.2256096265735046,0.3010291915469366,-0.8133743647200764,-0.7613815613265984,0.1383829306144038,2.198205212750559
1780770981666203136,3.18682599067688,1.9741036891937256,-0.5211294293403625,1.7623292207717896,0.10808002948760986,0.6710032224655151,-0.7335348129272461,0.25449931621551514,0.2165089249610901,0.29354768991470337,-0.43788721328139785,0.22071782056432848,0.2907167438608249,-0.8215972799849038,-0.7355609697841891,0.14628881792512313,2.2186953235890012
1780770981676238080,3.1968610286712646,1.4327304363250732,-0.3954109251499176,1.669054627418518,0.11601411551237106,0.6565244793891907,-0.745329737663269,0.21674957871437073,0.12248247861862183,0.36639297008514404,-0.4320244739804793,0.2175662280103037,0.28284283753973166,-0.8282631369093287,-0.7162018637617906,0.15441563030666505,2.23791918334308
1780770981686273024,3.2068960666656494,1.024706482887268,-0.3079879879951477,1.5875757932662964,0.1239585280418396,0.6453330516815186,-0.7537768483161926,0.2133217453956604,0.07717061042785645,0.3248828053474426,-0.42607328653647925,0.21572029958330813,0.27672428079643485,-0.8338765055987173,-0.7014592103356581,0.162991056404999,2.256592317774383
1780770981696306944,3.2169299125671387,0.7149331569671631,-0.2502051293849945,1.4624967575073242,0.13162626326084137,0.6367526650428772,-0.7597503662109375,0.2510031461715698,0.1037716269493103,0.2735595703125,-0.42024740283352435,0.21479000412957272,0.2720111764710439,-0.8386103465511504,-0.6902794171218664,0.17154653958308885,2.2743087550584553
1780770981706341888,3.2269649505615234,0.38402149081230164,-0.24612663686275482,1.3168162107467651,0.13857130706310272,0.6306335926055908,-0.7636093497276306,0.2678923010826111,0.11643671989440918,0.24432224035263062,-0.4146385848631974,0.21446777836385844,0.26869852313129794,-0.842543476999057,-0.6823693614353309,0.17951531789001904,2.290824043134678
1780770981716376064,3.236999034881592,0.18834814429283142,-0.2513860762119293,1.1404062509536743,0.14437858760356903,0.6268336772918701,-0.7656594514846802,0.25801095366477966,0.08294415473937988,0.24287807941436768,-0.40940038504139714,0.2144966049336043,0.26676107988784387,-0.8457074836869252,-0.6774827237701914,0.18637912059218056,2.305743912440255
1780770981726411008,3.2470340728759766,0.20472897589206696,-0.27267327904701233,0.9840286374092102,0.14899350702762604,0.6238226294517517,-0.7672328948974609,0.24149417877197266,0.09909301996231079,0.22177696228027344,-0.4047516822394563,0.21440308061908447,0.2653580002799949,-0.8484059413826828,-0.6736241925090177,0.19180853787677604,2.3186595592886516
1780770981736446208,3.2570691108703613,0.3219253718852997,-0.2706729769706726,0.8385979533195496,0.15255200862884521,0.6204495429992676,-0.7692660689353943,0.22202074527740479,0.17352628707885742,0.1740664839744568,-0.40078854888151444,0.2139152155616901,0.26383184729011355,-0.8508828445740424,-0.6693157644710196,0.19576859797576726,2.329457508651828
1780770981746479872,3.2671029567718506,0.45641952753067017,-0.24242310225963593,0.6947145462036133,0.1552998572587967,0.6162450909614563,-0.7720906138420105,0.20195415616035461,0.2609063982963562,0.158458411693573,-0.39758820736160805,0.21303388362864323,0.26186115360277756,-0.8532109329279464,-0.6639659835863646,0.19849341537683468,2.338076698390173
1780770981756515072,3.2771379947662354,0.5879155397415161,-0.2225111722946167,0.572415828704834,0.15738241374492645,0.6112207174301147,-0.7756545543670654,0.18525369465351105,0.28091490268707275,0.16983485221862793,-0.3951362685115044,0.21183123489926772,0.2594229365446886,-0.8553914007016441,-0.6576020201789137,0.20018506760509366,2.3446237803781584
1780770981766548992,3.2871720790863037,0.6998985409736633,-0.20978990197181702,0.47685012221336365,0.1588602066040039,0.60539311170578,-0.779911994934082,0.1569356918334961,0.23796015977859497,0.15572071075439453,-0.39328390647817196,0.21029796470478998,0.2565517164755789,-0.8574869639529924,-0.6502596834081279,0.20094102682355974,2.349488049995278
1780770981776584192,3.2972071170806885,0.8267337083816528,-0.15104404091835022,0.4399144649505615,0.16018269956111908,0.5986856818199158,-0.7848037481307983,0.10948586463928223,0.18041276931762695,0.10729831457138062,-0.39189196802639914,0.20859706346120446,0.25315091667044515,-0.8595478673931017,-0.6418592296606,0.20133994420806434,2.353178678832946
1780770981786618880,3.307241916656494,0.9350420832633972,-0.13239924609661102,0.38444507122039795,0.16157326102256775,0.5910310745239258,-0.7903014421463013,0.06508077681064606,0.14517498016357422,0.07123100757598877,-0.39085263366071266,0.20679224368251337,0.2491711423853945,-0.8616175737245003,-0.6323364405652419,0.20166603659315632,2.3560350143443554
1780770981796653056,3.3172760009765625,0.8875176906585693,-0.18073536455631256,0.3083631098270416,0.16237139701843262,0.5831660032272339,-0.7959604263305664,0.06207013130187988,0.1289769411087036,-0.0022726058959960938,-0.39011932717773506,0.2047520499321444,0.24514566438652519,-0.8635896899538392,-0.6226205848334251,0.20123327848269407,2.3579381671271755
1780770981806688000,3.3273110389709473,0.7791661620140076,-0.24132226407527924,0.244065061211586,0.16225731372833252,0.5761365294456482,-0.8010863661766052,0.09529580175876617,0.1286669373512268,-0.010330259799957275,-0.3895112605028093,0.2025557402620333,0.24171884467726293,-0.8653463250407949,-0.6139939448307294,0.19984300035561392,2.3592267166826884
1780770981816722176,3.3373451232910156,0.6264751553535461,-0.23285287618637085,0.242828831076622,0.16159018874168396,0.5696850419044495,-0.8058210611343384,0.13548319041728973,0.10864442586898804,0.05757582187652588,-0.3889680499189283,0.2002861681365068,0.23869417735208084,-0.8669570225036207,-0.6061225617086284,0.19790378849963086,2.360182468292183
1780770981826756864,3.3473799228668213,0.08734030276536942,-0.14548775553703308,0.3873780071735382,0.1619333177804947,0.5666062831878662,-0.8079201579093933,0.1369558572769165,0.02851700782775879,0.22958147525787354,-0.3877244726494658,0.1992700988438554,0.23734229084323324,-0.8681185668433503,-0.6023813539135549,0.19781122975311843,2.3631332573560315
1780770981836792064,3.357414960861206,-0.008730040863156319,-0.2776487171649933,0.4831434190273285,0.16272065043449402,0.5654309988021851,-0.8085850477218628,0.14181426167488098,-0.07504403591156006,0.3136357069015503,-0.38561972147007745,0.19876630254057712,0.237064209888748,-0.8692467531186764,-0.6009557160512766,0.1985887768590761,2.3682308294252095
1780770981846825984,3.3674490451812744,-0.5289010405540466,-0.35069242119789124,0.5920640826225281,0.16324622929096222,0.5667720437049866,-0.8075395822525024,0.16611473262310028,-0.3088527321815491,0.10548269748687744,-0.3826592224324859,0.19858274456398053,0.23831724611328728,-0.8702538758721743,-0.6025825414087982,0.1994645068350777,2.375235385172503
1780770981856861184,3.377484083175659,-0.7816499471664429,-0.5639005899429321,0.6814653277397156,0.1632574200630188,0.5711517930030823,-0.8044455647468567,0.1700403094291687,-0.3996887803077698,0.08131629228591919,-0.3786326968547872,0.19866184386648855,0.24147606751330195,-0.8711257415600774,-0.6079083314175296,0.200224747012805,2.3845602471351697
1780770981866894848,3.3875179290771484,-0.7391775846481323,-0.7301148772239685,0.6388925909996033,0.16183122992515564,0.5764002203941345,-0.8009828329086304,0.18153730034828186,-0.4035181403160095,-0.07143843173980713,-0.37415853332791627,0.19810979628085595,0.24548136199606793,-0.8720647135682124,-0.6143166052307273,0.19935712305152425,2.3944267465969804
1780770981876930048,3.397552967071533,-0.4240947663784027,-0.8124353289604187,0.6422737240791321,0.1593133956193924,0.5801141858100891,-0.7988033890724182,0.1577947735786438,-0.39160704612731934,-0.2398318648338318,-0.3698105584140208,0.19660830576099642,0.24888447522044593,-0.8732937323184522,-0.6188688363079053,0.19685709071610735,2.40356986629183
