time,seconds_elapsed,rotationRateX,rotationRateY,rotationRateZ,gravityX,gravityY,gravityZ,accelerationX,accelerationY,accelerationZ,quaternionW,quaternionX,quaternionY,quaternionZ,pitch,roll,yaw
1780949272535835904,0.0562739372253418,-0.10299693048000336,-0.041247520595788956,0.022635601460933685,-0.46312424540519714,-0.1752692312002182,-0.868790328502655,-0.011103659868240356,-0.0312737375497818,0.01413029432296753,0.5411319356476094,0.24925092661616774,-0.058981409294846514,0.8009815436288192,0.17617922684490445,-0.4897506434392438,1.9974209137323955
1780949272545871104,0.06630897521972656,-0.11427301913499832,-0.058931443840265274,0.038465164601802826,-0.4636376202106476,-0.1741611361503601,-0.8687393665313721,-0.017456740140914917,-0.04948693513870239,0.00838780403137207,0.5411475859566219,0.24915178939463412,-0.059612982729199154,0.8009550705733209,0.1750538218621794,-0.49023506933899197,1.9971253105509816
1780949272555906048,0.07634401321411133,-0.050279393792152405,-0.05106286704540253,0.04318508505821228,-0.46418413519859314,-0.1732626110315323,-0.8686271905899048,0.0023921430110931396,-0.006821632385253906,0.008062005043029785,0.5410591024471827,0.24913874313166987,-0.06013569674039037,0.800979797486479,0.17414142617405012,-0.49077824987856766,1.9971261015513608
1780949272565942016,0.0863800048828125,-0.0021408936008810997,-0.060255832970142365,0.06593300402164459,-0.46474817395210266,-0.17275674641132355,-0.8684262633323669,0.013088017702102661,0.017925813794136047,0.0030393600463867188,0.5408761769393212,0.2492590683230321,-0.06047123704550326,0.8010406297252035,0.1736278161768593,-0.4913794403846852,1.997436242322945
1780949272575976960,0.09641504287719727,0.04548601433634758,-0.06381328403949738,0.08459670841693878,-0.4654436409473419,-0.1726229041814804,-0.8680803775787354,0.005299597978591919,0.0016176551580429077,-0.0043408870697021484,0.5405061950940424,0.2495658061664719,-0.06063588904476892,0.8011824880558513,0.17349193011411332,-0.4921676659989849,1.9982736957583773
1780949272586012160,0.10645008087158203,0.05794375017285347,-0.05262601375579834,0.0800301805138588,-0.46608924865722656,-0.17270483076572418,-0.8677176237106323,0.0030307769775390625,-0.002130359411239624,-0.007785916328430176,0.540099532291594,0.24991750681187952,-0.06068298164436013,0.8013434948603423,0.17357510754181713,-0.49291933890246004,1.9992482650424253
1780949272596046848,0.1164848804473877,0.050090353935956955,-0.045607246458530426,0.06773915886878967,-0.4666527509689331,-0.17285431921482086,-0.8673849105834961,-0.0017005205154418945,0.0004605203866958618,0.006987571716308594,0.5397179267533859,0.2502500920865485,-0.060683095798290815,0.8014967038039298,0.1737268774037857,-0.49358321341238837,2.0001802554604833
1780949272606083072,0.12652111053466797,-0.0024562114849686623,-0.033248186111450195,0.06872133910655975,-0.46713098883628845,-0.1727704405784607,-0.8671441674232483,-0.006501823663711548,0.003428414463996887,0.012301027774810791,0.5393953706642493,0.2504690897347864,-0.06077131788874216,0.801638754464253,0.17364172487577847,-0.49412659919031426,2.0009269923874293
1780949272616118016,0.13655591011047363,-0.08791731297969818,-0.029801521450281143,0.06563793122768402,-0.46754026412963867,-0.1720551699399948,-0.8670657873153687,-0.004002094268798828,-0.002444341778755188,0.016495108604431152,0.5391731585120327,0.25045951585325726,-0.06113205204543747,0.8017638055490474,0.1729155657386199,-0.4945301010379851,2.0013058765297274
1780949272626152960,0.1465909481048584,-0.12906555831432343,-0.03694358468055725,0.06268768012523651,-0.46793800592422485,-0.170781672000885,-0.8671030402183533,-0.002429395914077759,-0.012293264269828796,0.02916663885116577,0.5390477365774163,0.25027013829188066,-0.06175234530262506,0.8018597016272375,0.17162293827581088,-0.4948674765410355,2.0013343195733193
1780949272636187904,0.15662598609924316,-0.10075827687978745,-0.037683144211769104,0.06333136558532715,-0.4683690369129181,-0.1694437563419342,-0.8671327829360962,0.003662616014480591,-0.01726280152797699,0.03755819797515869,0.5389336338300198,0.2500762010752003,-0.06241394770776363,0.801945751095497,0.17026523147343242,-0.4952380272349923,2.0013181023990323
1780949272646224128,0.16666197776794434,-0.0024484884925186634,-0.024000223726034164,0.06440968066453934,-0.4687516987323761,-0.16867050528526306,-0.8670767545700073,0.009492665529251099,-0.008850261569023132,0.029506564140319824,0.5387263891045353,0.25003671455791593,-0.06279537249448615,0.8020674976600083,0.1694806858812152,-0.4956066057382312,2.001648299698723
1780949272656259072,0.1766970157623291,0.0809638500213623,-0.005781273823231459,0.05906151980161667,-0.4689826965332031,-0.168748676776886,-0.8669366240501404,0.013843536376953125,0.01237662136554718,0.006508767604827881,0.5384216611102582,0.25019015347211193,-0.06274204902631791,0.8022285044769324,0.16956000033345175,-0.49588038271062185,2.00240283221732
1780949272666294016,0.18673205375671387,0.13719941675662994,0.0021606720983982086,0.046334005892276764,-0.4690791666507721,-0.1694929599761963,-0.8667392134666443,0.015938907861709595,0.02958512306213379,-0.0063686370849609375,0.5380731566572056,0.25048439048745585,-0.062353441404343846,0.8024007536646149,0.1703151590442944,-0.49606176907962063,2.0034094747775946
1780949272676329216,0.19676709175109863,0.11067487299442291,0.009854278527200222,0.05274556577205658,-0.4691089391708374,-0.1703827828168869,-0.8665486574172974,0.013771414756774902,0.015689179301261902,0.005464673042297363,0.537710468932916,0.25079234988453303,-0.061877953834435256,0.8025844484664163,0.1712181133557557,-0.49618040970318017,2.004485933133347
1780949272686363904,0.2068018913269043,0.039131179451942444,0.01314807590097189,0.053743451833724976,-0.46909013390541077,-0.1708052158355713,-0.8664756417274475,0.006016403436660767,-0.008149847388267517,0.02881389856338501,0.5374003724848425,0.25093389141215133,-0.061598463673579705,0.8027693358828808,0.1716468385242237,-0.49619891922593956,2.005343322591553
1780949272696399872,0.21683788299560547,-0.047023411840200424,0.01703549176454544,0.046575818210840225,-0.46905481815338135,-0.1705097109079361,-0.8665529489517212,0.005401253700256348,-0.021186470985412598,0.04483664035797119,0.5372140612028276,0.25084359318533284,-0.06165243140806447,0.80291809377649,0.17134692649794747,-0.49613004474972255,2.0057523644298842
1780949272706435072,0.22687292098999023,-0.10179158300161362,0.02910666912794113,0.0420476458966732,-0.46892380714416504,-0.16963307559490204,-0.8667958378791809,0.006750375032424927,-0.018263638019561768,0.044453978538513184,0.5371451339720333,0.25052664833066013,-0.06195537797217399,0.8030397897162996,0.17045733398242374,-0.4958957797394575,2.0057628345945626
1780949272716470016,0.236907958984375,-0.08368528634309769,0.036160051822662354,0.04127772897481918,-0.46869102120399475,-0.16855302453041077,-0.8671324253082275,0.010301738977432251,-0.014689788222312927,0.03046250343322754,0.537106547745557,0.250099929534704,-0.062320267619660696,0.8031704883001771,0.16936150120489776,-0.49552560085926123,2.0056670826654623
1780949272726504960,0.24694299697875977,-0.040822505950927734,0.030222665518522263,0.04986828565597534,-0.46849772334098816,-0.16788619756698608,-0.8673661947250366,0.01473185420036316,-0.016226351261138916,0.006923079490661621,0.5370299514419707,0.2498179082082578,-0.06251332187811555,0.8032944394921003,0.16868503176709804,-0.49524035489448726,2.0057435383510915
1780949272736540928,0.25697898864746094,0.03520754724740982,0.036084018647670746,0.058980025351047516,-0.4682939350605011,-0.16751761734485626,-0.8675475120544434,0.010179311037063599,-0.001748114824295044,-0.02011728286743164,0.536816304514393,0.24963079257766077,-0.06253573524815541,0.8034936676344244,0.16831117112959415,-0.4949710730545671,2.0062210469080304
1780949272746576128,0.2670140266418457,0.0860733911395073,0.016534818336367607,0.07839633524417877,-0.4681526720523834,-0.167777419090271,-0.8675735592842102,0.00832909345626831,-0.007500261068344116,-0.024409472942352295,0.5364684441659584,0.24967022136462505,-0.062273686477199434,0.80373406854191,0.16857469989873694,-0.4948324278554261,2.007150680499335
1780949272756611072,0.27704906463623047,0.11946676671504974,0.018576130270957947,0.08964020013809204,-0.46814876794815063,-0.16828131675720215,-0.86747807264328,0.006341516971588135,-0.008476495742797852,-0.01588374376296997,0.5359961754973543,0.2498550283040211,-0.06191477171721696,0.8040194500961577,0.16908586176191084,-0.49487495149376654,2.0084254791319927
1780949272766646272,0.28708410263061523,0.1252724528312683,0.016853731125593185,0.09404639899730682,-0.46815580129623413,-0.16890497505664825,-0.8673530220985413,-0.00791841745376587,-0.017252251505851746,-0.0013298392295837402,0.535485551502457,0.25008316055598845,-0.06149714836177013,0.8043207030791553,0.16971857998176798,-0.49494147005463085,2.009817598645076
1780949272776680960,0.2971189022064209,0.10474587976932526,0.031033199280500412,0.09142904728651047,-0.46811050176620483,-0.16947263479232788,-0.8672667741775513,-0.015440523624420166,-0.01416689157485962,0.01155388355255127,0.5349636002023705,0.25027094800840666,-0.061082545358818484,0.8046411679203171,0.1702945375746234,-0.4949425993180625,2.011231124560864
1780949272786716928,0.30715489387512207,0.06583709269762039,0.030929336324334145,0.08288589119911194,-0.46798616647720337,-0.16982443630695343,-0.8672650456428528,-0.018891245126724243,-0.009969860315322876,0.016892731189727783,0.534514696848476,0.2503521969373991,-0.060755805314841614,0.8049388561721961,0.17065151911616372,-0.4948324122922693,2.012426759758486
1780949272796751872,0.31718993186950684,0.003265589941293001,0.03168061375617981,0.08379589021205902,-0.4678567945957184,-0.16974464058876038,-0.8673504590988159,-0.012932389974594116,-0.010370120406150818,0.016367793083190918,0.5341408604049138,0.25029695792148066,-0.06063176398393582,0.8052135128574963,0.17057053650091208,-0.4946757167931162,2.0133510184575645
1780949272806787072,0.3272249698638916,-0.03530550375580788,0.021068982779979706,0.08665452897548676,-0.46775373816490173,-0.1691707819700241,-0.8675181269645691,-0.012577682733535767,-0.009418085217475891,0.017664611339569092,0.533837611782937,0.25010186294344955,-0.06074540596280177,0.805466558108207,0.16998825798975373,-0.49450293005941387,2.01399977541791
1780949272816822016,0.33726000785827637,-0.05459930747747421,0.012454455718398094,0.09845712780952454,-0.4677724540233612,-0.1683485507965088,-0.8676679134368896,-0.007721900939941406,-0.011293143033981323,0.006919682025909424,0.5335164022776753,0.2498908476607289,-0.060996666067584575,0.8057258239525866,0.16915407106468047,-0.49444750914112134,2.0146333352304078
1780949272826857984,0.34729599952697754,-0.05404989421367645,0.01050022803246975,0.10525298118591309,-0.4678347706794739,-0.16736266016960144,-0.8678250908851624,-0.006393134593963623,-0.0012317001819610596,0.0036893486976623535,0.5331867761688049,0.24965240219775575,-0.061328131762344806,0.8059927996931661,0.1681539811187681,-0.4944275093394814,2.0152513686752287
1780949272836893184,0.3573310375213623,-0.033611465245485306,-0.006111239083111286,0.12370628863573074,-0.468014657497406,-0.16642476618289948,-0.8679084777832031,-0.009951651096343994,-0.001086220145225525,-0.005397796630859375,0.5327826720946062,0.2494885731795381,-0.06165407394392768,0.8062858274516729,0.1672027515407682,-0.4945479538416497,2.0160525106547684
1780949272846928128,0.36736607551574707,-0.01418264303356409,-0.009979880414903164,0.15937240421772003,-0.4683116376399994,-0.1655735969543457,-0.8679110407829285,-0.01484265923500061,4.626810550689697e-05,-0.027505218982696533,0.5322355559375564,0.2494159202592894,-0.06193683609246102,0.8066479149931962,0.16633961350728577,-0.4948117676144936,2.0172143739041877
1780949272856963072,0.37740111351013184,-0.0011190385557711124,-0.021947592496871948,0.19100090861320496,-0.4687436521053314,-0.1646902710199356,-0.867845892906189,-0.01758447289466858,0.004717126488685608,-0.027860283851623535,0.5315356089797989,0.24940849631698117,-0.06222901248673829,0.8070891505989723,0.16544398758270068,-0.4952285979543487,2.0187354686855428
1780949272866999040,0.387437105178833,-0.048167239874601364,-0.03611987084150314,0.2364853024482727,-0.46934881806373596,-0.16349075734615326,-0.8677456378936768,-0.017971128225326538,0.0018238723278045654,-0.03975558280944824,0.5306867872054856,0.2494002471333067,-0.06266346055933582,0.8076164246848944,0.1642279844490729,-0.4958166249493432,2.0205448179201175
1780949272877033984,0.39747190475463867,-0.09761228412389755,-0.060935743153095245,0.2877652645111084,-0.47018980979919434,-0.16162358224391937,-0.8676400780677795,-0.017282724380493164,-0.013150587677955627,-0.04694122076034546,0.5297013696392762,0.24931676425954824,-0.06341216549784826,0.8082304123580195,0.16233564422989172,-0.49661706872251266,2.0225343228264383
1780949272887068928,0.40750694274902344,-0.1781340390443802,-0.07693640887737274,0.3392502963542938,-0.4712888300418854,-0.15897294878959656,-0.8675335049629211,-0.012018054723739624,-0.03498150408267975,-0.06917297840118408,0.5285815368717885,0.24913609646223053,-0.06453246010701813,0.8089303145879767,0.15965029139730733,-0.4976471914290982,2.0246695971640696
1780949272897104128,0.4175419807434082,-0.2617732584476471,-0.10460025817155838,0.36753252148628235,-0.4726361632347107,-0.15535810589790344,-0.8674554228782654,0.0032910704612731934,-0.04491350054740906,-0.06598573923110962,0.5273902131589476,0.24879845371586481,-0.06611821202709207,0.8096834141151811,0.15598994420880294,-0.49888341004018405,2.0267537474715116
1780949272907139072,0.42757701873779297,-0.26439860463142395,-0.1347011774778366,0.38638797402381897,-0.47428447008132935,-0.15125855803489685,-0.8672803044319153,0.020060867071151733,-0.049959078431129456,-0.06486386060714722,0.5261472490759591,0.24846954254429593,-0.06799077663310125,0.810437672665358,0.15184135737914384,-0.5004324448670389,2.0288243919590685
1780949272917175040,0.43761301040649414,-0.2427029013633728,-0.13974253833293915,0.39331352710723877,-0.4760867655277252,-0.1471605896949768,-0.8669977784156799,0.02154269814491272,-0.042170450091362,-0.07205861806869507,0.5248352208270917,0.24822582439358018,-0.06989311608214431,0.8112009009566067,0.1476969947929412,-0.5021681683746361,2.031034680417369
1780949272927209984,0.4476480484008789,-0.18696001172065735,-0.14082378149032593,0.38519516587257385,-0.47788310050964355,-0.14341823756694794,-0.8666365742683411,0.0020377635955810547,-0.03089815378189087,-0.07083290815353394,0.5234640204873271,0.2480951635063558,-0.07162752296424375,0.8119751725110462,0.14391450681236553,-0.5039348460488481,2.033449383014889
1780949272937245184,0.45768308639526367,-0.12014076858758926,-0.13741013407707214,0.39074277877807617,-0.4796435832977295,-0.1402236968278885,-0.8661866784095764,-0.017335176467895508,-0.02940826117992401,-0.08056014776229858,0.5220189341441731,0.24811972907615717,-0.0730976717853376,0.812766585976562,0.1406873461148923,-0.5057113013417762,2.0361506631238115
1780949272947279872,0.46771788597106934,-0.06892391294240952,-0.1405681073665619,0.38914117217063904,-0.4813905358314514,-0.13750402629375458,-0.865653395652771,-0.033044278621673584,-0.01792198419570923,-0.077583909034729,0.5204980841233071,0.2482878668207436,-0.07433998038018653,0.813577598394637,0.13794106766687836,-0.5075150362431121,2.0391282443464487
1780949272957315840,0.4777538776397705,-0.020321762189269066,-0.13558347523212433,0.383993536233902,-0.48312315344810486,-0.13526763021945953,-0.8650403022766113,-0.05314698815345764,-0.011033639311790466,-0.07134580612182617,0.5189162279830635,0.24859928995306607,-0.07535418025201258,0.814399245505904,0.1356835766862675,-0.5093440749542584,2.042349619676056
1780949272967351040,0.4877889156341553,0.007405207492411137,-0.1375827044248581,0.37926962971687317,-0.48483312129974365,-0.13335618376731873,-0.8643800616264343,-0.06451377272605896,-0.01288403570652008,-0.0588529109954834,0.5173158668352908,0.24899975785228604,-0.07621731143909674,0.8152141905382778,0.13375464542405055,-0.5111752513507349,2.04567905368447
1780949272977384704,0.49782276153564453,0.05974990501999855,-0.13751186430454254,0.3695794343948364,-0.4865157902240753,-0.1318049281835556,-0.8636723160743713,-0.05929109454154968,-0.005295276641845703,-0.04886430501937866,0.5156973024259928,0.24949620435691902,-0.07691216735912237,0.8160224203461433,0.13218957894432395,-0.5130050248679262,2.049126706603935
1780949272987419904,0.5078577995300293,0.07821120321750641,-0.1443287581205368,0.35794541239738464,-0.48820480704307556,-0.13065727055072784,-0.8628932237625122,-0.03900161385536194,0.009822919964790344,-0.04602706432342529,0.5140604739565733,0.25011592124617005,-0.07743001513481942,0.8168160053684508,0.13103190059088304,-0.5148750190618129,2.052698750315781
1780949272997455872,0.5178937911987305,0.05167706683278084,-0.16630330681800842,0.3499050736427307,-0.4899981617927551,-0.12950432300567627,-0.8620501160621643,-0.008445441722869873,0.012805119156837463,-0.028101801872253418,0.5124624167799063,0.25078265834747404,-0.07799351420742816,0.8175618527531558,0.1298690842197251,-0.5168678265798178,2.056156894613677
1780949273007490816,0.5279288291931152,-0.045636702328920364,-0.20015926659107208,0.360795259475708,-0.4920240342617035,-0.1277998685836792,-0.8611501455307007,0.02006968855857849,-0.0102006196975708,-0.009882569313049316,0.5109325048716318,0.2513997767009572,-0.07888647557499433,0.8182439500745204,0.12815034299029254,-0.5190920310316511,2.05929218120371
1780949273017526016,0.5379638671875,-0.17254112660884857,-0.23983824253082275,0.3703610897064209,-0.4943992793560028,-0.12504860758781433,-0.860193133354187,0.04344102740287781,-0.03326132893562317,0.008554339408874512,0.5094755321037483,0.25188399121744054,-0.08036104769099636,0.8188597324326846,0.12537682447257484,-0.5216492599743817,2.061963956002256
1780949273027560960,0.5479989051818848,-0.2709563970565796,-0.27766457200050354,0.3717443346977234,-0.49708959460258484,-0.12123382836580276,-0.8591881394386292,0.06431981921195984,-0.037701718509197235,0.021144986152648926,0.5081309422239888,0.252213307051596,-0.08242792691551934,0.8193882192155975,0.12153278294380485,-0.5245035738272503,2.0640677114439168
1780949273037595648,0.5580337047576904,-0.27433353662490845,-0.31038710474967957,0.3613734543323517,-0.5000902414321899,-0.11700121313333511,-0.8580329418182373,0.08199942111968994,-0.025683723390102386,0.019196271896362305,0.5068516265625493,0.25257366421555805,-0.08479432767363196,0.8198280109889932,0.11726981683291456,-0.5277013287809715,2.065857855161913
1780949273047631616,0.5680696964263916,-0.23680053651332855,-0.3151516616344452,0.34278297424316406,-0.5032064318656921,-0.11302977055311203,-0.8567423820495605,0.08543604612350464,-0.008903205394744873,0.010001659393310547,0.5055910015735602,0.25306857841533537,-0.08709242161040126,0.8202127065406385,0.1132718375734193,-0.5310650267266163,2.0676246438013877
1780949273057666816,0.5781047344207764,-0.21411387622356415,-0.30534428358078003,0.3221474885940552,-0.5062456727027893,-0.10940589010715485,-0.8554213643074036,0.0727434754371643,-0.004836663603782654,0.011137306690216064,0.5043717695935349,0.2536278450643291,-0.08923140637841216,0.8205606589331188,0.10962532922165262,-0.5343746052104844,2.0693594855956023
1780949273067701760,0.5881397724151611,-0.22998498380184174,-0.29882848262786865,0.3115805983543396,-0.5091671347618103,-0.10593243688344955,-0.8541236519813538,0.0706295371055603,-0.015619084239006042,0.020871639251708984,0.5019899066324405,0.2543096578713543,-0.09091087200404484,0.8216252074597191,0.10613156521512265,-0.5375676847503609,2.073955866755613
1780949273077736960,0.5981748104095459,-0.3013819456100464,-0.29402944445610046,0.30880558490753174,-0.5120363235473633,-0.10208238661289215,-0.8528763055801392,0.07668781280517578,-0.030257083475589752,0.04432833194732666,0.5009011730904765,0.25472880566621015,-0.09314006650727241,0.8219101184764968,0.1022605224983896,-0.5406871556867677,2.075297847956103
1780949273087772928,0.6082108020782471,-0.417490690946579,-0.27011439204216003,0.3073003590106964,-0.5147587656974792,-0.09744006395339966,-0.8517798185348511,0.07713669538497925,-0.054354362189769745,0.07834231853485107,0.4999563306390932,0.25484973989433685,-0.09571675816124485,0.8221518233271837,0.09759492156324936,-0.5435995246637401,2.076093477604161
1780949273097807872,0.6182458400726318,-0.5948873162269592,-0.2597605288028717,0.3214161694049835,-0.5173116326332092,-0.09156017005443573,-0.8508850932121277,0.08365684747695923,-0.08884449303150177,0.10527962446212769,0.49917209375216653,0.25453697664296504,-0.0988351041396337,0.8223563180930529,0.09168858033130231,-0.5462583532071333,2.076189531507645
1780949273107842816,0.6282808780670166,-0.8252824544906616,-0.25839224457740784,0.3424255847930908,-0.5198043584823608,-0.08377015590667725,-0.8501681685447693,0.09977573156356812,-0.13118040561676025,0.13811683654785156,0.49858077592959166,0.25365464314139086,-0.10283594758516537,0.8224969232521181,0.08386844263311873,-0.548769605721843,2.0753112471974524
1780949273117877760,0.6383156776428223,-1.0266735553741455,-0.2777494192123413,0.379915714263916,-0.5223767161369324,-0.07398685067892075,-0.8494989275932312,0.11688965559005737,-0.16685788333415985,0.15246224403381348,0.4981291390707354,0.25225480518882526,-0.10778699750644079,0.8225671629263593,0.0740545165439936,-0.5513203353855791,2.0735257925341437
1780949273127913728,0.6483516693115234,-1.1750504970550537,-0.30572497844696045,0.4272211790084839,-0.5251372456550598,-0.062436364591121674,-0.8487241268157959,0.12911063432693481,-0.18622085452079773,0.1468045711517334,0.4976850712200764,0.25047101162696933,-0.11358793884232299,0.8226005547916339,0.06247700076998613,-0.5540830923336783,2.0711669797553345
1780949273137948672,0.6583867073059082,-1.2865887880325317,-0.31802400946617126,0.4617317318916321,-0.5280419588088989,-0.04958224296569824,-0.8477696180343628,0.13068783283233643,-0.18689846992492676,0.1396549940109253,0.4972047820040267,0.2484185625664429,-0.12001417737979397,0.8226009483381842,0.0496025802344817,-0.5570590813342843,2.068438772702085
1780949273147983872,0.668421745300293,-1.3664779663085938,-0.33401986956596375,0.4873231053352356,-0.531027615070343,-0.03577219322323799,-0.8465991020202637,0.11220437288284302,-0.1844426542520523,0.12169981002807617,0.4966898814345398,0.24616481422830122,-0.12689888497675458,0.8225562925103563,0.035779825793733226,-0.5602142359046625,2.065414549613698
1780949273158018816,0.6784567832946777,-1.451036810874939,-0.34913381934165955,0.5093541741371155,-0.5340868830680847,-0.02115485444664955,-0.8451648950576782,0.08857601881027222,-0.18294671177864075,0.10250437259674072,0.4961356350032688,0.24374948817111153,-0.1341780425618455,0.8224548352985848,0.021156432614870394,-0.5635687487223432,2.0621241584793597
1780949273168054784,0.6884927749633789,-1.5736442804336548,-0.3587191104888916,0.5204169154167175,-0.5371559858322144,-0.005595175549387932,-0.8434643745422363,0.06256186962127686,-0.17415335774421692,0.08673524856567383,0.49560378148979983,0.24109717552205986,-0.14191532081614247,0.8222585372128787,0.005595204779893293,-0.5670716620189746,2.0583672209719364
1780949273178089984,0.6985278129577637,-1.7197476625442505,-0.3781018555164337,0.5027607083320618,-0.5402565598487854,0.011089633218944073,-0.8414273262023926,0.0454750657081604,-0.15044814348220825,0.06428194046020508,0.49519506749530007,0.2381507947086329,-0.15023494921733405,0.8218854272773037,-0.011089860452369373,-0.5707814143530389,2.053811335625019
1780949273188124928,0.7085628509521484,-1.8606009483337402,-0.40439069271087646,0.48227617144584656,-0.5434693098068237,0.028870079666376114,-0.838932454586029,0.02836310863494873,-0.12496992945671082,0.04340022802352905,0.49498981961568767,0.23493723071448802,-0.15918002432320108,0.8212498874317625,-0.028874091159838897,-0.5748345655659343,2.0482118649263192
1780949273198159872,0.7185978889465332,-1.9306331872940063,-0.42678654193878174,0.4776497185230255,-0.5467846393585205,0.047466959804296494,-0.8359267711639404,0.0024272799491882324,-0.1157958135008812,0.01993250846862793,0.49489641630379233,0.23153743448224007,-0.1686032186692562,0.8203907785523644,-0.047484801357100336,-0.5792562009642659,2.041835663026951
1780949273208195840,0.7286338806152344,-1.9485951662063599,-0.4491465985774994,0.4725683927536011,-0.5501788854598999,0.06630785018205643,-0.8324100375175476,-0.013892710208892822,-0.11124497652053833,-0.03447228670120239,0.49479752803691274,0.22811246477810984,-0.1782124865206491,0.8193781076368022,-0.0663565385754408,-0.5840323789204591,2.035118752842219
1780949273218230784,0.73866868019104,-1.9708386659622192,-0.49576789140701294,0.4878259301185608,-0.5537437200546265,0.08531603217124939,-0.8283049464225769,-0.011731743812561035,-0.09206041693687439,-0.0874360203742981,0.4946229260580976,0.22473852316013376,-0.1879896807951812,0.8182302502142279,-0.08541987584447892,-0.5892890065418654,2.0282069698315746
1780949273228265728,0.7487037181854248,-1.9096773862838745,-0.581417441368103,0.4881793260574341,-0.5577201843261719,0.10417506843805313,-0.8234657049179077,-0.010639190673828125,-0.06277797371149063,-0.13414537906646729,0.4942731972336946,0.2216357580961053,-0.19785026182443116,0.8169620242737227,-0.10436442315319779,-0.5953170867368787,2.0213544874409735
1780949273238300928,0.7587387561798096,-1.9010050296783447,-0.7069854736328125,0.4444933533668518,-0.5624840259552002,0.12239619344472885,-0.8176985383033752,-0.031800031661987305,-0.057180121541023254,-0.19696515798568726,0.4937924175461761,0.2191011452102503,-0.20771474769281126,0.8154865439197602,-0.12270387319565286,-0.6025499298864871,2.0144860269302383
1780949273248336896,0.7687747478485107,-2.0128564834594727,-0.8479886651039124,0.3988845944404602,-0.568268895149231,0.14073587954044342,-0.8107181191444397,-0.09716689586639404,-0.05908609926700592,-0.2311519980430603,0.49338206933714385,0.2169873301692471,-0.21807667056619384,0.8135927499884905,-0.1412046535013512,-0.6113599579202017,2.0067066682436403
1780949273258371840,0.7788097858428955,-2.1566879749298096,-0.9551230669021606,0.3705720007419586,-0.5749949812889099,0.15980754792690277,-0.8023978471755981,-0.1859455108642578,-0.07124553620815277,-0.24552994966506958,0.49305823032445595,0.2150791481669031,-0.22922051872554539,0.8112289225259557,-0.16049568472219283,-0.6217775199104436,1.9976664804665236
1780949273268406784,0.7888448238372803,-2.305800199508667,-1.0939178466796875,0.3309236466884613,-0.5825595855712891,0.17968647181987762,-0.7926771640777588,-0.24535179138183594,-0.07945148646831512,-0.2676866054534912,0.49283030721111215,0.2132937823577504,-0.24117873133497084,0.8083667958534079,-0.18066773057807856,-0.6337841862049309,1.9872126890570736
1780949273278441984,0.798879861831665,-2.452019214630127,-1.2920349836349487,0.29308944940567017,-0.5913743376731873,0.20031239092350006,-0.7811218500137329,-0.26389604806900024,-0.07529713213443756,-0.2930053472518921,0.4926182943409929,0.21184878805695712,-0.2540849474171056,0.8049150046133077,-0.20167676898698553,-0.6480190348221073,1.9752448141991572
1780949273288476928,0.8089148998260498,-2.62126088142395,-1.5025086402893066,0.22226747870445251,-0.6016979217529297,0.22153031826019287,-0.7673877477645874,-0.2736225128173828,-0.05765092372894287,-0.3011394739151001,0.4924230250886801,0.21089193495620415,-0.26801254815711917,0.8007580423297469,-0.22338350098533713,-0.6649616357339465,1.9615011821713932
1780949273298512896,0.818950891494751,-2.887547016143799,-1.6750491857528687,0.144539937376976,-0.6133953928947449,0.2436755746603012,-0.7512445449829102,-0.3078539967536926,-0.03327213227748871,-0.27153682708740234,0.4923986433068569,0.21019549687282832,-0.2831882259561184,0.795717281253907,-0.24615387008185136,-0.6847246000637828,1.9452028019748508
1780949273308547840,0.8289856910705566,-2.9586379528045654,-1.8136132955551147,0.057954177260398865,-0.6261523365974426,0.26613175868988037,-0.7328758835792542,-0.3576275706291199,-0.03370988368988037,-0.20685184001922607,0.4925416942747678,0.2097533749106336,-0.299275067656116,0.7898357953872981,-0.2693778311652091,-0.7070296741416273,1.926481333655635
1780949273318582784,0.8390207290649414,-2.988459348678589,-1.9016358852386475,-0.007097526453435421,-0.6396155953407288,0.28782540559768677,-0.7127752304077148,-0.404238224029541,-0.05732613801956177,-0.14748477935791016,0.49270222556006116,0.20973479478332405,-0.3156322311931942,0.7833468107903762,-0.2919553746661734,-0.7313543100364801,1.9062222143656198
1780949273328618752,0.8490567207336426,-3.0176563262939453,-1.9069279432296753,-0.03611932694911957,-0.6531412601470947,0.3088221251964569,-0.6914011240005493,-0.4151875972747803,-0.02343699336051941,-0.08498132228851318,0.49286024985928656,0.20981984066645615,-0.3320769272413686,0.7763951838198478,-0.31395438568653283,-0.7569501835974238,1.8846410308937904
1780949273338653696,0.8590917587280273,-3.0505292415618896,-1.8643200397491455,-0.0577913299202919,-0.6661806702613831,0.32922032475471497,-0.6691915988922119,-0.38557714223861694,0.04042387008666992,-0.059369802474975586,0.493019265140989,0.20971422112138918,-0.3484596674188314,0.7691085458309698,-0.33547773881922693,-0.7831433999629311,1.8619068675775137
1780949273348688896,0.8691267967224121,-3.0709171295166016,-1.8368620872497559,-0.13012172281742096,-0.6786863803863525,0.3487645387649536,-0.6463343501091003,-0.3250672221183777,0.103536456823349,-0.05079394578933716,0.49327990686696305,0.20941264473142396,-0.36466310302186544,0.7614735826114373,-0.35625254771077697,-0.8098095550744203,1.8379277363892497
1780949273358723840,0.8791618347167969,-3.1196608543395996,-1.856887936592102,-0.2114136517047882,-0.6910919547080994,0.36722511053085327,-0.622525155544281,-0.25148916244506836,0.13765767216682434,-0.019213736057281494,0.49375238300069113,0.20910987062053926,-0.3808024357455945,0.753306752355003,-0.37602391589686124,-0.8375478132572861,1.8122367868285267
1780949273368759040,0.8891968727111816,-3.1418094635009766,-1.8433729410171509,-0.22808369994163513,-0.7032989263534546,0.3847959041595459,-0.5977481007575989,-0.18963009119033813,0.1395113468170166,0.03364592790603638,0.4942675905579008,0.20876411363496622,-0.3969174998075405,0.7446970560931306,-0.3949867037210292,-0.86634851102516,1.7851224150773646
1780949273378795008,0.8992328643798828,-3.177215576171875,-1.7819775342941284,-0.23479034006595612,-0.7148768901824951,0.40162795782089233,-0.5724037289619446,-0.12296795845031738,0.11251690983772278,0.045990824699401855,0.4947520709775122,0.20815910064403265,-0.41287760760440173,0.7358140188889482,-0.4132937982943036,-0.895627142239801,1.7569586589130108
1780949273388829952,0.9092679023742676,-3.29445743560791,-1.774902105331421,-0.2541363537311554,-0.7258726954460144,0.4178984463214874,-0.5463238954544067,-0.035678207874298096,0.07509776949882507,0.07565128803253174,0.49529595387980513,0.20719068307075722,-0.42884736934630974,0.7265287079555556,-0.43113084640403976,-0.9256050437678662,1.7272342212118668
1780949273398864640,0.9193027019500732,-3.270648717880249,-1.8081495761871338,-0.23387128114700317,-0.7365283370018005,0.4336758255958557,-0.5190870761871338,0.06517213582992554,0.024621903896331787,0.12414383888244629,0.49568607892866534,0.20604168695281427,-0.4449756166926628,0.7168256058226116,-0.4485682129637032,-0.9568725954952877,1.6960689172955024
1780949273408900864,0.9293386936187744,-3.18564510345459,-1.8027536869049072,-0.20366358757019043,-0.7466986179351807,0.4483427107334137,-0.4913550615310669,0.15909796953201294,-0.03638598322868347,0.14487379789352417,0.49569343687804074,0.2050061289117313,-0.46075476341570004,0.7070823240907506,-0.4649103993596531,-0.988792175023546,1.6648935805536045
1780949273418935808,0.9393737316131592,-3.1222875118255615,-1.7525097131729126,-0.175659641623497,-0.7560946345329285,0.4620121121406555,-0.46353623270988464,0.25856655836105347,-0.03464394807815552,0.15326398611068726,0.4954304091080327,0.2038750216214008,-0.4760954288924521,0.6973642584342412,-0.480262618272915,-1.0208245040285573,1.6337147276860102
1780949273428970752,0.949408769607544,-3.024413585662842,-1.7445400953292847,-0.15528327226638794,-0.7647563815116882,0.4746188819408417,-0.43575748801231384,0.37835806608200073,0.006856948137283325,0.13660889863967896,0.49491738632759474,0.202700096058361,-0.4909520558166289,0.6877030955854223,-0.4945309999115905,-1.0528794447530043,1.6026649639268338
1780949273439005952,0.9594438076019287,-2.9271111488342285,-1.7686455249786377,-0.14809459447860718,-0.7729280591011047,0.48602327704429626,-0.4078769385814667,0.49631673097610474,0.046432167291641235,0.11330598592758179,0.49407128196941774,0.20172179136737914,-0.5053413221055791,0.6781091626526633,-0.5075336529320228,-1.0852322377940717,1.5719948397249148
1780949273449040896,0.9694788455963135,-2.7965877056121826,-1.8075597286224365,-0.13755246996879578,-0.7807080745697021,0.49619993567466736,-0.3798427879810333,0.5889508724212646,0.05371156334877014,0.11444664001464844,0.4928487564538865,0.20105717747304627,-0.5192827921159706,0.6685966692708528,-0.519216363597019,-1.1179776083333781,1.5418718025539186
1780949273459076864,0.9795148372650146,-2.8167152404785156,-1.8186854124069214,-0.1104380339384079,-0.7879917025566101,0.5054846405982971,-0.3515028655529022,0.6488468647003174,0.011345744132995605,0.10020586848258972,0.49129336511327737,0.20052181728227844,-0.5329536248915389,0.6590767807149679,-0.5299435581186034,-1.1512117864625286,1.5118661847512207
1780949273469111808,0.9895498752593994,-2.954502582550049,-1.8097434043884277,-0.08974020928144455,-0.7946440577507019,0.514415979385376,-0.32236143946647644,0.6895415782928467,-0.04362136125564575,0.09561583399772644,0.4896087765025004,0.19965973470932863,-0.5467680169493571,0.6492024811279786,-0.5403264806721981,-1.1854135315120409,1.4804804849965882
1780949273479146752,0.9995846748352051,-3.1219053268432617,-1.767591118812561,-0.06006833538413048,-0.800570547580719,0.5231844782829285,-0.2921724021434784,0.7207518815994263,-0.11113619804382324,0.08848288655281067,0.48789357829938584,0.19821965809739006,-0.5609124393782093,0.6387848147967871,-0.5505833977648344,-1.2208609912438844,1.4468894483334576
1780949273489182976,1.0096209049224854,-3.2729525566101074,-1.6930387020111084,-0.04991023987531662,-0.8056628704071045,0.5316290259361267,-0.2613007724285126,0.7536303400993347,-0.1705755591392517,0.08306288719177246,0.48630659913852936,0.19604800082349927,-0.5752519426643603,0.6278187282214558,-0.5605227323751327,-1.257170385015942,1.410941357381101
1780949273499217664,1.019655704498291,-3.426337242126465,-1.6469188928604126,-0.024963341653347015,-0.8099846839904785,0.5395510196685791,-0.2298034280538559,0.782808780670166,-0.2032015323638916,0.09166562557220459,0.4848295662765952,0.19321301825157527,-0.589717743317204,0.6163133177844164,-0.5699037701185611,-1.2943476220948795,1.3727555247099636
1780949273509252864,1.0296907424926758,-3.6240670680999756,-1.6436290740966797,0.031001921743154526,-0.8134927153587341,0.5471157431602478,-0.1972160041332245,0.8144234418869019,-0.22861897945404053,0.09194561839103699,0.48328524999541006,0.1896815464077638,-0.6044939256404654,0.6041883132697001,-0.5789146309181755,-1.332953842216866,1.3320455883060727
1780949273519287808,1.0397257804870605,-3.80303955078125,-1.662143349647522,0.09138830006122589,-0.8161495923995972,0.5543338656425476,-0.1631375402212143,0.8272579908370972,-0.2768833041191101,0.08717930316925049,0.48152189529558515,0.18545827938631415,-0.6197067509782418,0.5913589772144452,-0.587562382560234,-1.373509601493329,1.2885573816255413
1780949273529323776,1.0497617721557617,-3.852736473083496,-1.6611309051513672,0.1631639450788498,-0.8178607821464539,0.5609918832778931,-0.12803098559379578,0.8037464022636414,-0.33760321140289307,0.04818171262741089,0.4794310507958937,0.1806877404923359,-0.6350877454716993,0.5780670013519128,-0.5955835325655199,-1.4155128560227546,1.2431815745689805
1780949273539358976,1.0597968101501465,-3.892261028289795,-1.6559768915176392,0.2564113438129425,-0.8185404539108276,0.5669503808021545,-0.09251439571380615,0.7404917478561401,-0.38437896966934204,-0.0035396814346313477,0.47695038485170754,0.17550568081982032,-0.6503388019194491,0.5646021587971215,-0.6027990073526026,-1.4582503284395476,1.1969355427482433
1780949273549393920,1.0698318481445312,-3.9875948429107666,-1.5916846990585327,0.4279061257839203,-0.8178067803382874,0.5727022290229797,-0.05660608038306236,0.6557890176773071,-0.41140156984329224,-0.03551119565963745,0.4740401125578107,0.16952280975646292,-0.6655516340878337,0.5509891396147072,-0.6097984163638575,-1.5016896157324493,1.1493545664831726
1780949273559428864,1.079866886138916,-3.974839687347412,-1.5178799629211426,0.586587131023407,-0.815471351146698,0.5784223675727844,-0.020835742354393005,0.5423389673233032,-0.43028998374938965,-0.0943986177444458,0.47072505993017183,0.16259671149599367,-0.6805471607832326,0.5374345230182573,-0.6167933862677885,-1.5452513340690426,1.100773547855147
1780949273569464832,1.0899028778076172,-4.014760971069336,-1.4652515649795532,0.7744039297103882,-0.8115696310997009,0.584072470664978,0.014630965888500214,0.4054417610168457,-0.4584011435508728,-0.11933672428131104,0.46693555921970875,0.15486583141344498,-0.6952208692386317,0.5240760214982445,-0.6237368609190207,-1.5888223596401774,1.0516430203967153
1780949273579499776,1.0999376773834229,-4.097426891326904,-1.4803112745285034,0.9548690319061279,-0.805980920791626,0.5897877812385559,0.05045045539736748,0.24227547645568848,-0.4762166142463684,-0.07765686511993408,0.46259035306616975,0.14613351959016482,-0.7098381663080137,0.5106711106155649,-0.6307960192214302,-1.6333098663962498,1.0008909355003506
1780949273589534720,1.1099727153778076,-3.939526081085205,-1.5295931100845337,1.10521399974823,-0.7988237142562866,0.595302164554596,0.08657941967248917,0.001979231834411621,-0.5090442299842834,-0.05593979358673096,0.45741685534540494,0.136949574544362,-0.7242475578046539,0.4974737165903583,-0.6376416516507305,-1.6787585392827522,0.9497766661539321
1780949273599569920,1.1200077533721924,-3.871584415435791,-1.4164127111434937,1.4325721263885498,-0.7897738814353943,0.601188063621521,0.12177979201078415,-0.34001749753952026,-0.5584023594856262,-0.08166442811489105,0.4514765685921955,0.12714579404916476,-0.7380540923349256,0.48505575143388274,-0.6449870261916871,-1.7237871754019103,0.8993984249944316
1780949273609605888,1.1300437450408936,-3.727583885192871,-1.0795338153839111,2.1072092056274414,-0.7773919105529785,0.6096289157867432,0.154966801404953,-0.735547661781311,-0.5872747302055359,-0.1427750438451767,0.44488227140159503,0.11503149634535229,-0.7511665292612965,0.4739161402771731,-0.6555923996796741,-1.7675590422792136,0.8480127600658582
1780949273619640832,1.1400787830352783,-3.241386890411377,-0.7337900400161743,2.8428077697753906,-0.7605323195457458,0.622839629650116,0.18346992135047913,-0.9951133131980896,-0.5878818035125732,-0.28356754779815674,0.43751112188778607,0.10000634926990142,-0.7627146865544373,0.46567047255801697,-0.67236710903969,-1.8075123348264843,0.7978036220036697
1780949273629675776,1.150113821029663,-2.787630319595337,-0.4777390956878662,3.439873695373535,-0.739359974861145,0.6406616568565369,0.2071213573217392,-0.9401291012763977,-0.42717599868774414,-0.3822007477283478,0.4292550409397611,0.08269059483378845,-0.7724784428433312,0.46062928997965574,-0.695359722072428,-1.843931161986881,0.7496978239931875
1780949273639710976,1.1601488590240479,-2.2945120334625244,-0.44727280735969543,3.741041421890259,-0.7148212790489197,0.6614701747894287,0.22690880298614502,-0.5863413214683533,-0.1840837597846985,-0.3172255754470825,0.4201721604057102,0.0642118748718398,-0.7805967178281612,0.4582585801195628,-0.7227774152651193,-1.8781701659310903,0.7038368489480112
1780949273649746944,1.170184850692749,-1.785999059677124,-0.7324160933494568,3.888490915298462,-0.6876689791679382,0.6835390329360962,0.24471595883369446,-0.20907479524612427,-0.11049520969390869,-0.23092198371887207,0.4096680948519457,0.04629499689372842,-0.7875371433266825,0.45805472818859816,-0.7526002916662102,-1.9126847513817835,0.661208138209655
1780949273659781888,1.1802198886871338,-1.5400673151016235,-1.0680060386657715,3.8815436363220215,-0.6581991910934448,0.705707311630249,0.26220420002937317,0.07458102703094482,-0.10774588584899902,-0.13784503936767578,0.39746119684410697,0.029541054966437125,-0.7938699030737447,0.4592629928601126,-0.7834209361732402,-1.9498933100044178,0.6205489769656303
1780949273669816832,1.1902546882629395,-1.275371789932251,-1.3565102815628052,3.648289203643799,-0.6277806162834167,0.7261847257614136,0.28026312589645386,0.2588077783584595,-0.0605505108833313,-0.08897897601127625,0.3840526059295414,0.014466858919446334,-0.7999514196430866,0.4608384755458265,-0.8127560534835988,-1.9906814905029124,0.5806117368519886
1780949273679851776,1.2002897262573242,-0.8124292492866516,-1.5176740884780884,3.442728281021118,-0.5975030660629272,0.7448984384536743,0.2968441843986511,0.37679994106292725,-0.015940308570861816,-0.09262049198150635,0.3700908445626712,0.0015924414671764713,-0.8052450251791283,0.46326092815226133,-0.8403825741502242,-2.0318869093500838,0.5442723607837268
1780949273689887744,1.2103257179260254,-0.4547227621078491,-1.6437970399856567,3.313231945037842,-0.5671241879463196,0.7627624273300171,0.3107464909553528,0.47593772411346436,-0.0009522438049316406,-0.13028088212013245,0.3557845643889696,-0.00951672202603461,-0.8094953224884287,0.4669518122497391,-0.8675741254881265,-2.0720517969601917,0.5120692210732712
1780949273699922688,1.2203607559204102,-0.43124377727508545,-1.8310127258300781,3.1619341373443604,-0.5365056991577148,0.7793407440185547,0.323712021112442,0.5273810029029846,-0.0033246278762817383,-0.16117540001869202,0.34103627420918625,-0.019356955072833828,-0.8133150200547804,0.4709970001767244,-0.8936129690166261,-2.113690870458863,0.48074958654430616
1780949273709957888,1.230395793914795,-0.2860301434993744,-2.1606898307800293,2.9874649047851562,-0.5056090950965881,0.7941793203353882,0.3371035158634186,0.5213408470153809,-0.024403810501098633,-0.19415923953056335,0.32554364217922455,-0.027845087643305132,-0.8171758766572985,0.47483643082251314,-0.9176559053941183,-2.158841091779594,0.448775762798433
1780949273719992832,1.2404308319091797,-0.19440194964408875,-2.272819995880127,2.867736339569092,-0.4744815230369568,0.8077611923217773,0.34984222054481506,0.47329121828079224,-0.022192776203155518,-0.1912727653980255,0.30938514053806787,-0.03487282135698816,-0.8207953453961769,0.47891531917020763,-0.9403444332420322,-2.206129334228769,0.417609962078731
1780949273730028800,1.2504668235778809,-0.19431300461292267,-2.250619888305664,2.856562614440918,-0.4429926872253418,0.8202329874038696,0.36190539598464966,0.4166102409362793,0.008899092674255371,-0.026379823684692383,0.2930466227029067,-0.041459567014424666,-0.8241564200194142,0.4828778999635784,-0.9618182474849241,-2.2557909319741323,0.38470234861250413
1780949273740064000,1.2605018615722656,-0.221391499042511,-2.1638598442077637,2.8988609313964844,-0.41102319955825806,0.831798791885376,0.3730558753013611,0.38398465514183044,-0.019481956958770752,0.1631685197353363,0.2769082344255727,-0.04836473762134793,-0.8271570543205834,0.48661473833265345,-0.9823405170009707,-2.3078094519874757,0.3483703705455988
1780949273750098944,1.2705368995666504,-0.3129517734050751,-2.2258353233337402,2.833192825317383,-0.378612220287323,0.842211902141571,0.38383838534355164,0.3740498423576355,-0.07121580839157104,0.3233301639556885,0.2606932721747221,-0.05523117703264316,-0.8299811543303175,0.49002021536409807,-1.0013727292375394,-2.3630488326844685,0.30870884701782186
1780949273760133632,1.280571699142456,-0.5866288542747498,-2.2840077877044678,2.840085029602051,-0.3457193374633789,0.8507291674613953,0.39590170979499817,0.3442544639110565,-0.04277616739273071,0.5094022154808044,0.24416026646240546,-0.062059537551827915,-0.8331263261898322,0.4923768527085733,-1.0173710637904823,-2.4237573123479073,0.2637586503274071
1780949273770169856,1.2906076908111572,-0.6971745491027832,-2.3168883323669434,2.7997512817382812,-0.31218329071998596,0.8574268817901611,0.4090976417064667,0.2597082853317261,0.04888427257537842,0.5608730912208557,0.22730622403203019,-0.06897899217143816,-0.8365349439941869,0.4937439608553114,-1.030248435055126,-2.48975877130026,0.21353956000248495
1780949273780204800,1.300642728805542,-0.5934995412826538,-2.3071463108062744,2.6989450454711914,-0.2788124680519104,0.8628111481666565,0.42168763279914856,0.10844811797142029,0.17440497875213623,0.41336485743522644,0.2105323164021885,-0.07555042346900381,-0.8397237370029733,0.4948053024562039,-1.0408043503290383,-2.5573964342375572,0.16184869365609886
1780949273790239744,1.3106777667999268,-0.16560491919517517,-2.1725268363952637,2.593971014022827,-0.24613484740257263,0.8681358098983765,0.4309960901737213,-0.05109107494354248,0.335355281829834,0.1694067120552063,0.19425775226048006,-0.0814991563393068,-0.8419358206477734,0.49675528343012976,-1.0514339393707728,-2.6227065357512345,0.1125891588681119
1780949273800275712,1.320713758468628,0.10599250346422195,-1.8550974130630493,2.426344394683838,-0.21535423398017883,0.8738918900489807,0.4358161687850952,-0.15978309512138367,0.4745120406150818,0.048696160316467285,0.17942795804539283,-0.0871091234616239,-0.8428048879588247,0.49989758343288226,-1.0631516024931922,-2.682643943991763,0.06702785424814296
1780949273810310912,1.3307487964630127,0.407319575548172,-1.705978512763977,2.189868927001953,-0.18732436001300812,0.8796372413635254,0.4372047185897827,-0.14147202670574188,0.5826277732849121,0.09503710269927979,0.16627729019677093,-0.0922213668430998,-0.8426728819339122,0.5037355770985007,-1.0750990321898302,-2.736795743559837,0.025430694933358686
1780949273820345856,1.3407838344573975,0.7512465715408325,-1.788163423538208,1.9743512868881226,-0.16127480566501617,0.8858238458633423,0.43509384989738464,-0.031993016600608826,0.6269019842147827,0.14611339569091797,0.1539208039923074,-0.096137154463883,-0.8416083212599221,0.5086860546503361,-1.0882664675044513,-2.7866264379749803,-0.011260326102396018
1780949273830380800,1.3508188724517822,0.9483152031898499,-1.8233211040496826,1.7612667083740234,-0.1367369443178177,0.892363429069519,0.4301050007343292,0.06038196384906769,0.6427316665649414,0.2763006091117859,0.14188220425350948,-0.09869393981333412,-0.8398285618644733,0.5146036033227244,-1.1025551056719114,-2.8337819575665133,-0.043765419547956784
1780949273840417024,1.3608548641204834,1.1873153448104858,-1.7093867063522339,1.5691137313842773,-0.11417169123888016,0.8989741802215576,0.4228598475456238,0.07283562421798706,0.6485570669174194,0.4529946446418762,0.1306094752950978,-0.10036276319898425,-0.8374707433679001,0.5210674583360918,-1.1174217626310925,-2.877881862706143,-0.07309917825128591
1780949273850451968,1.3708899021148682,1.3437446355819702,-1.527550220489502,1.37979257106781,-0.09398013353347778,0.9058361053466797,0.4130723476409912,-0.0006853938102722168,0.6133899688720703,0.5427534580230713,0.12054243719137156,-0.10147227410719079,-0.834409706357858,0.5281414315810886,-1.133349249234237,-2.9178857446033994,-0.09933509077638124
1780949273860486656,1.3809247016906738,1.7128771543502808,-1.2040760517120361,1.1442795991897583,-0.07690611481666565,0.9132715463638306,0.4000250995159149,-0.09705933183431625,0.5791140794754028,0.5738364458084106,0.11226848579161416,-0.10217714413249636,-0.830404949219528,0.5360812360259551,-1.1512444355683695,-2.9516568956591183,-0.12138941862637254
1780949273870521856,1.3909597396850586,1.9321495294570923,-0.8314306735992432,0.931854784488678,-0.0632404312491417,0.9211112260818481,0.38412901759147644,-0.1753765046596527,0.5399942398071289,0.5875508189201355,0.10610275642124721,-0.10275939148345119,-0.8255331697051708,0.5446813971064528,-1.1709253487044398,-2.978423025142635,-0.1393620998056194
1780949273880557824,1.4009957313537598,2.0649168491363525,-0.5796863436698914,0.7044197916984558,-0.05304807424545288,0.9292433857917786,0.36563989520072937,-0.19725710153579712,0.5221115350723267,0.38815948367118835,0.10203464443009022,-0.10314871855442401,-0.8198660148926921,0.5538672763534412,-1.192359730737632,-2.9975150915766147,-0.15245402514084813
1780949273890592768,1.4110307693481445,1.7308754920959473,-0.4271383583545685,0.5093650817871094,-0.04560398682951927,0.9364120960235596,0.3479268252849579,-0.17543482780456543,0.48128223419189453,0.4489634931087494,0.09929963420564224,-0.10327433998674401,-0.8144309784035805,0.5622955803366471,-1.2122618589527112,-3.0112621322588913,-0.16185637422886226
1780949273900627968,1.4210658073425293,1.5202791690826416,-0.3768855631351471,0.29395684599876404,-0.04040427878499031,0.9420244693756104,0.3331024646759033,-0.13848976790905,0.5113140940666199,0.4282653033733368,0.09733344530458833,-0.10300363379189528,-0.8099021435053231,0.5691879428720907,-1.228613474760124,-3.020885484372751,-0.16780978602012356
1780949273910662912,1.431100845336914,1.7426278591156006,-0.32049235701560974,0.030817098915576935,-0.03768625855445862,0.9473718404769897,0.3179098069667816,-0.14400014281272888,0.5482184886932373,0.2865976393222809,0.0962581225330281,-0.10187041528133892,-0.8053429831439718,0.5760030988159472,-1.2449239792381686,-3.0235994367936336,-0.1669265527197468
1780949273920698880,1.4411368370056152,2.0169026851654053,-0.20948299765586853,-0.1718369424343109,-0.03756145015358925,0.9531625509262085,0.3001169264316559,-0.15097615122795105,0.5769582390785217,0.25052687525749207,0.09632357243227022,-0.09985779031721856,-0.8000543006646195,0.5836636638038094,-1.2635254566755596,-3.0170840113635777,-0.1571708706145263
1780949273930733824,1.451171875,2.3554625511169434,-0.028006818145513535,-0.3184777796268463,-0.03960174694657326,0.9594248533248901,0.2791694402694702,-0.12537628412246704,0.5534535050392151,0.3367057740688324,0.0976739738135804,-0.09746099813307631,-0.793779616159136,0.5923470540070398,-1.2849552572502057,-3.000677252698653,-0.13880075458284322
1780949273940768768,1.4612066745758057,2.567958116531372,0.11438041925430298,-0.46150097250938416,-0.043498970568180084,0.9659150242805481,0.255178302526474,-0.08803179860115051,0.4376799464225769,0.3974553346633911,0.10022396723186157,-0.0948184416503777,-0.7865104062748034,0.6019684284566377,-1.3089552179143595,-2.9727505968746275,-0.11027563616896591
1780949273950804992,1.471242904663086,2.1546688079833984,0.25735101103782654,-0.5654531717300415,-0.04891705885529518,0.9715596437454224,0.23168806731700897,-0.05456804856657982,0.2703990936279297,0.441346675157547,0.10362518020707101,-0.09213160544976069,-0.7793303557969841,0.6110793183137585,-1.331730614645667,-2.9335153056234815,-0.0716653311199173
1780949273960839680,1.4812777042388916,1.3201452493667603,0.3937288224697113,-0.777463972568512,-0.05613866448402405,0.9751183986663818,0.2144581377506256,-0.033491458743810654,0.08989912271499634,0.3750041127204895,0.10775643006588376,-0.08964047570340986,-0.7740759981432346,0.6173810749858727,-1.3472545932657451,-2.885567558035867,-0.025821208795162687
1780949273970874880,1.4913127422332764,0.4297223687171936,0.42227140069007874,-0.9897365570068359,-0.06574221700429916,0.9764195680618286,0.20562826097011566,-0.026649758219718933,-0.07598304748535156,0.25735393166542053,0.11252892175051493,-0.08699796149613902,-0.7715215389189759,0.6200993537800411,-1.3532018838754147,-2.8321492499921352,0.024629956633995764
1780949273980911104,1.5013489723205566,-0.5166931748390198,0.3680393099784851,-1.105011224746704,-0.07687614113092422,0.9755643010139465,0.20582658052444458,0.008501507341861725,-0.11736410856246948,0.20722892880439758,0.11732565618853133,-0.0841911986904596,-0.771897100006417,0.6191296206344598,-1.3492748684417433,-2.7841380862056755,0.06971821252585277
1780949273990947072,1.5113849639892578,-1.168910264968872,0.2866467237472534,-1.1888539791107178,-0.08880466222763062,0.9727693200111389,0.21408778429031372,0.041990697383880615,-0.026831209659576416,0.162209153175354,0.1217937327007225,-0.08126829495061508,-0.7748802204528065,0.6149165751255594,-1.3368939122788102,-2.7483889231926826,0.10303860946601741
1780949274000982016,1.5214200019836426,-1.4265773296356201,0.3232335150241852,-1.2061700820922852,-0.1011851355433464,0.9687179327011108,0.22659915685653687,0.028675377368927002,0.04570162296295166,0.11269521713256836,0.12611622188631258,-0.07829889115822662,-0.7792104076755458,0.6089294905673224,-1.32001133789324,-2.7216214357295727,0.12755622163016145
1780949274011016960,1.5314550399780273,-1.662921667098999,0.41055828332901,-1.2292327880859375,-0.11381974816322327,0.9637879729270935,0.24115876853466034,-0.024806343019008636,0.04335302114486694,0.1095491349697113,0.13062370195036832,-0.07561322721826737,-0.7841313830491027,0.6019617491745163,-1.3008602966191691,-2.7006192860572136,0.14556020655844093
1780949274021052160,1.541490077972412,-1.7089229822158813,0.5722454786300659,-1.2932730913162231,-0.12718407809734344,0.9579914212226868,0.2570546567440033,-0.08178506791591644,0.034120023250579834,0.15519219636917114,0.1357051431745468,-0.07326695960621056,-0.7894043838397505,0.5941859535449818,-1.2799146985317238,-2.682134226682792,0.159652558816066
1780949274031088128,1.5515260696411133,-1.4016932249069214,0.6572913527488708,-1.3583498001098633,-0.14159497618675232,0.9520109295845032,0.27134084701538086,-0.07962694764137268,0.09516912698745728,0.11199042201042175,0.14154604671287024,-0.07091147309949457,-0.7941296993445366,0.5867658955078836,-1.259740420577279,-2.6606305193345725,0.17564626230827182
1780949274041123072,1.561561107635498,-0.8916625380516052,0.6599739789962769,-1.3347398042678833,-0.1563119739294052,0.946802020072937,0.281305193901062,-0.023482337594032288,0.190191388130188,0.07773411273956299,0.14775287027625936,-0.06829245671287397,-0.7974890202952546,0.5809617325609396,-1.2431487727977557,-2.6344090955361006,0.1962520631025414
1780949274051158016,1.5715959072113037,-0.581832766532898,0.6606224775314331,-1.316320538520813,-0.17074574530124664,0.942577064037323,0.28704479336738586,0.03404223918914795,0.18039363622665405,0.03738763928413391,0.15399607394870624,-0.06544230522892006,-0.7995246757424381,0.5768560707577665,-1.2302641022469751,-2.6049758880816714,0.22041531614062307
1780949274061193984,1.5816318988800049,-0.43379828333854675,0.6752970218658447,-1.3117692470550537,-0.1851016879081726,0.9387590885162354,0.2906351089477539,0.0694553405046463,0.07601141929626465,0.009261131286621094,0.16032241131307004,-0.06250081276291605,-0.8008815167446959,0.5735670758365101,-1.2190112027687217,-2.574491083184128,0.2456616791247802
1780949274071228928,1.5916669368743896,-0.4723518192768097,0.5905958414077759,-1.3067729473114014,-0.19928568601608276,0.9349440336227417,0.2935389280319214,0.10173620283603668,-0.05789923667907715,-0.0613764226436615,0.16650707742732582,-0.05941737487075779,-0.8020218484993139,0.5705313375673068,-1.2081012585633517,-2.545163687575102,0.2701516534012229
1780949274081264128,1.6017019748687744,-0.6506874561309814,0.5334707498550415,-1.3132877349853516,-0.2132171392440796,0.9305617809295654,0.29764625430107117,0.11665953695774078,-0.12196803092956543,-0.07682108879089355,0.17233427157533027,-0.056204823160842195,-0.8035322912147186,0.566990123516562,-1.1959442190535714,-2.519981487623127,0.2911453503451696
1780949274091299072,1.6117370128631592,-0.8204929828643799,0.5170591473579407,-1.3052905797958374,-0.2270088493824005,0.925437867641449,0.30336761474609375,0.10522842407226562,-0.11772900819778442,-0.07453152537345886,0.17795902116934412,-0.053039442326345054,-0.8055250574046423,0.5627138344426197,-1.1821896363336142,-2.4991828214458103,0.3079062643152021
1780949274101335040,1.6217730045318604,-0.9266204833984375,0.5077522397041321,-1.2862417697906494,-0.24057984352111816,0.919680655002594,0.3103370666503906,0.08413144946098328,-0.06862157583236694,-0.08166882395744324,0.18344117011574113,-0.05002909277015324,-0.8078772323412327,0.5578359238319089,-1.1672664888556379,-2.48214447031224,0.32081952024830424
1780949274111369984,1.6318080425262451,-0.948101282119751,0.5516770482063293,-1.2430695295333862,-0.25390782952308655,0.9135676622390747,0.31768640875816345,0.07719585299491882,-0.017480194568634033,-0.09728854894638062,0.1888841448338321,-0.047226219532317995,-0.8103165337385478,0.5527019868685175,-1.1519719566203692,-2.4673149887573964,0.3312295519561661
1780949274121405184,1.6418430805206299,-0.9070332050323486,0.5450968742370605,-1.156104564666748,-0.26669690012931824,0.9073826670646667,0.32485291361808777,0.07942581176757812,-3.409385681152344e-05,-0.14588263630867004,0.19425229693378399,-0.0447670295565667,-0.8126637529864846,0.5475761005630101,-1.1370144389404138,-2.454190889511866,0.3395162808851312
1780949274131439872,1.6518778800964355,-0.9050737023353577,0.4287922978401184,-1.0697888135910034,-0.2783559262752533,0.9014337062835693,0.331564337015152,0.08772793412208557,-0.015111863613128662,-0.17381900548934937,0.1990712092534728,-0.04244097026592785,-0.8148502482879757,0.5427599522606463,-1.1230699324481157,-2.443212468194231,0.34627323288353734
1780949274141476096,1.6619141101837158,-0.9108636379241943,0.5122312903404236,-0.9772772192955017,-0.28920218348503113,0.8953372240066528,0.33872276544570923,0.07504507899284363,0.008593320846557617,-0.12508442997932434,0.203584280635906,-0.040457420159904424,-0.8171441627082003,0.5377657020866585,-1.1091877148726885,-2.4348954560401923,0.3502852926151259
1780949274151511040,1.6719489097595215,-0.6751065254211426,0.4254309833049774,-0.8469825983047485,-0.2990086078643799,0.8899616599082947,0.3443281650543213,0.06104782223701477,-0.02843528985977173,-0.15939167141914368,0.2077831397904354,-0.038718748697392086,-0.8189413557082542,0.5335372711480696,-1.0972611311045521,-2.4265228279297717,0.35450863684571104
1780949274161545984,1.6819839477539062,-0.5360671281814575,0.5208302140235901,-0.7283382415771484,-0.30758100748062134,0.8854296207427979,0.348436564207077,0.052026838064193726,-0.07711070775985718,-0.08583289384841919,0.2116956340520186,-0.037455057183571165,-0.820253250519433,0.5300628189457208,-1.0874176159096645,-2.418392303823947,0.3582787252964822
1780949274171581952,1.6920199394226074,-0.2842889726161957,0.4904974699020386,-0.7149659991264343,-0.31577953696250916,0.8817517757415771,0.35042381286621094,0.06188860535621643,-0.0723799467086792,-0.11304286122322083,0.21563551525104724,-0.036259630387771344,-0.8209123818326861,0.52753136632262,-1.079563078052864,-2.408150213057517,0.3640905958492502
1780949274181616896,1.7020549774169922,-0.21024003624916077,0.49678972363471985,-0.6896065473556519,-0.3236987888813019,0.8786463141441345,0.35099831223487854,0.07675054669380188,-0.08474677801132202,-0.1038517951965332,0.2194665900239386,-0.03493491278986027,-0.8211447545610231,0.5256760245720487,-1.073019655858307,-2.396634329988864,0.371576812533888
1780949274191652096,1.712090015411377,-0.1001896932721138,0.5136917233467102,-0.66179358959198,-0.3314647376537323,0.8758798241615295,0.35066449642181396,0.07964897155761719,-0.040598511695861816,-0.09822311997413635,0.22332363129794133,-0.033646896937404615,-0.8210969050825906,0.5242082479314039,-1.067256190274844,-2.3843338678686155,0.3797801383041049
1780949274201687040,1.7221250534057617,-0.1518949717283249,0.4615640640258789,-0.6243205070495605,-0.3387921154499054,0.8733216524124146,0.3500412106513977,0.06968814134597778,-0.0316469669342041,-0.11957255005836487,0.22699872513007419,-0.032432755145575434,-0.8209559840315902,0.5229252701456316,-1.0619798135086003,-2.372523714176645,0.38766748774964355
1780949274211723008,1.732161045074463,-0.1860518753528595,0.42977020144462585,-0.6252374053001404,-0.34582120180130005,0.87054044008255,0.35009634494781494,0.06080225110054016,-0.0646016001701355,-0.08151111006736755,0.23043514515891286,-0.031226214738931016,-0.8210195454848752,0.5213939170113592,-1.05629947099007,-2.3623375856471007,0.39424565809841466
1780949274221758208,1.7421960830688477,-0.14122581481933594,0.38434040546417236,-0.5718048214912415,-0.3525134325027466,0.8678869009017944,0.3500096797943115,0.04424011707305908,-0.09727227687835693,-0.06322073936462402,0.2336719786428955,-0.02999484947344118,-0.8210390626966318,0.519992910717624,-1.050932625427847,-2.352630551919245,0.400685183615943
1780949274231792896,1.7522308826446533,-0.21817785501480103,0.3404037058353424,-0.5451623201370239,-0.3585822582244873,0.865310788154602,0.3502230942249298,0.027588605880737305,-0.10992431640625,-0.06625697016716003,0.23657188496889114,-0.02886471359904777,-0.8211445558309999,0.5185771464711357,-1.045770029179148,-2.34440172528995,0.40600093738222537
1780949274241829120,1.7622671127319336,-0.32964447140693665,0.3433568775653839,-0.560857355594635,-0.3645797669887543,0.8623068928718567,0.3514372408390045,-0.00340116024017334,-0.07481616735458374,-0.04345396161079407,0.23937084909407325,-0.027802045787835954,-0.8215507653726095,0.5167038564013132,-1.039807760952713,-2.3378414944851666,0.4096467792166651
1780949274251864064,1.7723019123077393,-0.3364746868610382,0.34448179602622986,-0.546217143535614,-0.37059739232063293,0.8590712547302246,0.35306450724601746,-0.015877246856689453,-0.02317941188812256,-0.031836479902267456,0.24218439049263987,-0.026809021589808503,-0.8220787887776653,0.5146013963506023,-1.0334524023355518,-2.3319712522443496,0.4124466878036093
1780949274261899008,1.782336950302124,-0.31615447998046875,0.3609941899776459,-0.5478033423423767,-0.37654420733451843,0.8558593988418579,0.35456863045692444,-0.016842573881149292,0.02443528175354004,-0.010788112878799438,0.2449968940411239,-0.02585994844830577,-0.8225664546633594,0.5125350021480279,-1.027210200091691,-2.326145827169554,0.41513242970727504
1780949274271933952,1.7923719882965088,-0.3079948425292969,0.3781963288784027,-0.5723883509635925,-0.3826723098754883,0.8526290059089661,0.3557886481285095,-0.012637138366699219,0.05771028995513916,0.010757893323898315,0.24793284678926586,-0.02488512011799084,-0.8229672269061531,0.5105241660888642,-1.020996229884025,-2.319805584916356,0.4181782440491519
1780949274281969920,1.80240797996521,-0.3269120454788208,0.363489031791687,-0.6089615225791931,-0.389037162065506,0.8492079377174377,0.3570656180381775,0.0017081201076507568,0.0650680661201477,0.022054284811019897,0.25094032049013687,-0.0238037517485926,-0.8233870201729349,0.508425119185044,-1.0144835135249846,-2.3133692901862983,0.4213441938822243
1780949274292005120,1.8124430179595947,-0.33381205797195435,0.33702588081359863,-0.6310092806816101,-0.3955780565738678,0.8455764651298523,0.3584944009780884,0.015298545360565186,0.058201491832733154,0.030040115118026733,0.2539289112697907,-0.022542699920996515,-0.8238561904152053,0.5062339695169482,-1.0076440637201172,-2.30705623165308,0.4246541833216019
1780949274302040064,1.8224780559539795,-0.34599414467811584,0.34055033326148987,-0.6446566581726074,-0.4022086560726166,0.8418043255805969,0.3599914312362671,0.016313910484313965,0.044059932231903076,0.02967226505279541,0.25691033224804843,-0.02118858537095111,-0.8243462627707189,0.5039855301968863,-1.0006172195171013,-2.3008623850100305,0.42797298645091136
1780949274312076032,1.8325140476226807,-0.38108155131340027,0.34638023376464844,-0.6223233938217163,-0.40881866216659546,0.8379069566726685,0.36163386702537537,0.005055934190750122,0.004500150680541992,0.01553294062614441,0.2599042230948852,-0.01989421348128203,-0.8248764468489158,0.501630154203276,-0.9934371734879607,-2.2950279120211103,0.430801450098871
1780949274322111232,1.8425490856170654,-0.4909273684024811,0.3261375427246094,-0.5853086709976196,-0.4150831401348114,0.8338582515716553,0.3638499081134796,0.007505595684051514,-0.04455149173736572,-0.013096064329147339,0.2627611273743415,-0.018810403178890187,-0.8255732108321189,0.4990308250873377,-0.986061068064701,-2.290515486676274,0.43217206098211597
1780949274332145920,1.852583885192871,-0.6461329460144043,0.319546103477478,-0.5809251070022583,-0.42111435532569885,0.8293284177780151,0.36725664138793945,0.022905707359313965,-0.07122588157653809,0.004584819078445435,0.2654934375900887,-0.017960082423943015,-0.8266231036580783,0.4958679717320467,-0.9779046869251768,-2.2879852724994296,0.4313305120701089
1780949274342180864,1.8626189231872559,-0.6397791504859924,0.3087368607521057,-0.5804890990257263,-0.4271138310432434,0.8244340419769287,0.37132537364959717,0.037999361753463745,-0.07075655460357666,0.02903476357460022,0.2681840962764105,-0.017191611468375164,-0.8278690311885775,0.49235625436217006,-0.9692014389194104,-2.2864359784742354,0.42939360746359057
1780949274352216832,1.872654914855957,-0.5776547789573669,0.28811973333358765,-0.5862058401107788,-0.43302005529403687,0.8196337223052979,0.37509214878082275,0.04886481165885925,-0.031242668628692627,0.014602035284042358,0.27079806128136885,-0.01633493973666173,-0.829023066264105,0.48900135770646436,-0.9607714211712647,-2.284633885820888,0.42795947642681337
1780949274362252032,1.8826899528503418,-0.459773451089859,0.29491105675697327,-0.6298329830169678,-0.4390908479690552,0.8150116205215454,0.3780948519706726,0.05365374684333801,0.054327547550201416,0.005511254072189331,0.2734429116043135,-0.015223295062236634,-0.8299491992714778,0.4859852881998887,-0.9527492239232332,-2.2816910912629242,0.42801823898321223
1780949274372286976,1.8927249908447266,-0.35629257559776306,0.28421977162361145,-0.6639291644096375,-0.4454881548881531,0.8105891942977905,0.3801131546497345,0.05434426665306091,0.1044042706489563,-0.0017255842685699463,0.2762043106128881,-0.013790915816439006,-0.8305819549203676,0.48337853204416503,-0.9451575252332607,-2.277174637754866,0.42997661649802676
1780949274382322176,1.9027600288391113,-0.33917325735092163,0.2656439542770386,-0.6911122798919678,-0.45202821493148804,0.8062464594841003,0.3816245496273041,0.05308717489242554,0.10275012254714966,0.009580254554748535,0.2789630252364697,-0.012103285295406776,-0.8310630461015036,0.4810066741242544,-0.9377794923204382,-2.2719424021862937,0.4330457230649061
1780949274392358144,1.9127960205078125,-0.5354554057121277,0.27976658940315247,-0.7386268377304077,-0.45882487297058105,0.8013585209846497,0.3838026523590088,0.03890293836593628,0.07911950349807739,0.049485981464385986,0.28178435902130233,-0.010370242772820443,-0.8317414187042259,0.47822204398704227,-0.9295628264223069,-2.2673949573011543,0.4353302188695038
1780949274402393088,1.9228310585021973,-0.7596637606620789,0.3338428735733032,-0.7724825143814087,-0.46609681844711304,0.7953029870986938,0.3876173794269562,0.02102839946746826,0.0492558479309082,0.10650807619094849,0.28484698618378673,-0.008857498845470166,-0.8329046970576132,0.47439816398081747,-0.9195072107951964,-2.264525062724018,0.43507772709798126
1780949274412428032,1.932866096496582,-0.8660407662391663,0.35534828901290894,-0.7468538880348206,-0.47349345684051514,0.7885123491287231,0.3924948573112488,0.0030802488327026367,-0.0035239458084106445,0.10915303230285645,0.28806562150347537,-0.007681388149808769,-0.8343790683954571,0.4698624942635499,-0.9083863610041025,-2.262932703163979,0.43268603724427557
1780949274422464256,1.9429020881652832,-0.8305366039276123,0.3631207048892975,-0.7080042362213135,-0.4806584417819977,0.7816199064254761,0.3975398540496826,-0.01685437560081482,-0.024234652519226074,0.07528424263000488,0.2912547873840132,-0.006728302705605356,-0.8358975163951362,0.46518898256443414,-0.8972586711326525,-2.2618288784094296,0.4294769887572754
1780949274432498944,1.9529368877410889,-0.7662302851676941,0.413810670375824,-0.661124587059021,-0.4875417947769165,0.7751010060310364,0.40189746022224426,-0.052771925926208496,-0.028808891773223877,0.042118072509765625,0.29442324910969525,-0.00590671461812645,-0.8372059738052584,0.4608321337060044,-0.8868748969457322,-2.2602001843639528,0.4266499842225414
1780949274442533888,1.9629719257354736,-0.7808824777603149,0.5121268033981323,-0.6067098379135132,-0.4943268299102783,0.7688590884208679,0.4055820405483246,-0.09063410758972168,-0.03698652982711792,0.013058066368103027,0.2978021329086896,-0.00544556680305212,-0.8383086320926073,0.45664309243638157,-0.8770549468144007,-2.2578969934223365,0.42363226585155783
1780949274452569088,1.9730069637298584,-0.8706120848655701,0.6181814074516296,-0.5730687379837036,-0.501155436038971,0.7625666856765747,0.40906617045402527,-0.08319509029388428,-0.028420627117156982,0.027411431074142456,0.30150541075262577,-0.005504996579418878,-0.8393466398174666,0.4522846136462914,-0.8672715449033013,-2.2553652070144037,0.41950432441085694
1780949274462605056,1.9830429553985596,-0.8838719725608826,0.6763666868209839,-0.5814534425735474,-0.5082263350486755,0.7560024261474609,0.4125126004219055,-0.02059757709503174,0.005014598369598389,0.03704196214675903,0.3055236300829553,-0.0058966465968570215,-0.8403698794675982,0.4476595883962399,-0.8571841555365373,-2.252613369627637,0.41452400269336365
1780949274472640000,1.9930779933929443,-0.802768349647522,0.6673868894577026,-0.5640472769737244,-0.5153909921646118,0.7495347261428833,0.4154152572154999,0.036112427711486816,0.0103377103805542,0.015553951263427734,0.3096372513763927,-0.006274290424586385,-0.8412302108983096,0.4431897701011039,-0.8473589758129508,-2.2491970020662024,0.4100567467629366
1780949274482675200,2.003113031387329,-0.8155161142349243,0.6313626170158386,-0.5311740636825562,-0.5221755504608154,0.7433233857154846,0.4180944859981537,0.06317591667175293,-0.00887209177017212,-0.025318026542663574,0.3135538942304098,-0.006679807543955896,-0.8420229336016954,0.4389039709705433,-0.8380249226944582,-2.2459505525076136,0.4056818379657898
1780949274492711168,2.0131490230560303,-0.8713029026985168,0.6103492975234985,-0.5393821597099304,-0.5287542343139648,0.7369927763938904,0.42102324962615967,0.06268984079360962,-0.041222572326660156,-0.047305017709732056,0.3173179120496821,-0.007103465973219231,-0.8428885803959444,0.4345085930298326,-0.8286102885813312,-2.243249577065355,0.40091860261260454
1780949274502746112,2.023184061050415,-1.0014870166778564,0.5767945647239685,-0.5703358054161072,-0.5353586077690125,0.7300432324409485,0.42476823925971985,0.07704561948776245,-0.07266408205032349,-0.03128981590270996,0.32100655808610695,-0.007561378242760794,-0.8439946319864384,0.4296169160955557,-0.8183852290584136,-2.2415167393325337,0.39512347641029916
1780949274512781056,2.0332190990448,-1.099625825881958,0.5069539546966553,-0.5585966110229492,-0.5418133735656738,0.7224945425987244,0.42946475744247437,0.08902406692504883,-0.03893136978149414,-0.024282842874526978,0.3244742539660905,-0.008008443093775096,-0.8453805336380535,0.4242453065909925,-0.8074035901929807,-2.241035400961363,0.38831103670509487
1780949274522817024,2.043255090713501,-1.413146734237671,0.5207656025886536,-0.47050991654396057,-0.5477999448776245,0.7142853140830994,0.4355590343475342,0.08246791362762451,0.01265859603881836,0.0031463801860809326,0.3276885975835682,-0.008869609316153692,-0.8471722666339486,0.4181394880606321,-0.795602354973073,-2.242546033539749,0.37910853258974947
1780949274532851968,2.0532898902893066,-1.8930408954620361,0.6418177485466003,-0.15613014996051788,-0.5526719093322754,0.7051748037338257,0.44416433572769165,0.07128769159317017,-0.15483611822128296,0.0735967755317688,0.33075545381914384,-0.011447636114710896,-0.8496770701361461,0.4105101244044202,-0.7826696705346972,-2.2477694340016794,0.3635122587222241
1780949274542886912,2.0633249282836914,-1.8365567922592163,0.5786182880401611,0.28220459818840027,-0.5550903677940369,0.6968429088592529,0.45418596267700195,0.12257993221282959,-0.5957075953483582,0.006812632083892822,0.3332173585928222,-0.016247221672877794,-0.8525426748118442,0.40233481130113724,-0.7709862020719445,-2.256548611163799,0.34183756722710085
1780949274552922112,2.073359966278076,-1.4565095901489258,0.16607344150543213,0.2996096909046173,-0.5545635223388672,0.691269040107727,0.4632563889026642,0.2855204939842224,-0.8414307832717896,-0.26542627811431885,0.33404138019393825,-0.021099075583063866,-0.8550924031923409,0.39596487318434925,-0.7632437987474563,-2.266725447850917,0.3216755734867438
1780949274562958080,2.0833959579467773,-1.4017901420593262,-0.26309338212013245,0.09290923178195953,-0.5529879331588745,0.6854411363601685,0.4736824929714203,0.41721516847610474,-0.4604502320289612,-0.3009987473487854,0.33323283298958606,-0.024197811933742555,-0.8580534432044752,0.39001891263403204,-0.755209398562839,-2.2791022853801772,0.3046491165322678
1780949274572993024,2.093430995941162,-0.4783497750759125,-0.23330643773078918,0.12002766877412796,-0.5509660243988037,0.6812348961830139,0.4820326864719391,0.3201615810394287,-0.005621492862701416,-0.1620253324508667,0.33169756015919943,-0.025709101335840975,-0.8604390628659718,0.38595389074489667,-0.7494481865391784,-2.2895619825665943,0.29351164294532317
1780949274583027968,2.103466033935547,0.16240143775939941,0.08108105510473251,0.251668781042099,-0.5493358969688416,0.6818196773529053,0.48306530714035034,0.17284047603607178,0.095203697681427,-0.18129223585128784,0.33102611880883537,-0.026565376626845192,-0.8607130379359811,0.3858614753007989,-0.7502472814919782,-2.29209171724044,0.29078509009098
1780949274593064192,2.113502025604248,0.005020612850785255,0.003833669936284423,0.31510287523269653,-0.5477426648139954,0.683902382850647,0.481929212808609,0.09960722923278809,0.1128506064414978,-0.24268656969070435,0.3307741541705033,-0.027686402979376076,-0.8603476483970298,0.3868125203381188,-0.7530981645832101,-2.2923644408660966,0.2894738302512895
1780949274603099136,2.123537063598633,0.012961892411112785,-0.3568078577518463,0.42473429441452026,-0.5443618893623352,0.6858415007591248,0.4830032289028168,0.041401565074920654,0.02291417121887207,-0.4777083396911621,0.3293600961296637,-0.029098762396463595,-0.8606130831100658,0.38732479036417145,-0.7557593806879588,-2.2965410737683847,0.28563077445277174
1780949274613134080,2.1335721015930176,0.3061935007572174,-0.6862415671348572,0.535240888595581,-0.5385252833366394,0.6892074942588806,0.48475128412246704,-0.07223832607269287,-0.10035550594329834,-0.652018129825592,0.3261454518582227,-0.0297763083451164,-0.8610975635126438,0.3889133596467675,-0.760394732688328,-2.3036919733512655,0.283112873412798
1780949274623169024,2.1436069011688232,0.45514702796936035,-0.7738355994224548,0.5608932375907898,-0.5309279561042786,0.6941857933998108,0.4860266149044037,-0.1807725429534912,0.013028621673583984,-0.5240514874458313,0.321864662465671,-0.0301490288483206,-0.8614547837173913,0.3916502684617849,-0.7672881408001029,-2.3120703998318466,0.28181186032933525
1780949274633204992,2.1536428928375244,0.3815537691116333,-0.6315721869468689,0.5074987411499023,-0.5237469673156738,0.6990280151367188,0.486876904964447,-0.23186826705932617,0.15068817138671875,-0.25750672817230225,0.31778033001623834,-0.030313060136982883,-0.8616957546297578,0.39443284599279865,-0.7740373394176295,-2.3197281702772643,0.2811997425240705
1780949274643239936,2.163677930831909,0.40808311104774475,-0.3500710129737854,0.5544893741607666,-0.5176394581794739,0.7036986351013184,0.48668035864830017,-0.18168610334396362,0.08363962173461914,0.09393179416656494,0.3146846686749894,-0.03102234171889316,-0.8616134799034966,0.3970307677946156,-0.7805898561988474,-2.325378303000754,0.28010274170515886
1780949274653275136,2.173712968826294,0.3802078068256378,-0.10182031989097595,0.5937811732292175,-0.5124761462211609,0.70860356092453,0.4850250780582428,-0.11855113506317139,0.037825942039489746,0.18915396928787231,0.312639656244273,-0.03245050200087649,-0.861080432295669,0.399679823093062,-0.7875171994730051,-2.328681602200021,0.27856709042440225
1780949274663311104,2.183748960494995,0.5096326470375061,-0.02532767876982689,0.5567547082901001,-0.5081378817558289,0.7136151790618896,0.48223409056663513,-0.05999267101287842,0.11743956804275513,0.0725603699684143,0.311340245639062,-0.03416004031712072,-0.8602035419939763,0.4024305639820996,-0.7946453210515677,-2.3300448333651675,0.2773554361464689
1780949274673346048,2.19378399848938,0.6055775284767151,-0.06177596375346184,0.5160685181617737,-0.5040551424026489,0.7191668748855591,0.47825467586517334,0.010524868965148926,0.12473571300506592,-0.13435208797454834,0.3101895740063743,-0.035542196625872505,-0.8589901601890251,0.4057772091872378,-0.8026025845756345,-2.3299354226467686,0.27798297172456543
1780949274683380992,2.2038190364837646,0.3893781304359436,-0.3248850703239441,0.4317264258861542,-0.49980950355529785,0.7239651679992676,0.4754631519317627,0.07965865731239319,0.013415873050689697,-0.2938529849052429,0.3085322138101779,-0.036354992781950576,-0.8581432777789986,0.408749820874298,-0.8095331381940507,-2.3312360333794877,0.2787771754824533
1780949274693416192,2.2138540744781494,-0.06736703217029572,-0.7702738642692566,0.409512996673584,-0.49417343735694885,0.7268462777137756,0.47695595026016235,0.11052173376083374,-0.1454712152481079,-0.337811142206192,0.3054004385265536,-0.036853763545671034,-0.8585567939703505,0.41018599060394556,-0.8137187740275812,-2.3384669786567858,0.2761520570604205
1780949274703452160,2.2238900661468506,-0.6627696752548218,-1.0858736038208008,0.30478420853614807,-0.48684704303741455,0.7269761562347412,0.4842368960380554,0.06491106748580933,-0.151872456073761,-0.24693232774734497,0.3004037363438115,-0.036941228105394755,-0.8606705493042038,0.40943749258686074,-0.8139079310103988,-2.353506621547273,0.26886707741457133
1780949274713487104,2.2339251041412354,-1.076030969619751,-0.8560316562652588,0.20521900057792664,-0.48021042346954346,0.7236403226852417,0.49572452902793884,-0.07629287242889404,-0.0100325345993042,0.0031768083572387695,0.2954389524702475,-0.03731231033626967,-0.8639849818429715,0.40602169330379484,-0.8090622957048612,-2.372089798771885,0.25700788973454075
1780949274723522048,2.243959903717041,-1.0230168104171753,-0.5474714636802673,0.29346364736557007,-0.4749768078327179,0.719505250453949,0.5066651701927185,-0.187391996383667,-0.0152205228805542,0.12250059843063354,0.29175592581741355,-0.03854073585237723,-0.8670912269168505,0.4019278718607988,-0.8030896439298005,-2.388464251570593,0.24387329465540578
1780949274733558016,2.253995895385742,-0.9924410581588745,-0.3840971291065216,0.3141483962535858,-0.47035136818885803,0.7156873345375061,0.5162959098815918,-0.13838282227516174,-0.03755617141723633,0.11807304620742798,0.2888753831159912,-0.040407171004310814,-0.8697788362933626,0.3979989180043342,-0.7976077532990797,-2.4027272206517303,0.23063137314589913
1780949274743592960,2.264030933380127,-0.8319733738899231,-0.2542922794818878,0.41636931896209717,-0.46610838174819946,0.712735116481781,0.5241674184799194,-0.004152208566665649,-0.01698017120361328,0.2130609154701233,0.28662199410978156,-0.04271833453406719,-0.8719282396897956,0.3946695721773973,-0.7933898536822465,-2.4147566284902293,0.21806302063992603
1780949274753627904,2.2740659713745117,-0.6545218825340271,-0.36230048537254333,0.3634488582611084,-0.46175315976142883,0.710546612739563,0.5309500098228455,0.10066914558410645,-0.06969267129898071,0.11997479200363159,0.2843966962346308,-0.04494583880854957,-0.8737590449073591,0.3919740200249112,-0.7902746928124729,-2.425787376246051,0.2066964296341844
1780949274763663104,2.2841010093688965,-0.6135699152946472,-0.5226427912712097,0.3550875782966614,-0.4567851722240448,0.7088798880577087,0.5374355912208557,0.14353737235069275,-0.043337106704711914,0.05088233947753906,0.2815753053930263,-0.046516287254599,-0.8755307147094343,0.3898688075696412,-0.7879088965647318,-2.4371365039751725,0.19707102306481894
1780949274773699072,2.2941370010375977,-0.4827415943145752,-0.5720438957214355,0.378351628780365,-0.45122021436691284,0.7075251936912537,0.5438826084136963,0.11444348096847534,0.03821754455566406,0.06793373823165894,0.2783134249988293,-0.04781138026897687,-0.8773000519074523,0.38807251032887463,-0.7859900225079779,-2.4490451737567613,0.18806567706828764
1780949274783734016,2.3041720390319824,-0.32906922698020935,-0.5434311628341675,0.41050291061401367,-0.4453222155570984,0.707028865814209,0.5493622422218323,0.025171339511871338,-0.003705322742462158,0.11770641803741455,0.27497163634473076,-0.049057844043531876,-0.87879147026926,0.3869233271912231,-0.7852879870775916,-2.4604115537329543,0.1799362783644538
1780949274793769216,2.314207077026367,-0.08454202115535736,-0.4415730834007263,0.4020923674106598,-0.43965891003608704,0.7077215909957886,0.5530188083648682,-0.0329819917678833,0.051769256591796875,0.17142260074615479,0.2719201732213361,-0.05015939943568191,-0.8797689734923126,0.3867168082140442,-0.7862680325420848,-2.4698980396553605,0.1736331102874558
1780949274803805184,2.3242430686950684,0.3873986005783081,-0.3147735893726349,0.36413460969924927,-0.43485286831855774,0.7101343870162964,0.5537260174751282,-0.037315189838409424,0.22223883867263794,0.2358248233795166,0.269567727273893,-0.050972437044545175,-0.8799231876393777,0.3879050648521518,-0.7896890400144478,-2.47586641753878,0.17045272041935683
1780949274813840128,2.334278106689453,0.7783085703849792,-0.19762475788593292,0.36124828457832336,-0.4308167099952698,0.7150636911392212,0.5505281090736389,-0.027252197265625,0.26101070642471313,0.20751333236694336,0.26784743296734104,-0.051207856958046444,-0.8790004675343764,0.3911442076663301,-0.796715180225735,-2.477581840764775,0.1718029034874288
1780949274823875072,2.344312906265259,0.9624134302139282,-0.10056982934474945,0.36369624733924866,-0.42743727564811707,0.7214612364768982,0.5447856187820435,0.00228157639503479,0.15167725086212158,0.19634908437728882,0.2667632980829859,-0.051392807270263643,-0.8773548737037096,0.39553083229580116,-0.8059102320496502,-2.4763144459772075,0.17541758461320428
1780949274833911040,2.35434889793396,1.06157386302948,-0.17275600135326385,0.32486817240715027,-0.4242134690284729,0.728407621383667,0.5380199551582336,0.056110382080078125,0.13226443529129028,0.06886786222457886,0.2657385442701383,-0.051263816508530236,-0.8754324693626612,0.4004661251059182,-0.8159949477998203,-2.4739208767411744,0.18062534562164254
1780949274843945984,2.3643839359283447,1.2079905271530151,-0.19675880670547485,0.3218121826648712,-0.4208284616470337,0.7358697056770325,0.5304704308509827,0.07149380445480347,0.08287107944488525,-0.024855315685272217,0.2645475560543427,-0.050786118473783524,-0.873301776784522,0.40593014828048496,-0.8269502297993963,-2.4709432037607675,0.18728123807054642
1780949274853980928,2.3744189739227295,1.1629849672317505,-0.14597353339195251,0.33284565806388855,-0.41747748851776123,0.7435001730918884,0.5224176049232483,0.04351508617401123,-0.07565349340438843,-0.019304871559143066,0.26341697383986495,-0.05030090253897964,-0.8710215939233913,0.4115856404372315,-0.838289272965117,-2.4673848621282275,0.19443961731530068
1780949274864016128,2.3844540119171143,1.141879677772522,-0.154231995344162,0.2869519293308258,-0.41436871886253357,0.7507513761520386,0.514462411403656,0.036744147539138794,-0.03863877058029175,0.04321599006652832,0.2624126395032938,-0.049852223961422665,-0.8687611574048789,0.41702352626176376,-0.8491988067534472,-2.4635432732179634,0.20155591026505199
1780949274874052096,2.3944900035858154,1.276755928993225,-0.17090058326721191,0.24201509356498718,-0.4115409255027771,0.7580711245536804,0.5059270858764648,0.013652771711349487,0.1096198558807373,-0.02861684560775757,0.2614515625605004,-0.04905846213251698,-0.8663468141989081,0.4227050278102416,-0.8603504016649328,-2.458710595494,0.21012356046564704
1780949274884087040,2.4045250415802,1.2405133247375488,-0.14682134985923767,0.1991586983203888,-0.4090512990951538,0.7653502225875854,0.49690672755241394,-0.04315823316574097,0.1257631778717041,-0.06583064794540405,0.2605881404142603,-0.048001455076135145,-0.8637992991305359,0.4285330010464269,-0.8715853187551743,-2.452867387460926,0.21993365975942206
1780949274894122240,2.414560079574585,1.0850238800048828,-0.0890621766448021,0.20666030049324036,-0.40691497921943665,0.7719069719314575,0.48844632506370544,-0.09033840894699097,0.02890479564666748,-0.05318927764892578,0.25991485446474166,-0.04709620223176561,-0.8613971839896024,0.4338445630689294,-0.88183534914543,-2.4470037553426813,0.22911933479386692
1780949274904158208,2.424596071243286,1.065148115158081,-0.08450844138860703,0.22367815673351288,-0.40484854578971863,0.7779377102851868,0.4805317521095276,-0.10554274916648865,-0.05692929029464722,-0.06904798746109009,0.25934248745135197,-0.04646472742284122,-0.8591314858161473,0.4387204744051342,-0.8913769859073026,-2.4414682281211393,0.23731493771941134
1780949274914193152,2.434631109237671,1.1202137470245361,-0.08070824295282364,0.2034008502960205,-0.4027203619480133,0.7840635776519775,0.4722929894924164,-0.0811968743801117,0.013757467269897461,-0.10359489917755127,0.2587320629749545,-0.0457763549278127,-0.8567677718578778,0.4437468087201214,-0.9011859398715157,-2.4355379192847013,0.24605245848958554
1780949274924227840,2.4446659088134766,1.2214064598083496,-0.005445715039968491,0.16349898278713226,-0.40110069513320923,0.7902724742889404,0.4632361829280853,-0.033072859048843384,0.13602757453918457,-0.016855597496032715,0.2584254917389453,-0.04496125961314312,-0.8541642540438575,0.44899688868574533,-0.9112535109459107,-2.427959062430067,0.2561657001510974
1780949274934264064,2.4547019004821777,1.1365530490875244,0.007115749642252922,0.13625217974185944,-0.3998895287513733,0.7963650226593018,0.4537522494792938,-0.007550626993179321,0.10785549879074097,0.008741706609725952,0.25833295725860667,-0.04404183755926449,-0.8514319902309493,0.45429940321942264,-0.9212611320519334,-2.419208507899521,0.267256567386307
1780949274944299008,2.4647369384765625,0.8605853319168091,0.09352467209100723,0.11178411543369293,-0.3991263508796692,0.8014268279075623,0.4454360008239746,-0.01434105634689331,-0.014424264430999756,0.08698892593383789,0.2584800801588148,-0.04335948467403876,-0.8490217654150565,0.45877014918167225,-0.929677019076523,-2.410972356773767,0.27696245230251104
1780949274954333952,2.4747719764709473,0.5591312050819397,0.09272093325853348,0.10176929831504822,-0.3987199664115906,0.8050263524055481,0.439266175031662,-0.02028632164001465,-0.10095542669296265,0.0601235032081604,0.25883030045426075,-0.0431344046345936,-0.8472145580013122,0.4619239297898115,-0.9357198635410683,-2.4045420697655633,0.28366189833364014
1780949274964369152,2.484807014465332,0.328601598739624,0.035411570221185684,0.11265816539525986,-0.3981451094150543,0.8073263168334961,0.43555083870887756,0.007611721754074097,-0.11282259225845337,0.07345184683799744,0.2589584513214741,-0.043194026694650965,-0.8461144724952258,0.46385886216255506,-0.9396070984675233,-2.4010317661360654,0.287179183889451
1780949274974405120,2.494843006134033,0.3123011887073517,0.02529435232281685,0.11941487342119217,-0.39730510115623474,0.8091738224029541,0.4328812062740326,0.02204573154449463,-0.04106175899505615,0.09307390451431274,0.2588591109961789,-0.04333451702395904,-0.8453181202866984,0.46535070132396417,-0.9427446686717793,-2.399021452754151,0.28936225521831815
1780949274984440576,2.504878520965576,0.336335152387619,0.0546857975423336,0.13599038124084473,-0.396411657333374,0.8110610842704773,0.4301602840423584,-0.010509788990020752,0.007786691188812256,0.07621794939041138,0.25878553168878093,-0.04356601635002761,-0.8445011212549833,0.46685111990808126,-0.9459638027433308,-2.397001454879873,0.2913819822095727
1780949274994475520,2.514913558959961,0.5073516368865967,0.08027464896440506,0.11995203047990799,-0.3956557512283325,0.8134042620658875,0.4264151453971863,-0.011463940143585205,0.0564534068107605,0.11255580186843872,0.2588768451799259,-0.043737905722919204,-0.8433828142891311,0.4688018359455694,-0.9499807127725405,-2.3935940207198825,0.29468608953847225
1780949275004511488,2.524949550628662,0.5561628341674805,0.02617279812693596,0.0633753091096878,-0.3951069116592407,0.8160548210144043,0.4218352138996124,0.01411023736000061,0.12745708227157593,0.03920897841453552,0.2589980237858839,-0.04357504024689474,-0.8420325537938602,0.47117128572042055,-0.954551880250028,-2.38890030912561,0.2997800023635039
1780949275014546688,2.534984588623047,0.47502538561820984,-0.07885175943374634,0.00021578009182121605,-0.39476004242897034,0.8184420466423035,0.41751280426979065,0.038680970668792725,0.11397671699523926,0.0036754310131073,0.2589450172918706,-0.04294908993738959,-0.840780459236818,0.473488149171956,-0.9586943826909597,-2.3841983939173965,0.305817745573468
1780949275024581376,2.5450193881988525,0.11503233760595322,-0.16306649148464203,-0.00411318801343441,-0.39429959654808044,0.8197016716003418,0.4154719412326813,0.029309391975402832,-0.03575092554092407,0.010416120290756226,0.25850487369373065,-0.04222498319251976,-0.8402101014612113,0.47480441951029,-0.9608899830572161,-2.382334591895564,0.3096114870552094
1780949275034617344,2.5550553798675537,-0.19226104021072388,-0.1476096510887146,0.032743629068136215,-0.3934832513332367,0.819534420967102,0.4165745973587036,-0.011652827262878418,-0.13250744342803955,0.08670604228973389,0.25775517146903865,-0.04195857205705114,-0.8405514750845566,0.47463146080346547,-0.9605980699980166,-2.384692570332481,0.3087779893280145
1780949275044652544,2.5650904178619385,-0.2982817590236664,-0.019039422273635864,0.05472589284181595,-0.39280831813812256,0.8186661601066589,0.4189125597476959,-0.03755062818527222,-0.07092428207397461,0.13929983973503113,0.2572608415365007,-0.04224884567171288,-0.8412320246932901,0.473667300355942,-0.9590844719180106,-2.388342549375888,0.3053297515900323
1780949275054687488,2.5751254558563232,-0.4076114296913147,-0.029431475326418877,0.09630289673805237,-0.3921111822128296,0.8174880146980286,0.4218556582927704,-0.02764284610748291,-0.046613991260528564,0.08232533931732178,0.25694389603344503,-0.043000994707138925,-0.8420681307293125,0.4722838321345075,-0.9570359209844531,-2.392720833821621,0.3001413890802771
1780949275064722432,2.585160493850708,-0.44722089171409607,-0.11807692050933838,0.08888093382120132,-0.39099106192588806,0.8160272836685181,0.4257061779499054,0.0008695423603057861,-0.054689884185791016,0.019835174083709717,0.2562923536534493,-0.04377976160405611,-0.8431704557280384,0.4705966804709409,-0.9545042167093702,-2.3986756239012226,0.29380954853453023
1780949275074758656,2.595196485519409,-0.4398825466632843,-0.00818038173019886,0.08067573606967926,-0.3900146782398224,0.8144301176071167,0.42964181303977966,-0.012557953596115112,0.0710679292678833,0.02954089641571045,0.2557005631148213,-0.0445366634136473,-0.8442969811467105,0.4688243821177345,-0.95174640973818,-2.4045029016519543,0.28752959456514615
1780949275084793600,2.605231523513794,-0.4416642189025879,0.0688672661781311,0.08414849638938904,-0.3895241320133209,0.8128491044044495,0.43306681513786316,-0.0334189236164093,0.144090473651886,-0.00510367751121521,0.2555842119985482,-0.045545143919020335,-0.8452567962085573,0.46705798616843436,-0.9490269507478224,-2.409078714894903,0.2813946840669752
1780949275094828544,2.6152665615081787,-0.5030748248100281,-0.029471024870872498,0.09098829329013824,-0.3889199197292328,0.811149537563324,0.4367811381816864,-0.002651125192642212,0.022773802280426025,-0.07028019428253174,0.2553797611681565,-0.04657898314613993,-0.8462983909745081,0.4651780429115838,-0.9461149734978357,-2.4140940410377154,0.27489959340338693
1780949275104864512,2.62530255317688,-0.5984514355659485,-0.10053481161594391,0.06764328479766846,-0.38794514536857605,0.8089901804924011,0.4416256844997406,0.014638930559158325,-0.042632877826690674,-0.06549650430679321,0.25474873853705904,-0.047465754113367155,-0.8476790967748318,0.46291486262216053,-0.9424321904702154,-2.4208132095966888,0.26751529098130805
1780949275114899712,2.6353375911712646,-0.5966732501983643,0.00043933792039752007,0.08101102709770203,-0.38711434602737427,0.8065765500068665,0.4467397928237915,-0.04368698596954346,0.009310781955718994,-0.001442641019821167,0.2542082879383371,-0.04842964470210194,-0.8491315915335472,0.46044343446356994,-0.9383376767916888,-2.42757881644533,0.25979498275549534
1780949275124934400,2.6453723907470703,-0.5674927234649658,0.0819065049290657,0.09392975270748138,-0.3866111636161804,0.8043058514595032,0.4512472450733185,-0.08335962891578674,0.019653618335723877,0.05261319875717163,0.25405821926120375,-0.0496478303261143,-0.8503873914355953,0.4580729793164764,-0.9345063652143726,-2.4331864085097874,0.2522644239053327
1780949275134970368,2.6554083824157715,-0.43918612599372864,0.11722441017627716,0.08291119337081909,-0.38635262846946716,0.8023545742034912,0.4549274444580078,-0.03221127390861511,0.03811490535736084,0.12315183877944946,0.2541546541546098,-0.050897629551838616,-0.8513948320409195,0.45600631699729127,-0.9312298527259553,-2.4375271482215535,0.24561333883813952
1780949275145005568,2.6654434204101562,-0.46217960119247437,0.0985705703496933,0.046885013580322266,-0.38632842898368835,0.8006269335746765,0.457981139421463,-0.0049374401569366455,0.017930805683135986,0.014247775077819824,0.2543658761556775,-0.05198649526324017,-0.8522253056339294,0.45421074210176593,-0.928340876879721,-2.440857078323028,0.24006935880954733
1780949275155040512,2.675478458404541,-0.4171793758869171,-0.010178551077842712,0.02831426076591015,-0.3862375319004059,0.7986614108085632,0.46147629618644714,0.01763099431991577,-0.04765439033508301,-0.04045584797859192,0.25436096636135264,-0.052845586328908685,-0.8531972168582975,0.4522856287393304,-0.925067504868052,-2.444717430342068,0.23464427165519747
1780949275165075456,2.685513496398926,-0.4216103255748749,-0.09121134877204895,0.014551576226949692,-0.38583648204803467,0.796833872795105,0.4649578034877777,0.04153722524642944,-0.06660938262939453,-0.03211173415184021,0.2539800761863989,-0.05332815389389132,-0.8541867504493709,0.45057202668651,-0.922036774237931,-2.448924773697246,0.23004177835991496
1780949275175111424,2.695549488067627,-0.41397958993911743,-0.1557469367980957,-0.029425734654068947,-0.38531041145324707,0.7948311567306519,0.4688062369823456,0.03303077816963196,0.00802522897720337,0.021000832319259644,0.25335048309500785,-0.05355538337054193,-0.8552981611157174,0.4487876939189392,-0.918729268572505,-2.4536418079288937,0.2256791958907417
1780949275185146624,2.7055845260620117,-0.39892658591270447,-0.13259874284267426,-0.03638298064470291,-0.38489824533462524,0.7927860617637634,0.4725921154022217,-0.0054520368576049805,0.04019111394882202,0.05758967995643616,0.2526924774559224,-0.0535899432725666,-0.8564018766413829,0.4470462678363646,-0.9153665896133832,-2.4581082164343018,0.2219009501607909
1780949275195181568,2.7156195640563965,-0.354726642370224,-0.124660924077034,-0.024404611438512802,-0.3845522999763489,0.7908421158790588,0.476118266582489,-0.0320127010345459,0.015691816806793213,0.05214112997055054,0.25212537742729413,-0.053666605804735174,-0.8574258189522761,0.4453917112225883,-0.9121837639853393,-2.4621849214974465,0.21832248565035625
1780949275205217536,2.7256555557250977,-0.24083442986011505,-0.14761178195476532,-0.04029303044080734,-0.38415446877479553,0.7892508506774902,0.47907039523124695,-0.02096635103225708,0.0019936561584472656,0.004770517349243164,0.25152358028002514,-0.05360153948289574,-0.8582902065530617,0.4440728623467328,-0.909588114471039,-2.4657096033134507,0.21561309813183868
1780949275215252736,2.7356905937194824,-0.12059403210878372,-0.10732188075780869,-0.0175299271941185,-0.38376152515411377,0.7882961630821228,0.4809534251689911,-0.012905925512313843,0.011325359344482422,-0.0037805140018463135,0.2509740082544772,-0.053389277478213856,-0.8588517351478014,0.44332305258452576,-0.9080349707075858,-2.468122352957523,0.2142454307277729
1780949275225287424,2.745725393295288,-0.02474287524819374,-0.03886985033750534,0.008140549063682556,-0.3834760785102844,0.7878913879394531,0.48184359073638916,-0.011329829692840576,0.041454315185546875,-0.02586519718170166,0.2506734355050489,-0.053317865591901936,-0.8591152434907419,0.4429909849509807,-0.9073773091700374,-2.4693862490284855,0.2134999624225248
1780949275235323392,2.7557613849639893,0.08300702273845673,-0.09944517910480499,0.041063342243433,-0.3829902708530426,0.7881643772125244,0.4817834198474884,0.00477069616317749,-0.0009787678718566895,-0.1614861786365509,0.25036515218759564,-0.053236260017098594,-0.8591027920375921,0.44319921561289244,-0.9078207747119872,-2.4699429738274286,0.21357764408002872
1780949275245358592,2.765796422958374,0.03749200329184532,-0.17295189201831818,0.07460985332727432,-0.3818458616733551,0.7887086272239685,0.48180091381073,0.03788229823112488,-0.09470850229263306,-0.12434861063957214,0.24964312590176932,-0.053088189078076636,-0.8591170457766063,0.44359636486562265,-0.9087055250492336,-2.4714178610708744,0.2135094977909389
1780949275255393536,2.775831460952759,-0.04163237288594246,-0.15040916204452515,0.09392096847295761,-0.38035309314727783,0.7890114784240723,0.48248594999313354,0.025235235691070557,-0.031626105308532715,0.008511364459991455,0.2487307026090929,-0.05309987346641767,-0.8593156484972176,0.4437230502090586,-0.9091983209958353,-2.4740146547079265,0.2123349866595271
1780949275265428480,2.7858664989471436,-0.09401702135801315,-0.08770104497671127,0.10403858125209808,-0.37898603081703186,0.7890679240226746,0.48346808552742004,-0.01580461859703064,0.036875009536743164,0.035620659589767456,0.24798062254988087,-0.05335463515012189,-0.8595855506826275,0.44358941196414714,-0.9092902408429026,-2.4767520704701207,0.210364944803871
1780949275275464448,2.7959024906158447,-0.13998745381832123,-0.08895844966173172,0.09881798177957535,-0.3777788579463959,0.788874626159668,0.48472684621810913,0.006700366735458374,0.04431629180908203,0.08996498584747314,0.24736399354971378,-0.05375486947095017,-0.8599266490196023,0.44322417949417287,-0.9089756013677176,-2.479561644728631,0.2078625784619299
1780949275285499648,2.8059375286102295,-0.23971563577651978,-0.11002698540687561,0.09497743844985962,-0.3765404224395752,0.7883331775665283,0.4865674674510956,0.03411799669265747,0.02349531650543213,0.08588117361068726,0.24666929461806186,-0.05416709953986867,-0.8604357404619831,0.4425725250135912,-0.908095056604823,-2.4829883784178195,0.20479927879650459
1780949275295534592,2.8159725666046143,-0.20812974870204926,-0.08991865813732147,0.11342302709817886,-0.3752283751964569,0.7875295281410217,0.4888772666454315,0.01577708125114441,-0.014153063297271729,0.037184715270996094,0.24594027853410946,-0.05469742476392873,-0.8610730618191109,0.44167268613364274,-0.9067899228379017,-2.4869658744907865,0.20102316276561608
1780949275305570560,2.8260085582733154,-0.05293163284659386,-0.1279110461473465,0.10732705146074295,-0.3738085925579071,0.787316083908081,0.4903062880039215,0.00199773907661438,-0.00025260448455810547,-0.08143183588981628,0.24519121816278608,-0.05510906531294306,-0.861461629847992,0.44127999501257226,-0.9064436957890505,-2.4902038565513887,0.19827552399060405
1780949275315605760,2.8360435962677,0.07432884722948074,-0.11048944294452667,0.11121553182601929,-0.3723560571670532,0.787781298160553,0.49066460132598877,0.004741281270980835,0.07417255640029907,-0.0699949860572815,0.24441673220872823,-0.05526656103403655,-0.8615555197704635,0.44150676020213514,-0.9071986330949869,-2.4924318959813587,0.19705472357895365
1780949275325640448,2.846078395843506,0.06662512570619583,-0.08715055882930756,0.1351136714220047,-0.3708953261375427,0.7886627316474915,0.4903544485569,-0.0217132568359375,0.020266592502593994,-0.0433482825756073,0.24375541952515026,-0.05550422326406897,-0.8614502298113818,0.44204750043664726,-0.9086309511061483,-2.4940194962605067,0.1962303010617836
1780949275335676416,2.856114387512207,-0.049618128687143326,-0.12582112848758698,0.14330902695655823,-0.3692536950111389,0.7892197370529175,0.4906977415084839,-0.020410001277923584,-0.08797144889831543,-0.04135674238204956,0.24298662147666317,-0.05587542457428302,-0.8615258562080578,0.4422767962245667,-0.9095374259537118,-2.4964886933916977,0.19444280695221206
1780949275345711360,2.866149425506592,-0.06605782359838486,-0.16396746039390564,0.11755865067243576,-0.3674902319908142,0.7893904447555542,0.4917459487915039,0.020154327154159546,-0.03943604230880737,-0.0032967329025268555,0.24203624088588144,-0.056182348617809276,-0.8618100280465694,0.44220541583426093,-0.9098154387672961,-2.4998107145718422,0.19212962924170435
1780949275355746560,2.8761844635009766,-0.15489661693572998,-0.14667928218841553,0.09964436292648315,-0.3658493757247925,0.789274275302887,0.493153840303421,0.025379985570907593,0.03424268960952759,0.03744012117385864,0.24108021595325532,-0.05642344961223753,-0.8622025972543883,0.44193159843788776,-0.9096262528005478,-2.50332381831885,0.18969811544821752
1780949275365782528,2.8862204551696777,-0.17069901525974274,-0.1336316466331482,0.08215511590242386,-0.3644576966762543,0.7887277007102966,0.4950544536113739,-0.002226203680038452,0.03188985586166382,0.0568254292011261,0.24023708371381294,-0.056721050351284864,-0.8627339944596248,0.4413148803808175,-0.9087365921144851,-2.5069840013467837,0.1868046188456664
1780949275375817472,2.8962554931640625,-0.10381265729665756,-0.10676461458206177,0.10007712990045547,-0.36313119530677795,0.7883822321891785,0.49657732248306274,-0.04400378465652466,-0.04135781526565552,-0.009074270725250244,0.23946292554177706,-0.056997177749407796,-0.8631569840652757,0.44087275762373634,-0.908174808136406,-2.5101880906651077,0.1843204579334671
1780949275385852672,2.9062905311584473,0.008120798505842686,-0.05013488978147507,0.12104339897632599,-0.3618384301662445,0.7884926199913025,0.49734508991241455,-0.0625694990158081,-0.04387909173965454,0.004867374897003174,0.23885557440987704,-0.05739421792821753,-0.8633530232687936,0.44076684819168593,-0.9083543162907902,-2.512621592527936,0.18222353191217278
1780949275395887616,2.916325569152832,0.20779208838939667,-0.06599640846252441,0.09234943240880966,-0.3607335388660431,0.7894766926765442,0.4965859055519104,-0.04086250066757202,0.03941112756729126,-0.05878084897994995,0.23842553894087698,-0.05759257975731905,-0.8631199509985928,0.4414297311949134,-0.9099559438546488,-2.513349593387928,0.18197560021528147
1780949275405923584,2.926361560821533,0.13471494615077972,-0.0748668685555458,0.10113760083913803,-0.35964715480804443,0.7907008528709412,0.49542519450187683,-0.015352815389633179,0.03576093912124634,-0.08088970184326172,0.23796274762720016,-0.057617721590814,-0.8627820067593798,0.44233600543185864,-0.9119529294830411,-2.513670963462249,0.18248020911538865
1780949275415958528,2.936396598815918,0.049317505210638046,-0.1390925943851471,0.12844938039779663,-0.35820135474205017,0.7915856838226318,0.4950592517852783,0.004914641380310059,-0.04584300518035889,-0.017504990100860596,0.23728498209397766,-0.057792335771592256,-0.8626642861861359,0.4429064689659136,-0.9133996475331753,-2.515233901549023,0.18179984497541432
1780949275425993472,2.9464313983917236,-0.009868055582046509,-0.18598952889442444,0.11679086089134216,-0.35637351870536804,0.7921143174171448,0.4955326318740845,0.008518904447555542,-0.06875628232955933,-0.019122779369354248,0.23627571764507788,-0.0579229285811275,-0.8627927050432797,0.4431787395217502,-0.9142652510847133,-2.5181147080197315,0.1803314363309384
1780949275436029440,2.956467390060425,-0.03014536388218403,-0.12860107421875,0.11310318112373352,-0.3546687662601471,0.7924016714096069,0.496295690536499,-0.004843562841415405,-0.007504940032958984,0.0346338152885437,0.23532465277789635,-0.058095994625005594,-0.8630021428620558,0.4432542940234849,-0.9147361248039757,-2.5211139316893143,0.17855956229602774
1780949275446064384,2.9665024280548096,0.047613080590963364,-0.10570187866687775,0.10900324583053589,-0.353223592042923,0.7928056120872498,0.4966810941696167,0.007367908954620361,0.03547185659408569,0.054267942905426025,0.23459399476702875,-0.058331905236800215,-0.8630978673217823,0.4434242154210942,-0.9153986528512101,-2.523410773383327,0.17707073766990233
1780949275456099584,2.9765374660491943,0.0732974037528038,-0.11436594277620316,0.10042813420295715,-0.35186925530433655,0.7934917211532593,0.49654680490493774,0.013185203075408936,-0.002369403839111328,-0.020228445529937744,0.23390836560982,-0.058442359095012296,-0.863051500752669,0.44386193233704974,-0.9165252161044588,-2.5250964612704054,0.1763511074739297
1780949275466135552,2.9865734577178955,0.08378759771585464,-0.1525988131761551,0.0980754941701889,-0.3504156470298767,0.7942549586296082,0.49635493755340576,0.011029630899429321,-0.045094072818756104,-0.058625996112823486,0.23313120445862154,-0.05847040882691492,-0.8629940247159519,0.4443787387800543,-0.9177803396289589,-2.5268658872856262,0.17582311055440272
1780949275476170496,2.9966084957122803,0.07835661619901657,-0.12652753293514252,0.11509868502616882,-0.34884652495384216,0.7950276732444763,0.49622252583503723,0.012725979089736938,-0.02104097604751587,-0.020163625478744507,0.23229722411303186,-0.0585270044930931,-0.8629518224873346,0.44488947288285674,-0.9190532184991211,-2.528853269965337,0.1751203735934783
1780949275486205696,3.006643533706665,0.10289497673511505,-0.12518076598644257,0.12601764500141144,-0.3472473621368408,0.7959061861038208,0.4959363639354706,-0.0023162662982940674,-0.01517486572265625,-0.027308404445648193,0.23150818489182254,-0.05867015119667379,-0.8628591984683945,0.44546142031817393,-0.920502936697294,-2.530742333952043,0.17432778581656672
1780949275496241664,3.016679525375366,0.089719258248806,-0.10711362212896347,0.14458706974983215,-0.3455953598022461,0.7968534827232361,0.4955689311027527,-0.011094093322753906,-0.023827850818634033,0.0038512349128723145,0.23073116249479758,-0.05887639794683446,-0.862738681807333,0.4460703165530749,-0.9220691905410919,-2.532633335378627,0.17342591891415005
1780949275506276608,3.026714563369751,0.016754234209656715,-0.08077442646026611,0.1576983481645584,-0.34389424324035645,0.7976488471031189,0.49547263979911804,-0.014092206954956055,-0.015696942806243896,0.04612278938293457,0.22998681072628402,-0.05925749858665064,-0.8626846835099005,0.4465084137820656,-0.9233867678251076,-2.5348555174482703,0.17185652265639664
1780949275516311552,3.0367496013641357,0.0005129465716890991,-0.08948908746242523,0.15415874123573303,-0.34224092960357666,0.7981928586959839,0.4957408308982849,-0.0022108852863311768,0.009836137294769287,0.04191780090332031,0.22929194358504834,-0.05976072929138105,-0.8627276892251965,0.446715436043863,-0.9242893358509885,-2.5373640496224223,0.16970737398791066
1780949275526347520,3.046785593032837,-0.05206876993179321,-0.1439318209886551,0.13280896842479706,-0.3404958248138428,0.7986419796943665,0.4962190091609955,0.01845911145210266,0.00024706125259399414,-0.0058626532554626465,0.22843379683352774,-0.06009259626125439,-0.8628432011224785,0.44688747788649763,-0.9250352938701447,-2.5402018260630044,0.16772846010811412
1780949275536382464,3.0568203926086426,-0.21561217308044434,-0.07084562629461288,0.17704354226589203,-0.3387097120285034,0.798438310623169,0.49776721000671387,0.00771602988243103,-0.022452473640441895,0.07787066698074341,0.22757379386568935,-0.06069545780913944,-0.8632494793502332,0.4464601126367599,-0.924696900539089,-2.5441028235813743,0.16419537550189336
1780949275546417408,3.0668554306030273,-0.15657947957515717,-0.11317231506109238,0.1646832823753357,-0.3368983864784241,0.7980768084526062,0.4995727241039276,0.0008082985877990723,-0.013485133647918701,0.02899169921875,0.22675315130154314,-0.061457132512130606,-0.8637183433678597,0.44586620178273584,-0.9240967514497923,-2.5482737893702514,0.16007015466117414
1780949275556452608,3.076890468597412,-0.04397222772240639,-0.12742474675178528,0.19224193692207336,-0.3348598778247833,0.7981687188148499,0.5007948279380798,-0.013757646083831787,-0.028988540172576904,-0.07162612676620483,0.22577874716996302,-0.062040118346939135,-0.864030349632173,0.4456753539996469,-0.9242493054538987,-2.552213531631066,0.15673935879014564
1780949275566488576,3.0869264602661133,0.050334565341472626,-0.039313532412052155,0.23634734749794006,-0.3327071964740753,0.7989086508750916,0.5010501146316528,-0.030253618955612183,-0.010807335376739502,0.006182610988616943,0.22492401465016618,-0.06276814859796624,-0.8640516341504596,0.44596438318375836,-0.9254784774911592,-2.5554247385240654,0.1538121481597104
1780949275576523520,3.096961498260498,0.1841070055961609,-0.03980129212141037,0.21054984629154205,-0.3307422995567322,0.8002834916114807,0.5001557469367981,-0.024222850799560547,0.04514491558074951,-0.004870712757110596,0.22433072122795744,-0.06354881576752287,-0.8637357342108577,0.44676373866124874,-0.9277678919852483,-2.5573295053856713,0.15178900726439784
1780949275586558464,3.106996536254883,0.0752447098493576,-0.08955500274896622,0.21888846158981323,-0.328740656375885,0.8016716241836548,0.4992515742778778,-0.00431293249130249,-0.014867424964904785,-0.049193620681762695,0.22363099289458357,-0.06415963310984418,-0.8634288204210068,0.4476196876265246,-0.93008648687974,-2.559288282553155,0.15013515940644206
1780949275596594688,3.117032527923584,-0.026073923334479332,-0.15598022937774658,0.22334979474544525,-0.3263252377510071,0.8025192022323608,0.49947431683540344,0.015427470207214355,-0.10059976577758789,0.04505079984664917,0.2225942329976556,-0.0648090300392952,-0.8634448188751602,0.44801183413235274,-0.9315057605686868,-2.5628748745391885,0.14724251522980725
1780949275606629632,3.1270675659179688,-0.07364783436059952,-0.1375223994255066,0.21763145923614502,-0.32378485798835754,0.8029723763465881,0.5003989934921265,-0.0067053139209747314,-0.09078347682952881,0.038861989974975586,0.22141385488187185,-0.06546694292083088,-0.8636628789472997,0.44808097584248063,-0.9322656881398769,-2.567291630617608,0.1436777084808119
1780949275616664576,3.1371026039123535,-0.08605603128671646,-0.10635701566934586,0.2389785498380661,-0.3213542103767395,0.8032851219177246,0.5014622211456299,-0.010585486888885498,-0.024140894412994385,0.06128185987472534,0.2203744482932932,-0.06630763032205307,-0.8639064815322682,0.44799995637949375,-0.932790623573155,-2.5716878082780363,0.13962219217802208
1780949275626700544,3.1471385955810547,-0.0770614743232727,-0.16257502138614655,0.22252900898456573,-0.3188188970088959,0.8036445379257202,0.5025038719177246,0.007432758808135986,-0.027933359146118164,-0.024964869022369385,0.2192415751679165,-0.06707491690320164,-0.8641486569634348,0.4479745994277608,-0.9333942508222334,-2.5762191365997893,0.1356917759157706
1780949275636735488,3.1571733951568604,-0.12557122111320496,-0.1663547158241272,0.2608630955219269,-0.3160417079925537,0.8038888573646545,0.5038653612136841,0.005449086427688599,-0.08112579584121704,-0.05574524402618408,0.21794232233065156,-0.06784960395147197,-0.8644819941072895,0.44784867627633906,-0.9338049044898961,-2.581388162405864,0.13135168634134883
1780949275646770432,3.167208433151245,-0.06318773329257965,-0.20122161507606506,0.28165411949157715,-0.31289026141166687,0.8042759299278259,0.5052126049995422,0.010903596878051758,-0.0716557502746582,-0.03148835897445679,0.21649676103637513,-0.06873980003861052,-0.8648012228858147,0.44779772128317236,-0.9344560003678393,-2.5870854171522195,0.12654737984908182
1780949275656806400,3.1772444248199463,-0.027759438380599022,-0.16662022471427917,0.290033221244812,-0.3096614480018616,0.8049299716949463,0.5061591863632202,0.01203879714012146,0.009522974491119385,-0.06606531143188477,0.21503395761336813,-0.0695913149008778,-0.865006723412796,0.44797397852434206,-0.935557485779631,-2.5925515147951566,0.12209112158725949
1780949275666841600,3.187279462814331,0.007076839450746775,-0.14289838075637817,0.31181415915489197,-0.3064466118812561,0.8058193922042847,0.5067009925842285,0.0063214898109436035,0.011288881301879883,-0.04762500524520874,0.2136873099440831,-0.07056247649482116,-0.8650846321087654,0.4483161168197762,-0.9370578747957284,-2.5976600582203795,0.11766141364759934
1780949275676876544,3.197314500808716,-0.022797968238592148,-0.16917353868484497,0.3278144299983978,-0.30306878685951233,0.806793212890625,0.5071824789047241,0.02630487084388733,-0.0366973876953125,-0.005366683006286621,0.21229890035110038,-0.07161317479160564,-0.8651374331585678,0.4487069999158209,-0.9387043108618313,-2.6029737922427367,0.11297835726832914
1780949275686912512,3.207350492477417,-0.04122624173760414,-0.18094949424266815,0.33442679047584534,-0.2994920313358307,0.8076165914535522,0.5079963803291321,0.04012307524681091,0.00163346529006958,0.028838396072387695,0.2107780802235637,-0.0726920799027605,-0.8652826433409815,0.4489705159896897,-0.9400991667810341,-2.6088883802661003,0.10783483731966044
1780949275696947456,3.2173855304718018,-0.00632392056286335,-0.17461863160133362,0.3612709045410156,-0.29576805233955383,0.8085107803344727,0.508755087852478,0.007270097732543945,-0.0038231611251831055,-0.012310326099395752,0.20921080474204454,-0.0738251807427025,-0.8654059023397158,0.4492809243695234,-0.9416170798551897,-2.61499445399067,0.10249585920947299
1780949275706982656,3.2274205684661865,0.003817396704107523,-0.17808793485164642,0.38912731409072876,-0.2918105125427246,0.8096182942390442,0.5092785954475403,-0.027235478162765503,-0.05755847692489624,-0.06878787279129028,0.20759432344588608,-0.07506004633614863,-0.8654509107901417,0.4497391012790045,-0.9435015345642644,-2.621271756022846,0.09693057244416028
1780949275717018624,3.2374565601348877,0.062058866024017334,-0.2076832354068756,0.39844971895217896,-0.2876245677471161,0.8109667301177979,0.5095146298408508,-0.014316380023956299,-0.02625298500061035,-0.047631025314331055,0.2058910467174017,-0.0763069064780361,-0.86541005657754,0.4503905020763698,-0.9458025445154049,-2.627679920276477,0.09137633220672844
1780949275727053568,3.2474915981292725,0.00356066832318902,-0.2052890509366989,0.40637925267219543,-0.2832988202571869,0.8122648000717163,0.5098699331283569,-0.0014911890029907227,-0.005593776702880859,0.004106998443603516,0.204095450015541,-0.07754876961733119,-0.8654023139501896,0.45100993092140995,-0.9480244560387769,-2.6344375986934336,0.0856134406007799
1780949275737088512,3.257526397705078,0.025843869894742966,-0.26087960600852966,0.4023429751396179,-0.2788096070289612,0.8134937882423401,0.510385274887085,0.01803690195083618,-0.012926161289215088,0.03200364112854004,0.20219932165711976,-0.07880393871047935,-0.8654377937937735,0.4515781314789101,-0.9501345614889538,-2.6416155080394814,0.07955408218107124
1780949275747123456,3.267561435699463,0.03204930201172829,-0.3213839828968048,0.39188873767852783,-0.2740476727485657,0.8147952556610107,0.5108878016471863,0.02032455801963806,-0.021841883659362793,-0.008126020431518555,0.20001932155104754,-0.07980015945006537,-0.8654916806639893,0.4522701433860281,-0.9523759207241581,-2.649239536220446,0.07387982681791146
1780949275757159424,3.277597427368164,-0.08635164052248001,-0.26055455207824707,0.40194565057754517,-0.2693135142326355,0.8157117366790771,0.5119423270225525,-0.014637291431427002,-0.0015789270401000977,0.04164665937423706,0.19784661704978,-0.08089805105401529,-0.865694335080925,0.4526429822014418,-0.9539585417824774,-2.6573133253347696,0.06754414572352765
1780949275767194624,3.287632465362549,-0.18021103739738464,-0.2610238194465637,0.39831653237342834,-0.26470234990119934,0.8160849809646606,0.5137491822242737,-0.021628856658935547,0.003968238830566406,0.07321077585220337,0.19575899387005938,-0.0821884739770197,-0.8660944853334652,0.45255264048660876,-0.9546040260688007,-2.6658302668119083,0.06027979865963532
1780949275777229568,3.2976675033569336,-0.12918727099895477,-0.24464151263237,0.38624870777130127,-0.2601601779460907,0.8163247108459473,0.5156846046447754,-0.0022604763507843018,0.009068906307220459,0.023469388484954834,0.1936811172541476,-0.08344997047115847,-0.8665324018097837,0.4523773850662239,-0.9550189587570509,-2.674355722154009,0.053020102594097014
1780949275787265536,3.3077034950256348,0.02653682418167591,-0.2464311718940735,0.40623411536216736,-0.2556685507297516,0.8169976472854614,0.516864001750946,-0.0038681626319885254,0.012836337089538574,-0.03949272632598877,0.19172517001418055,-0.08472554627731145,-0.8667488599011196,0.45255878275594463,-0.9561850416090508,-2.682231425646061,0.04625371391201896
1780949275797300480,3.3177385330200195,0.13251012563705444,-0.2592729330062866,0.3948586881160736,-0.25108006596565247,0.8185026049613953,0.5167325139045715,-0.022403210401535034,-0.0013180375099182129,-0.17089205980300903,0.18971189982676914,-0.0857084978038223,-0.8666142836952777,0.45347898990692653,-0.9587997027906086,-2.68928893940111,0.04093081197504612
1780949275807335680,3.3277735710144043,0.07392777502536774,-0.1500159502029419,0.41295382380485535,-0.24668093025684357,0.8201779127120972,0.516194224357605,-0.046776071190834045,-0.03702068328857422,-0.09665387868881226,0.1879711600692613,-0.08692224424798664,-0.8663380525764588,0.45449933535544385,-0.9617218840973281,-2.695793885592074,0.03541578923125404
1780949275817371648,3.3378095626831055,0.04128327965736389,-0.23513510823249817,0.39541158080101013,-0.24236062169075012,0.8214251399040222,0.5162574648857117,0.011861398816108704,-0.05059701204299927,0.017525434494018555,0.18627009428288036,-0.08825569106984132,-0.8662214847916246,0.4551644025559309,-0.9639054362130224,-2.702676706416621,0.02923194807107339
1780949275827406592,3.3478446006774902,0.000721205782610923,-0.321295827627182,0.3577432930469513,-0.23781658709049225,0.8223506212234497,0.5168972015380859,0.06221845746040344,-0.008233249187469482,0.005426347255706787,0.18419335198785164,-0.08923254307981597,-0.8663060395611241,0.45565797963602006,-0.965530017601692,-2.710383860811933,0.023294549272607257
1780949275837441536,3.357879400253296,-0.014132308773696423,-0.31080853939056396,0.36392369866371155,-0.23319973051548004,0.823153555393219,0.5177218914031982,0.0029293596744537354,0.039395153522491455,0.029839694499969482,0.18195985845706703,-0.09002669358482697,-0.8664618558790304,0.45610264268234724,-0.9669427047626915,-2.7183775849130174,0.017568749384644138
1780949275847477504,3.367915391921997,-0.03551562502980232,-0.1946052610874176,0.3714897334575653,-0.22884589433670044,0.8239057660102844,0.5184676647186279,-0.05473865568637848,0.057746946811676025,0.09051066637039185,0.18003206194948415,-0.09110654392118162,-0.8665641449900575,0.45645876384920037,-0.9682687357518784,-2.725922691367913,0.011390384844456808
1780949275857512448,3.377950429916382,0.032885003834962845,-0.20979498326778412,0.36532822251319885,-0.22477507591247559,0.8245953321456909,0.5191519260406494,-0.006960168480873108,0.07872498035430908,0.07479643821716309,0.17830152100506724,-0.0922487315787875,-0.8666407177883332,0.45676317902483177,-0.9694864888164288,-2.7329942302488877,0.0052855176806672404
1780949275867547392,3.3879854679107666,0.05445900559425354,-0.23929482698440552,0.3192582130432129,-0.22081388533115387,0.8257092237472534,0.5190812945365906,0.043659359216690063,0.05011469125747681,-0.05776244401931763,0.17659682685123773,-0.09316197817401731,-0.8665226504600096,0.4574635133087485,-0.9714582987658746,-2.73938863868478,0.00021145551280793274
1780949275877583616,3.3980214595794678,0.1414242535829544,-0.32584330439567566,0.3179689645767212,-0.2166195511817932,0.8269334435462952,0.5188999176025391,0.03348356485366821,0.027940213680267334,-0.03545570373535156,0.17463878597036683,-0.09381616223882044,-0.8663997319740805,0.45831359533262955,-0.9736319958191921,-2.746126433484219,-0.004421029068540458
