time,seconds_elapsed,rotationRateX,rotationRateY,rotationRateZ,gravityX,gravityY,gravityZ,accelerationX,accelerationY,accelerationZ,quaternionW,quaternionX,quaternionY,quaternionZ,pitch,roll,yaw
1781116673279170560,0.23556756973266602,-0.28463682532310486,-0.08777157962322235,0.05306738615036011,0.11250507086515427,-0.36140695214271545,-0.9255958199501038,-0.0014668554067611694,-0.010907500982284546,-0.00718921422958374,-0.8191981158130296,-0.12219566549415553,-0.14923240190888193,-0.540103988779398,0.36977639397958106,0.12095547088099785,1.143133568179664
1781116673289205504,0.24560260772705078,-0.2767104506492615,-0.07934773713350296,0.04501425102353096,0.11157543212175369,-0.3588660657405853,-0.9266963005065918,0.0013090744614601135,0.006418555974960327,0.004272043704986572,-0.8193039465411104,-0.12130562541957715,-0.14811070577327884,-0.5404528303455535,0.3670527413639516,0.11982450172914672,1.1439897015550047
1781116673299240448,0.25563740730285645,-0.2527678608894348,-0.06281629204750061,0.03224199637770653,0.11074698716402054,-0.3564293682575226,-0.9277355670928955,-0.004240646958351135,-0.004715651273727417,0.020173311233520508,-0.8194174000954481,-0.12044010681192141,-0.14705920421830504,-0.5407615399166845,0.36444345985075854,0.11881121811679372,1.144736696180964
1781116673309275392,0.2656724452972412,-0.23189054429531097,-0.041071582585573196,0.050465743988752365,0.11009353399276733,-0.35423627495765686,-0.928652822971344,-0.017610028386116028,-0.01247820258140564,0.031909048557281494,-0.819484819172698,-0.11962828033522438,-0.14615968200035115,-0.5410833709737223,0.36209724947921834,0.118001113221784,1.1455011762675196
1781116673319309568,0.27570652961730957,-0.23283889889717102,-0.03970830887556076,0.07070817053318024,0.10954709351062775,-0.35214945673942566,-0.9295107126235962,-0.01288265734910965,-0.01026204228401184,0.04511129856109619,-0.8194761813015156,-0.11881726321766403,-0.1453516297211544,-0.5414924523365038,0.3598666786601981,0.11731342621810721,1.1464673872767737
1781116673329344512,0.28574156761169434,-0.22049248218536377,-0.023621752858161926,0.0664345920085907,0.10894910246133804,-0.35009944438934326,-0.9303550124168396,0.005339227616786957,0.005311846733093262,0.0511130690574646,-0.819465454916236,-0.11803791030819774,-0.14453214334980818,-0.541898331658993,0.35767725410700024,0.11657392392955312,1.1474356974656572
1781116673339379456,0.2957766056060791,-0.20970135927200317,-0.014151019975543022,0.07257344573736191,0.10851769149303436,-0.34815332293510437,-0.9311354160308838,0.0007047206163406372,0.01555749773979187,0.05404496192932129,-0.81942093903952,-0.11725337957491039,-0.14381908019535533,-0.542325698506171,0.35560045284666064,0.1160200139209069,1.1484363987851005
1781116673349414400,0.30581140518188477,-0.1971575915813446,-0.008060104213654995,0.06160867586731911,0.10813754051923752,-0.3463447690010071,-0.9318538308143616,0.0011153817176818848,0.02587968111038208,0.04664570093154907,-0.8193813194499264,-0.1165203899846845,-0.1431645082365199,-0.542716616326193,0.35367190639761537,0.11552886192137801,1.149347940364892
1781116673359449344,0.31584644317626953,-0.16755549609661102,0.005909507628530264,0.048783425241708755,0.10791104286909103,-0.3446832001209259,-0.9324959516525269,-0.001053735613822937,0.029802829027175903,0.034928202629089355,-0.8193406037288063,-0.11581361135626739,-0.1426156925062037,-0.5430735164856695,0.3519012827715879,0.11521033735159222,1.150161282820348
1781116673369484544,0.3258814811706543,-0.12047585844993591,0.03056558594107628,0.03533206507563591,0.10792896896600723,-0.3433753550052643,-0.932976245880127,-0.01289723813533783,0.02641981840133667,0.02565819025039673,-0.8192974719540121,-0.11520179104351926,-0.14226882578014036,-0.5433596483800794,0.3505084111032473,0.11517050636311639,1.1507849084271253
1781116673379519488,0.33591651916503906,-0.07748125493526459,0.047833122313022614,0.02258111536502838,0.10818342864513397,-0.34249189496040344,-0.9332714676856995,-0.02238326519727707,0.026253491640090942,0.008405745029449463,-0.8192448262025851,-0.11471689023750418,-0.14214181306908882,-0.543574978262457,0.3495679329967327,0.11540344085717368,1.1512239635358301
1781116673389553664,0.3459506034851074,-0.036665916442871094,0.07500907778739929,-0.0021021270658820868,0.10869727283716202,-0.34199148416519165,-0.933395266532898,-0.019570685923099518,0.03167349100112915,0.004943728446960449,-0.8192172648881453,-0.11434261272241872,-0.1422256187551791,-0.5436734741686136,0.3490353449677986,0.115931451214612,1.151360264579425
1781116673399588352,0.3559854030609131,-0.04203937575221062,0.05315358564257622,0.01093058381229639,0.10933350771665573,-0.34160369634628296,-0.9334629774093628,-0.01923035830259323,0.02625030279159546,0.006659388542175293,-0.8191508480966253,-0.11397624161760415,-0.1424005964594718,-0.5438046813945424,0.34862270781798294,0.11659553645483475,1.151564727918242
1781116673409623296,0.36602044105529785,-0.04463755711913109,0.054956547915935516,0.008274613879621029,0.10981811583042145,-0.34121882915496826,-0.9335468411445618,0.0028680413961410522,0.02069270610809326,0.012587368488311768,-0.8190984660469199,-0.11365605339773438,-0.14250923096861864,-0.5439220618321199,0.3482132400632847,0.1170972016511601,1.1517586108771216
1781116673419658496,0.3760554790496826,-0.04475872963666916,0.06264336407184601,0.024174217134714127,0.11030042171478271,-0.3407961428165436,-0.9336443543434143,-0.006281264126300812,0.013922393321990967,0.013798832893371582,-0.8190450680098332,-0.11331903702412341,-0.14260647671822937,-0.5440473542501701,0.34776361160954544,0.11759458137446153,1.151970577757976
1781116673429693440,0.3860905170440674,-0.04833615571260452,0.06548841297626495,0.028614239767193794,0.11084678769111633,-0.34038615226745605,-0.9337292313575745,-0.019889138638973236,0.009209394454956055,0.014936506748199463,-0.8189486006179707,-0.11295918354842999,-0.1427431720187701,-0.5442313416603946,0.3473275364693863,0.11816104779702759,1.152317405799838
1781116673439728384,0.39612555503845215,-0.07173069566488266,0.05447091907262802,0.020128609612584114,0.11135411262512207,-0.3398774266242981,-0.9338541626930237,-0.014903314411640167,0.005069077014923096,0.005295813083648682,-0.8188765074479306,-0.11257144359448976,-0.14283062892428663,-0.5443972980513041,0.34678657454816353,0.11868106569450665,1.152621392746628
1781116673449763584,0.4061605930328369,-0.10053490847349167,0.05073503404855728,0.03749801218509674,0.11174773424863815,-0.33909621834754944,-0.9340910911560059,-0.004035934805870056,-0.0038908421993255615,0.005349636077880859,-0.8188064020369543,-0.11209142909095965,-0.14279339549570164,-0.5446114937464164,0.34595601875518905,0.11906670754876968,1.153046315171352
1781116673459797504,0.41619443893432617,-0.13577891886234283,0.05118897184729576,0.042702894657850266,0.11209007352590561,-0.338034451007843,-0.9344348907470703,-0.0018758326768875122,-0.013879001140594482,0.014268875122070312,-0.8187342504042523,-0.1114976892117084,-0.1426563451180426,-0.5448776566857246,0.3448276353413975,0.11938449927310912,1.1535919779570387
1781116673469832448,0.42622947692871094,-0.16763006150722504,0.048146042972803116,0.057800088077783585,0.11240937560796738,-0.3366668224334717,-0.9348901510238647,-0.0051095858216285706,-0.023104935884475708,0.012389540672302246,-0.8186347735897129,-0.11076469491300212,-0.1424293033371824,-0.5452359265714463,0.3433748135672623,0.1196636007289679,1.1543514190833901
1781116673479867392,0.4362645149230957,-0.18502822518348694,0.04475557431578636,0.05165404453873634,0.11265331506729126,-0.3350805342197418,-0.9354305267333984,0.008135251700878143,-0.013201326131820679,0.010152816772460938,-0.8185569989142725,-0.10995943545369061,-0.14210440962107396,-0.5456003008617102,0.3416907193134075,0.1198521877382922,1.1551268361666511
1781116673489902592,0.44629955291748047,-0.19723136723041534,0.04424344748258591,0.039388056844472885,0.11291003227233887,-0.33333325386047363,-0.9360236525535583,0.008916132152080536,-0.005869626998901367,0.01236337423324585,-0.8185058286300572,-0.1090854966264187,-0.1417340142535065,-0.5459488257445317,0.3398368390068181,0.12004730747110332,1.1558550623350057
1781116673499937536,0.45633459091186523,-0.21407505869865417,0.05871826037764549,0.025257591158151627,0.11325627565383911,-0.33144626021385193,-0.9366517066955566,4.0240585803985596e-05,-0.008626371622085571,0.00975656509399414,-0.8185062080940809,-0.10813828298088785,-0.14135155995396353,-0.5462357111409613,0.33783606344121886,0.12033192826536926,1.1564146697000703
1781116673509972480,0.46636962890625,-0.2490045428276062,0.052729345858097076,0.04007169231772423,0.11371176689863205,-0.3292944133281708,-0.9373552203178406,-0.011905118823051453,-0.014882832765579224,0.006569087505340576,-0.8184842596541245,-0.1070369177106399,-0.14094497401853553,-0.5465904772219241,0.3355562274409258,0.12072139398966589,1.1571141651065682
1781116673520006400,0.47640347480773926,-0.2922305762767792,0.04504586011171341,0.01600816659629345,0.11407358199357986,-0.32680851221084595,-0.9381809234619141,0.011231601238250732,-0.007175862789154053,0.010080337524414062,-0.8185299688640032,-0.10582901008405357,-0.14039147677404226,-0.5468995806542949,0.33292468267462444,0.12099623039143317,1.1577020236249294
1781116673530041344,0.486438512802124,-0.303307443857193,0.03672880679368973,0.019419675692915916,0.11439283937215805,-0.3239898085594177,-0.9391192197799683,0.01216355711221695,-0.0023499131202697754,0.009691119194030762,-0.8186020675022964,-0.10449105608954364,-0.13972120694656348,-0.5472205192853474,0.3299437488809584,0.12121151265631178,1.1583123436392726
1781116673540076544,0.4964735507965088,-0.3314072787761688,0.03128557279706001,0.002865999937057495,0.11469829827547073,-0.3210209608078003,-0.9401009678840637,0.005113713443279266,0.000723719596862793,0.00998622179031372,-0.8187129307508119,-0.10310098792001564,-0.1389953175239229,-0.5475031432805343,0.3268073188577857,0.12140633214197898,1.1588276688166905
1781116673550111488,0.5065085887908936,-0.3498033285140991,0.02856435254216194,-0.002531694946810603,0.11500081419944763,-0.3177887499332428,-0.941161572933197,0.0015610754489898682,0.006478935480117798,0.02200263738632202,-0.8188559046770659,-0.10160347277078285,-0.13818805770276565,-0.5477735877708756,0.3233964214003457,0.12158757008666746,1.1593059275543725
1781116673560146688,0.5165436267852783,-0.349033921957016,0.039904095232486725,-0.015498360618948936,0.11536065489053726,-0.3144640624523163,-0.942233681678772,0.003078073263168335,0.013453930616378784,0.031116127967834473,-0.8190392139629195,-0.10006111246691866,-0.13737155095238612,-0.5479887173551745,0.31989202998588956,0.12182685969671297,1.1596420662260583
1781116673570181376,0.526578426361084,-0.3618330955505371,0.054499149322509766,-0.0013556431513279676,0.11586423963308334,-0.31109824776649475,-0.9432885646820068,-8.05482268333435e-05,0.012087017297744751,0.033452749252319336,-0.8192071588796764,-0.09845935378742354,-0.136606955659689,-0.5482188598337188,0.31634839041628343,0.12221792141083632,1.1599996913670985
1781116673580216320,0.5366134643554688,-0.414555162191391,0.060141053050756454,0.00345162907615304,0.11637452244758606,-0.3074304759502411,-0.9444276094436646,0.0032391324639320374,-0.00035455822944641113,0.02899181842803955,-0.8193733530164256,-0.09672261919376637,-0.13576060776445048,-0.5484897442357275,0.3124915519362003,0.12260424196348044,1.1604495609455279
1781116673590250496,0.5466475486755371,-0.44501638412475586,0.05462618172168732,-0.015028311870992184,0.11691335588693619,-0.30333998799324036,-0.9456828832626343,-0.007721453905105591,-0.029347389936447144,0.027225852012634277,-0.8195313712524642,-0.0947901576563093,-0.13480870199704056,-0.5488257730475299,0.30819585803414606,0.12300436925988296,1.1610453142655057
1781116673600285440,0.5566825866699219,-0.5054248571395874,0.09202082455158234,-0.015974266454577446,0.11764704436063766,-0.29881539940834045,-0.9470314383506775,-0.02548396587371826,-0.050381988286972046,0.01218646764755249,-0.819776182836477,-0.09263575958678291,-0.13380171335608482,-0.5490745046088122,0.3034510954838007,0.12359399549022534,1.161396844603365
1781116673610320640,0.5667176246643066,-0.5801891088485718,0.07425834238529205,0.03275785222649574,0.11851659417152405,-0.29364830255508423,-0.948538064956665,-0.04077306389808655,-0.03868812322616577,0.01872849464416504,-0.8199131073870952,-0.09013659489871169,-0.13268892750860223,-0.5495558480106929,0.29804117445343764,0.12430240254171288,1.1622884429225389
1781116673620355328,0.5767524242401123,-0.6509868502616882,0.046065181493759155,-0.01798122562468052,0.11899445950984955,-0.2878148555755615,-0.9502646923065186,0.008294366300106049,-0.023647546768188477,0.020958662033081055,-0.8201434377433767,-0.08747675203450879,-0.13120779570552463,-0.5499973620067398,0.2919443566914097,0.12457400600357109,1.1631191188111032
1781116673630390528,0.5867874622344971,-0.705615222454071,0.06215600296854973,0.006059928797185421,0.11955339461565018,-0.2813144326210022,-0.9521392583847046,-0.001252003014087677,-0.020687520503997803,0.01428830623626709,-0.8204283906328145,-0.08451921162416005,-0.129564166404194,-0.5504242446049632,0.28516358979189604,0.12490922507285347,1.1638989799482966
1781116673640425472,0.5968225002288818,-0.7608502507209778,0.030732300132513046,-0.021912850439548492,0.11999236792325974,-0.2743130326271057,-0.9541248083114624,-0.013882763683795929,-0.005151659250259399,0.013405263423919678,-0.8207073814097935,-0.08137951118311582,-0.12773002591074065,-0.5509100427629489,0.27787526598766205,0.12510491536066573,1.1648382652626563
1781116673650459648,0.6068565845489502,-0.8936652541160583,0.050404272973537445,0.0034923753701150417,0.12041942030191422,-0.2664059102535248,-0.9563090801239014,-0.019314683973789215,-0.01093783974647522,0.018397092819213867,-0.8210666028010581,-0.07787207943656119,-0.12562404359752946,-0.5513657514574061,0.2696622603433309,0.1252617457889089,1.1657012764236079
1781116673660494592,0.616891622543335,-1.043196439743042,-0.010871202684938908,-0.035106416791677475,0.12063176184892654,-0.2570699453353882,-0.9588342308998108,-0.019527025520801544,-0.021799713373184204,0.03525024652481079,-0.8208906131271064,-0.07368900593647369,-0.12309682176776161,-0.5527710016811017,0.2599890122989808,0.12515330375606595,1.1688888213150241
1781116673670529280,0.6269264221191406,-1.225502610206604,0.08106431365013123,-0.03863164409995079,0.12101700156927109,-0.24613721668720245,-0.9616503119468689,-0.005675822496414185,-0.03372421860694885,0.05547666549682617,-0.8214810631960654,-0.06894929217190891,-0.12008675932744196,-0.5531673422053447,0.24869283790956306,0.1251849814938358,1.1696020736673192
1781116673680564480,0.6369614601135254,-1.3282414674758911,0.04192556440830231,-0.019817475229501724,0.12160246819257736,-0.23378010094165802,-0.9646552205085754,-0.042973920702934265,-0.03585796058177948,0.08001166582107544,-0.8218727969190086,-0.06351072748715038,-0.11678516529486614,-0.5539429094071711,0.23596371813361305,0.12539653892154828,1.1712430431053107
1781116673690597888,0.6469948291778564,-1.499118685722351,0.05115608125925064,-0.027747835963964462,0.12220236659049988,-0.22002747654914856,-0.9678091406822205,0.004170931875705719,-0.03328368067741394,0.07759612798690796,-0.822375640277925,-0.05751036386580076,-0.11308403253478298,-0.5546195314447384,0.2218426314204241,0.12560231841652467,1.1726828028953316
1781116673700632576,0.6570296287536621,-1.6316938400268555,0.04361587390303612,-0.02809404581785202,0.12265525013208389,-0.20478156208992004,-0.9710922837257385,-0.0027669519186019897,-0.056433647871017456,0.07038122415542603,-0.8228381831655779,-0.05092496046212274,-0.1089059842307589,-0.5554128431862332,0.20624054133205535,0.1256411712469219,1.174475188784794
1781116673710667520,0.6670646667480469,-1.7510566711425781,0.056176140904426575,-0.02224814146757126,0.12322068959474564,-0.18820033967494965,-0.9743701815605164,-0.024633653461933136,-0.08760227262973785,0.07727545499801636,-0.823285388806953,-0.043762895481679255,-0.10440166323605796,-0.5562250423266824,0.18932942385462004,0.1257941274909267,1.1763863283426406
1781116673720701696,0.6770987510681152,-1.8332167863845825,0.0573926717042923,-0.04168522357940674,0.12380755692720413,-0.170577272772789,-0.9775351881980896,-0.03468097746372223,-0.0971992015838623,0.08057785034179688,-0.8237127631780046,-0.03617842969314293,-0.09961685822161377,-0.5570141849556076,0.1714155004179618,0.12598202150485766,1.1783414066864997
1781116673730736640,0.6871337890625,-1.8083953857421875,0.07716105133295059,-0.11124299466609955,0.12449942529201508,-0.1526249647140503,-0.9804108738899231,-0.03226005285978317,-0.07923233509063721,0.0773347020149231,-0.8241571868503309,-0.02845884455001386,-0.09478738908128267,-0.5576471898523631,0.15322381440150565,0.12631093323408019,1.1800246984084684
1781116673740771840,0.6971688270568848,-1.690837025642395,0.15407806634902954,-0.11010768264532089,0.12584015727043152,-0.13497352600097656,-0.9828256964683533,-0.04611298441886902,-0.027898788452148438,0.07874244451522827,-0.8246977153463332,-0.020729145317769523,-0.090318549852241,-0.5579306414285505,0.13538674843697773,0.12734624299336797,1.180951267607031
1781116673750806528,0.7072036266326904,-1.423590898513794,0.19944103062152863,-0.04378725588321686,0.12760275602340698,-0.1196562871336937,-0.9845810532569885,-0.033547595143318176,0.07049247622489929,0.1099625825881958,-0.8249502906277191,-0.013838853260038935,-0.08670608766009424,-0.558343467768588,0.11994367520806962,0.12888268012705265,1.1822494594496107
1781116673760841728,0.7172386646270752,-1.3450162410736084,0.22535037994384766,-0.07688368856906891,0.12980207800865173,-0.10595755279064178,-0.9858622550964355,0.022892609238624573,0.07067923992872238,0.03916126489639282,-0.825074264204095,-0.0075020451597594025,-0.08374117291943488,-0.5587339172627791,0.10615682866154487,0.13091051088374697,1.183543433364974
1781116673770876672,0.72727370262146,-1.2514705657958984,0.2188117802143097,-0.15613803267478943,0.13211849331855774,-0.09289819747209549,-0.9868711233139038,0.00893375277519226,0.03062707930803299,0.013696074485778809,-0.8253449659678491,-0.0014329876645412013,-0.0810085245448182,-0.5587855003279332,0.09303233747677671,0.13308481239848716,1.1840853199013317
1781116673780910848,0.7373077869415283,-1.0159940719604492,0.21551626920700073,-0.1674700379371643,0.13440285623073578,-0.08137543499469757,-0.9875798225402832,0.018261343240737915,0.04739411175251007,0.013260364532470703,-0.8257138610763666,0.003964066930172359,-0.07870434147449872,-0.5585575361764582,0.0814655156207492,0.13526215682757792,1.1839748402274468
1781116673790945792,0.7473428249359131,-0.7235713005065918,0.2549595534801483,-0.17659030854701996,0.1368568390607834,-0.07252112030982971,-0.9879326224327087,0.02079695463180542,0.11301795393228531,-0.016095638275146484,-0.8260717697550052,0.008291999434358242,-0.0772329278286726,-0.5581861170012221,0.07258484235392441,0.13765245232594608,1.1834706300096607
1781116673800980480,0.7573776245117188,-0.3931233584880829,0.27008920907974243,-0.17896771430969238,0.1396172195672989,-0.06671897321939468,-0.9879552721977234,-0.007170930504798889,0.15134422481060028,-0.06314641237258911,-0.8264401088360068,0.011428023862243392,-0.07675785266800056,-0.5576506357210292,0.06676857457231489,0.14038972393638002,1.1824763159784974
1781116673811015680,0.7674126625061035,-0.12382718175649643,0.2824558615684509,-0.1731194108724594,0.1424863636493683,-0.06398604065179825,-0.9877263903617859,-0.025878697633743286,0.14523908495903015,-0.10883122682571411,-0.8268049802018563,0.013312647490112666,-0.07719830920377067,-0.5570067881702135,0.06402978075275544,0.14326856299475496,1.1810962722628702
1781116673821050624,0.7774477005004883,0.07990517467260361,0.25848275423049927,-0.16866900026798248,0.14531198143959045,-0.06353675574064255,-0.9873436689376831,-0.028795868158340454,0.12592993676662445,-0.1520453691482544,-0.8271756153806415,0.014229414716729668,-0.07826680091560714,-0.5562844083042471,0.06357957895592613,0.14612565365998617,1.179419924313478
1781116673831085568,0.787482738494873,0.2132166177034378,0.2079431563615799,-0.15862728655338287,0.14772000908851624,-0.06479378044605255,-0.9869045615196228,-0.010299339890480042,0.10162849724292755,-0.1473727822303772,-0.8275579006482772,0.014313980597507821,-0.07964195441577752,-0.5555179895455067,0.06483920377646075,0.14857710668347723,1.1775435161347712
1781116673841120768,0.7975177764892578,0.2777455449104309,0.16780440509319305,-0.1396075189113617,0.14967018365859985,-0.06702571362257004,-0.9864615797996521,0.011416852474212646,0.08010249584913254,-0.1359444260597229,-0.8279161259516046,0.013865361515499898,-0.08109855794119114,-0.5547843842791467,0.06707600091550579,0.15057586817117616,1.1756864179841287
1781116673851154688,0.8075516223907471,0.3082254230976105,0.13169673085212708,-0.12252840399742126,0.15124809741973877,-0.06974775344133377,-0.9860320687294006,0.016827434301376343,0.05683882534503937,-0.11128842830657959,-0.8282371308911228,0.013111869234366517,-0.08253508024354528,-0.5541112260946464,0.06980443015685822,0.15220432847368037,1.173942099728616
1781116673861189632,0.8175866603851318,0.3302135467529297,0.1003478616476059,-0.11083685606718063,0.15245655179023743,-0.07271935790777206,-0.9856312274932861,0.017587393522262573,0.028484128415584564,-0.08114123344421387,-0.8285360839968068,0.012153064525218842,-0.08388501399512843,-0.5534830314038329,0.07278360295553625,0.1534629163662699,1.172286826509794
1781116673871224576,0.8276216983795166,0.3480788469314575,0.07858744263648987,-0.09991203993558884,0.1534077227115631,-0.07590479403734207,-0.9852433800697327,0.017841652035713196,0.02254481613636017,-0.05069100856781006,-0.828814099785286,0.011034843900894572,-0.08518531605208127,-0.5528914110543056,0.07597786843187948,0.1544650838100214,1.1707051508302893
1781116673881259776,0.8376567363739014,0.35405096411705017,0.06793013215065002,-0.10239783674478531,0.15421566367149353,-0.07922975718975067,-0.9848554134368896,0.021367207169532776,0.02989809215068817,-0.02133965492248535,-0.8290794904415384,0.009818493756069052,-0.08646324672445986,-0.5523177992025098,0.07931288392807585,0.1553258055166981,1.1691586682257493
1781116673891294720,0.8476917743682861,0.33717453479766846,0.06801588833332062,-0.10657180845737457,0.15496350824832916,-0.08251625299453735,-0.9844680428504944,0.022648796439170837,0.025051653385162354,0.00418245792388916,-0.8293529396854097,0.008598362495805855,-0.08770423396893323,-0.5517316589785379,0.08261017992754159,0.15612729699800387,1.1675845445754363
1781116673901329664,0.8577268123626709,0.2849515378475189,0.07804521918296814,-0.1141975000500679,0.15576747059822083,-0.08542843163013458,-0.9840927124023438,0.012704819440841675,0.0073492079973220825,0.02597808837890625,-0.8296386318618582,0.00754684800503917,-0.08886330384641379,-0.5511315778864395,0.08553268485600728,0.15698297774922426,1.1659975449597457
1781116673911363584,0.8677606582641602,0.2415105700492859,0.09222042560577393,-0.10523782670497894,0.1567152887582779,-0.08783698081970215,-0.983730137348175,0.005653485655784607,-0.008384943008422852,0.05588895082473755,-0.8299137265950076,0.006746335631553776,-0.08994119068156252,-0.5505527114076808,0.08795032228176698,0.1579796726528751,1.1644890177112137
1781116673921398528,0.8777956962585449,0.19491031765937805,0.11519671231508255,-0.1021280586719513,0.15781892836093903,-0.08984579890966415,-0.9833722114562988,-0.0002566725015640259,-0.031736232340335846,0.07454347610473633,-0.8301578215418544,0.006160056654614433,-0.09097221377170428,-0.550022009172679,0.08996711894140705,0.15913053166304428,1.1631178424609925
1781116673931433728,0.8878307342529297,0.13761746883392334,0.1467333436012268,-0.1047225072979927,0.15919852256774902,-0.09132004529237747,-0.9830139875411987,-0.0037419795989990234,-0.03805922716856003,0.07426154613494873,-0.8303878825658214,0.005875078548093894,-0.09197007568771681,-0.5495115157666904,0.09144744698389534,0.16055541873920834,1.1618238235200973
1781116673941468672,0.8978657722473145,0.09744341671466827,0.17879660427570343,-0.11746226996183395,0.1609005331993103,-0.09229578822851181,-0.9826456904411316,0.0032687634229660034,-0.01674351841211319,0.08117169141769409,-0.8306163561231311,0.005886959125664982,-0.09296510479679367,-0.5489984575951463,0.09242733122473921,0.16230188124282008,1.1605508533624407
1781116673951503872,0.9079008102416992,0.0839047059416771,0.20891162753105164,-0.13837528228759766,0.16292516887187958,-0.09297773987054825,-0.9822477102279663,0.013161242008209229,0.014333941042423248,0.08672463893890381,-0.8308814047005276,0.00610279827710003,-0.09401548410132778,-0.5484157331494525,0.09311222516246288,0.16437319652330631,1.1591275568696453
1781116673961538560,0.9179356098175049,0.11127161234617233,0.2601955831050873,-0.17231780290603638,0.16537907719612122,-0.0936625599861145,-0.9817724227905273,0.011805981397628784,0.0483439564704895,0.08978939056396484,-0.8311985735321235,0.006423011811254606,-0.09524985054850635,-0.5477182035099474,0.09380004619371646,0.16688283012829036,1.1574316846611956
1781116673971573504,0.9279706478118896,0.16897138953208923,0.31198206543922424,-0.21145480871200562,0.16838014125823975,-0.09469552338123322,-0.9811630249023438,0.002976059913635254,0.08465524017810822,0.09528350830078125,-0.8315880685379679,0.00672872903195069,-0.0968153379922931,-0.5468482072937074,0.09483762693808699,0.1699572494219683,1.1553073885306564
1781116673981607680,0.938004732131958,0.25870421528816223,0.370719313621521,-0.256549596786499,0.17195595800876617,-0.09637141227722168,-0.9803793430328369,-0.006688013672828674,0.12388300895690918,0.09440827369689941,-0.8320665177157652,0.0068973680350406736,-0.09880660144238985,-0.545760863973475,0.09652121536131684,0.17363119730253168,1.1526303134203624
1781116673991642624,0.9480397701263428,0.3577256202697754,0.421078622341156,-0.32421863079071045,0.1761368066072464,-0.09888914227485657,-0.9793859124183655,-0.009175121784210205,0.15614011883735657,0.09199577569961548,-0.832673643912041,0.006841840950101119,-0.101292808810972,-0.544378156122645,0.09905103097919361,0.1779419505238646,1.149200554294908
1781116674001677824,0.9580748081207275,0.4767095148563385,0.46881404519081116,-0.3949649930000305,0.1808626502752304,-0.10230394452810287,-0.9781730771064758,-0.005584940314292908,0.18264147639274597,0.08535081148147583,-0.8334334292518616,0.0065123837574884635,-0.10426428740785451,-0.5426557043706632,0.10248324357099818,0.18283353603707253,1.1449052844378615
1781116674011712512,0.9681096076965332,0.6471475958824158,0.5215691328048706,-0.47957441210746765,0.18616749346256256,-0.10702041536569595,-0.9766720533370972,-0.003168836236000061,0.19999220967292786,0.07687652111053467,-0.8343779433268785,0.005731684610916831,-0.10784767646495613,-0.5405086198647577,0.1072257659626415,0.1883546132188058,1.139514065786341
1781116674021747712,0.978144645690918,0.7882549166679382,0.5669002532958984,-0.5229218602180481,0.1920701116323471,-0.11309318989515305,-0.9748430848121643,-0.004097104072570801,0.20902520418167114,0.0721026062965393,-0.8354564728665298,0.004480097819923739,-0.11206425586509472,-0.5379906380276555,0.1133356640505104,0.1945349952425822,1.1331475308903152
1781116674031782656,0.9881796836853027,0.9244223237037659,0.611907958984375,-0.5439518094062805,0.19843369722366333,-0.120416060090065,-0.9726890921592712,-0.00368577241897583,0.215447798371315,0.07196277379989624,-0.8365717867326009,0.0027753301962559996,-0.11682363227993196,-0.5352495117281997,0.12070897977880572,0.2012437987845138,1.1261591220917837
1781116674041816832,0.9982137680053711,1.0189176797866821,0.661826491355896,-0.5862355828285217,0.2053585648536682,-0.12881027162075043,-0.9701730608940125,-0.027929365634918213,0.19588790833950043,0.06683748960494995,-0.8377086116728069,0.0007128804716976723,-0.12211862739796805,-0.5322883187879561,0.12916915680583851,0.20859312686708487,1.1185605843019715
1781116674051851776,1.0082488059997559,1.0463671684265137,0.6984719038009644,-0.6342912912368774,0.21279007196426392,-0.1375957429409027,-0.9673612713813782,-0.050665438175201416,0.1787944734096527,0.061050236225128174,-0.8389016882041841,-0.001446874077361254,-0.12773910377801118,-0.5290790925392673,0.13803366365849623,0.2165213175598138,1.1103219949737735
1781116674061886464,1.0182836055755615,1.0333027839660645,0.7222261428833008,-0.682826578617096,0.22060798108577728,-0.14627490937709808,-0.9643317461013794,-0.05064034461975098,0.17123830318450928,0.06873244047164917,-0.8401714003380463,-0.003532855627293416,-0.13349768418080615,-0.525621489319789,0.14680162384314052,0.2248977072930032,1.101471856100075
1781116674071921664,1.0283186435699463,0.97029048204422,0.7344388961791992,-0.7177619338035583,0.2287082076072693,-0.15438421070575714,-0.9611753821372986,-0.05649751424789429,0.16004522144794464,0.07596725225448608,-0.8414914280957753,-0.005368305455609626,-0.13922463705880253,-0.5219961196211861,0.15500415719794663,0.2336023136623441,1.092234023610217
1781116674081956608,1.038353681564331,0.891988217830658,0.7336714267730713,-0.7705996036529541,0.23697921633720398,-0.16160669922828674,-0.9579792022705078,-0.06527206301689148,0.13966456055641174,0.07217597961425781,-0.8428733392094296,-0.0068469175737389965,-0.14478786566112206,-0.5182220583192332,0.16231853776140745,0.24250568219593754,1.0826806662460768
1781116674091991552,1.0483887195587158,0.8494641780853271,0.747435450553894,-0.8446213603019714,0.24541446566581726,-0.16798803210258484,-0.9547522068023682,-0.06742069125175476,0.11395666003227234,0.06269288063049316,-0.8443868426671381,-0.00801034236525169,-0.1501989744960335,-0.5141858669704147,0.16878834375843738,0.25159836394335855,1.0725467316459842
1781116674102025728,1.0584228038787842,0.8209904432296753,0.775911271572113,-0.908538818359375,0.254197359085083,-0.1737746298313141,-0.9514126777648926,-0.06988644599914551,0.1108931452035904,0.07867097854614258,-0.8460242938680175,-0.008924021109168071,-0.15560854823009884,-0.5098522824007186,0.1746613238960137,0.2610805226213552,1.0617360292390796
1781116674112060672,1.0684576034545898,0.7928094267845154,0.7299770712852478,-0.9209912419319153,0.26300132274627686,-0.17901204526424408,-0.9480426907539368,-0.058792948722839355,0.12137959897518158,0.09751784801483154,-0.8477297471752807,-0.009674790698463817,-0.16088828143904843,-0.5053470503275845,0.17998219154424125,0.2706100668142034,1.0505532334814676
1781116674122095616,1.0784926414489746,0.8917226791381836,0.8008929491043091,-0.8682630658149719,0.2718448042869568,-0.18447716534137726,-0.94449383020401,-0.024286240339279175,0.07710106670856476,0.00798565149307251,-0.8493589748883946,-0.010562030323669315,-0.16625743605542354,-0.5008354892691229,0.1855398645773304,0.2802459546494271,1.03932428071882
1781116674132130560,1.0885276794433594,1.1166088581085205,0.6184235215187073,-0.6297479271888733,0.28003165125846863,-0.19206127524375916,-0.9405820965766907,0.01980358362197876,-0.052781254053115845,0.004226565361022949,-0.8505558665022555,-0.012485497894006345,-0.1719100053559412,-0.49683568583284876,0.19326209727460486,0.2893652401809798,1.0290935553004155
1781116674142165760,1.0985627174377441,1.0184004306793213,0.7494998574256897,-0.7721996307373047,0.28764110803604126,-0.2003781497478485,-0.9365421533584595,0.03726428747177124,-0.23197965323925018,0.026218056678771973,-0.8515814051110431,-0.014883274998901625,-0.17750325955760435,-0.49303180308391203,0.20174387832003277,0.2979860532496742,1.0192273912571301
1781116674152200704,1.108597755432129,0.797099232673645,0.6965740919113159,-0.8209120631217957,0.2962913513183594,-0.2063901424407959,-0.9325312972068787,-0.08048632740974426,-0.3003084659576416,-0.012796461582183838,-0.8528534603758442,-0.016144109935457226,-0.18295828329336,-0.4887808703279254,0.20788422140681956,0.3076406790313581,1.0084839735858842
1781116674162235648,1.1186327934265137,0.8123937845230103,0.633946418762207,-0.7440462708473206,0.3040182590484619,-0.21143998205661774,-0.9289058446884155,-0.013368844985961914,-0.16595564782619476,0.05032002925872803,-0.8540826301874607,-0.01721709969835552,-0.18775156476591603,-0.4847638111903164,0.2130480149824038,0.3162984754316957,0.9983837466463061
1781116674172269568,1.128666639328003,0.8327698707580566,0.6593945026397705,-0.7217918634414673,0.3116247057914734,-0.21690136194229126,-0.9251182675361633,0.047429829835891724,-0.059328481554985046,0.038124918937683105,-0.8551598640097496,-0.018506040219414543,-0.19260939793130322,-0.48089583973208844,0.21863914038709298,0.3249108498952785,0.9885707067867362
1781116674182304512,1.1387016773223877,0.688387393951416,0.6403053402900696,-0.7143996953964233,0.31923580169677734,-0.22176694869995117,-0.9213619828224182,0.025551795959472656,-0.08845949172973633,0.022649824619293213,-0.8561672491698231,-0.01954380244289078,-0.19732471488953315,-0.47713594142308224,0.2236261738385235,0.33353776713347955,0.9790536443365447
1781116674192339712,1.1487367153167725,0.4848127067089081,0.5933597087860107,-0.7487382292747498,0.3265876770019531,-0.22479858994483948,-0.9180446863174438,0.026378601789474487,-0.13373717665672302,0.027434945106506348,-0.8572289014446741,-0.019849333524191187,-0.20145384593557614,-0.4734775550745714,0.22673633450788558,0.34178161076673985,0.9699761401146061
1781116674202374656,1.1587717533111572,0.33529168367385864,0.5417649149894714,-0.7751464247703552,0.3335389792919159,-0.22599518299102783,-0.9152474403381348,0.037310630083084106,-0.12274444103240967,0.024897098541259766,-0.858419591150906,-0.019471275011919947,-0.20493202515778652,-0.4698293013651408,0.22796453450519616,0.34946728328987303,0.9611518336643117
1781116674212409856,1.168806791305542,0.24264827370643616,0.5188705325126648,-0.7570390701293945,0.34013432264328003,-0.2260192334651947,-0.9128110408782959,0.04934626817703247,-0.0749146044254303,0.011169195175170898,-0.8596488187385193,-0.01866473304765971,-0.20795701716390827,-0.46627184397456456,0.2279892200990422,0.35668505114857585,0.952706227258381
1781116674222444800,1.1788418292999268,0.15850622951984406,0.5050921440124512,-0.7243846654891968,0.3464875817298889,-0.22531472146511078,-0.9105930328369141,0.040063321590423584,-0.05097617208957672,-0.012380599975585938,-0.8608187190592608,-0.017566162382590064,-0.2107010197876946,-0.4629122241762941,0.22726604857332164,0.3635905022514477,0.9448400774044464
1781116674232478720,1.188875675201416,0.04321480169892311,0.49469277262687683,-0.6823158264160156,0.3526543378829956,-0.2237725406885147,-0.9086037278175354,0.019476979970932007,-0.08375309407711029,-0.0354117751121521,-0.8619078016387907,-0.016095815824520257,-0.21316438425582487,-0.4598008422670586,0.22568346262484132,0.37022999461466827,0.9376902827098496
1781116674242513664,1.1989107131958008,-0.047328680753707886,0.46134307980537415,-0.6279487013816833,0.3584989011287689,-0.2213938683271408,-0.9068976044654846,0.014013916254043579,-0.12470598518848419,-0.05223935842514038,-0.8628985400431426,-0.014266197226817944,-0.21528510104883275,-0.45700632087598203,0.22324357431250802,0.37645028392746077,0.9314255537086651
1781116674252548608,1.2089457511901855,-0.08777330815792084,0.42603808641433716,-0.5594745874404907,0.363847553730011,-0.218595951795578,-0.9054450392723083,0.029890209436416626,-0.1346297562122345,-0.06510543823242188,-0.8637818638130511,-0.012300117758689196,-0.217085637483068,-0.45453654821575057,0.22037539010597643,0.3820949254951628,0.9260121102717709
1781116674262583808,1.2189807891845703,-0.07473154366016388,0.3939921259880066,-0.4838770031929016,0.36870381236076355,-0.21591705083847046,-0.9041224122047424,0.04194071888923645,-0.12702421844005585,-0.07959645986557007,-0.8645291837757563,-0.01043591459883907,-0.2187004620858602,-0.4523830192339132,0.21763094299169233,0.38721492699669197,0.9213489888480755
1781116674272618752,1.229015827178955,-0.04982965439558029,0.3646387755870819,-0.40781232714653015,0.3730911910533905,-0.2137007862329483,-0.9028482437133789,0.041261225938797,-0.1216721385717392,-0.1000967025756836,-0.865122593382949,-0.008820786682470168,-0.22022279929811847,-0.45054068305396777,0.21536169779037925,0.3918660974352455,0.9173656819399888
1781116674282653696,1.2390506267547607,-0.022467805072665215,0.3206406831741333,-0.33344516158103943,0.3769884407520294,-0.21197685599327087,-0.901634931564331,0.03942391276359558,-0.12718024849891663,-0.11550068855285645,-0.8655821789629551,-0.007479002008058641,-0.22164522294204678,-0.44898209357468555,0.2135973410217905,0.3960258419585018,0.9139855943201451
1781116674292688640,1.2490856647491455,-0.007324806414544582,0.267910361289978,-0.26275235414505005,0.38028818368911743,-0.2107168287038803,-0.9005439281463623,0.04566091299057007,-0.1355966478586197,-0.1280663013458252,-0.8659238245392196,-0.006421502367364953,-0.22290539455305844,-0.44771408030927934,0.21230819767881073,0.3995706657727684,0.9112221501992559
1781116674302722816,1.2591197490692139,-0.007710432633757591,0.2078399658203125,-0.18947255611419678,0.38290172815322876,-0.20979759097099304,-0.8996506333351135,0.05424731969833374,-0.13906410336494446,-0.13893884420394897,-0.8661625522032661,-0.005609754829668661,-0.22392683103967362,-0.44675233479510795,0.2113679362203292,0.40238855773776133,0.9091252137030503
1781116674312757760,1.2691547870635986,-0.03612236678600311,0.14449535310268402,-0.11175724864006042,0.3848131597042084,-0.20904570817947388,-0.8990098834037781,0.060850292444229126,-0.14916962385177612,-0.14022046327590942,-0.8662975797874274,-0.0049596674760164034,-0.22465633472023022,-0.4461316596996242,0.2105989998695286,0.40444364226311247,0.9077984024963001
1781116674322792704,1.2791898250579834,-0.08537299931049347,0.07673747092485428,-0.044060494750738144,0.38598400354385376,-0.20819906890392303,-0.8987043499946594,0.06476062536239624,-0.17056985199451447,-0.13489550352096558,-0.8663465208752619,-0.004358593628181088,-0.22500851057159718,-0.4458652626601061,0.20973331083178476,0.40566705549522714,0.907311447601873
1781116674332827648,1.289224624633789,-0.13095034658908844,0.014677565544843674,0.015226795338094234,0.3864259123802185,-0.20717692375183105,-0.8987506628036499,0.072238028049469,-0.18550799787044525,-0.1264415979385376,-0.8663279679520047,-0.003773714349820396,-0.22496763462637642,-0.44592721496645804,0.20868839442068224,0.406063432372677,0.9076158208112147
1781116674342862592,1.2992596626281738,-0.13370539247989655,-0.04662693664431572,0.06430965662002563,0.3861982524394989,-0.20611368119716644,-0.8990929126739502,0.0748460590839386,-0.18031515181064606,-0.1166083812713623,-0.8662577287602382,-0.0032670637694085067,-0.2245949047018858,-0.4462555492970924,0.20760169241456242,0.4057115448789959,0.9085453117073827
1781116674352897536,1.3092947006225586,-0.1254620999097824,-0.09067055583000183,0.11247425526380539,0.3853839337825775,-0.20528893172740936,-0.8996308445930481,0.07645383477210999,-0.16008277237415314,-0.10809004306793213,-0.8661353158079675,-0.0029588123428285922,-0.2239995751144378,-0.4467943049806406,0.20675891858852233,0.4047300994953621,0.9099245054462718
1781116674362931712,1.319328784942627,-0.11815784871578217,-0.1253659576177597,0.1694195568561554,0.38411396741867065,-0.204755499958992,-0.9002953171730042,0.07082682847976685,-0.1401694416999817,-0.09793466329574585,-0.8659396032154345,-0.0028404533840629513,-0.22325831245986463,-0.4475447494201047,0.20621390143623347,0.4032701751610556,0.9117472680197668
1781116674372966656,1.3293638229370117,-0.13350538909435272,-0.16340628266334534,0.2147873044013977,0.382413387298584,-0.2043832689523697,-0.9011034965515137,0.06717154383659363,-0.1356283277273178,-0.08159303665161133,-0.8656703954633842,-0.0028457250455930765,-0.2223514276585524,-0.4485160181915404,0.2058336403290725,0.40134829184535564,0.9140560661243162
1781116674383001600,1.3393986225128174,-0.17211535573005676,-0.19971156120300293,0.26038622856140137,0.38027969002723694,-0.20393964648246765,-0.9021064043045044,0.06872540712356567,-0.13718584179878235,-0.0648125410079956,-0.8653388001089167,-0.0028705405322578805,-0.22122059765863003,-0.44971324196484497,0.20538046594475237,0.39894176689646643,0.9169001029490945
1781116674393036544,1.3494336605072021,-0.22519774734973907,-0.22897329926490784,0.29806196689605713,0.37776777148246765,-0.20321078598499298,-0.9033254384994507,0.06334853172302246,-0.13799098134040833,-0.05132538080215454,-0.8649482353323136,-0.0028059423719320195,-0.21983947370471535,-0.4511400794582388,0.2046360172071604,0.39609416009571463,0.920321191785248
1781116674403071744,1.359468698501587,-0.26751670241355896,-0.2512880563735962,0.33552172780036926,0.3749445080757141,-0.20217128098011017,-0.9047338962554932,0.05187433958053589,-0.12447361648082733,-0.040410757064819336,-0.8644960349506786,-0.0026288724484361176,-0.21823416618522326,-0.45278425185850235,0.20357448451392057,0.39287971345376754,0.9242937950646192
1781116674413106688,1.3695037364959717,-0.30085813999176025,-0.26537057757377625,0.3697049915790558,0.37188026309013367,-0.2009241282939911,-0.9062750935554504,0.04482200741767883,-0.10185602307319641,-0.03035515546798706,-0.8639777366193144,-0.002376110072283688,-0.21646432852731878,-0.45462067044080695,0.20230119667498203,0.38938764432615314,0.928743058204615
1781116674423140864,1.37953782081604,-0.3206651508808136,-0.2699427306652069,0.39061158895492554,0.36867833137512207,-0.19950437545776367,-0.9078955054283142,0.04059287905693054,-0.08058594167232513,-0.018724918365478516,-0.8634008652012027,-0.002050669706793501,-0.21458804810987425,-0.45660342117907965,0.20085210053043084,0.3857368477422382,0.9335566427805102
1781116674433175552,1.3895726203918457,-0.3341439366340637,-0.27299150824546814,0.403166264295578,0.3654130697250366,-0.19797541201114655,-0.909548819065094,0.03531321883201599,-0.059364065527915955,-0.008496284484863281,-0.8627818377991001,-0.0016779410810561406,-0.21265650372853412,-0.4586739995546527,0.1992920188217243,0.38201584305110725,0.9385889616462783
1781116674443210496,1.3996076583862305,-0.33092737197875977,-0.27030953764915466,0.4087027311325073,0.36212921142578125,-0.19641698896884918,-0.9111985564231873,0.029090851545333862,-0.03740869462490082,0.005375802516937256,-0.8621364759437797,-0.001295328137735339,-0.21071080623253333,-0.4607819818926188,0.19770237720884862,0.3782809123477831,0.9437112754409843
1781116674453245696,1.4096426963806152,-0.33331435918807983,-0.2607823610305786,0.412170946598053,0.35889652371406555,-0.19485999643802643,-0.9128104448318481,0.02599114179611206,-0.019632801413536072,0.017195820808410645,-0.8614659419363963,-0.0009044086348382115,-0.20879167988964403,-0.46290581862201247,0.1961147135438799,0.3746111166287856,0.9488691071383725
1781116674463280640,1.419677734375,-0.3420471251010895,-0.2518780827522278,0.4114774763584137,0.3557502329349518,-0.1932358294725418,-0.914385974407196,0.021843761205673218,-0.004273936152458191,0.028186023235321045,-0.8607756532161613,-0.0004681027045469801,-0.2068980538326175,-0.46503570472421907,0.19445906881663622,0.3710391979653204,0.9540495636453354
1781116674473315840,1.4297127723693848,-0.3544899523258209,-0.2408643215894699,0.4063439667224884,0.3526887893676758,-0.19150808453559875,-0.9159340858459473,0.01631450653076172,0.003931790590286255,0.039804935455322266,-0.8600727672033904,2.7411244458629906e-05,-0.20501938299500908,-0.46716370858969714,0.19269843549855853,0.3675603362277792,0.9592393769076288
1781116674483350784,1.4397478103637695,-0.36179447174072266,-0.2288215011358261,0.39447319507598877,0.34974145889282227,-0.18963846564292908,-0.9174519777297974,0.011998653411865234,0.007952064275741577,0.04443562030792236,-0.8593734589265309,0.000599132423433829,-0.2031591523754016,-0.46925826473945226,0.19079391738846724,0.3642035133952312,0.9643699804244971
1781116674493384704,1.4497816562652588,-0.3617955446243286,-0.2133495956659317,0.37607207894325256,0.3469877243041992,-0.1876479983329773,-0.9189057350158691,0.004986763000488281,0.020320117473602295,0.04077768325805664,-0.8586876635749322,0.0012500009240462775,-0.20135931435086174,-0.4712836897628241,0.18876706110905547,0.36105667268724995,0.9693549670399947
1781116674503419648,1.4598166942596436,-0.3552769124507904,-0.19865469634532928,0.3504577875137329,0.3444088399410248,-0.18560341000556946,-0.9202901124954224,2.7805566787719727e-05,0.03826454281806946,0.04133808612823486,-0.8580291210897101,0.0019402239773136142,-0.19962757745694906,-0.4732135547083535,0.18668591036843804,0.3581036795372862,0.9741234181047015
1781116674513454592,1.4698517322540283,-0.34073445200920105,-0.1786397099494934,0.32147008180618286,0.3420385420322418,-0.1835363507270813,-0.9215878248214722,-0.0022557973861694336,0.0537603497505188,0.04497039318084717,-0.8574123606112432,0.002657525106028105,-0.1979874733982262,-0.47501372998294816,0.18458270862867301,0.3553826943404447,0.9785914291920473
1781116674523489792,1.479886770248413,-0.31632712483406067,-0.15587712824344635,0.2920306921005249,0.3399411737918854,-0.18154607713222504,-0.9227572679519653,-0.008337199687957764,0.06689155101776123,0.04833716154098511,-0.8568377749212381,0.003371117468072335,-0.19649425892988062,-0.4766629717392167,0.18255842311295023,0.3529693679785257,0.9826963358148735
1781116674533524736,1.4899218082427979,-0.2799991965293884,-0.1333925873041153,0.25586870312690735,0.33811232447624207,-0.17971181869506836,-0.9237877130508423,-0.014854878187179565,0.08306264877319336,0.049504876136779785,-0.8563154765227871,0.0040414705407753005,-0.1951661211759648,-0.4781397806799125,0.18069349927403652,0.35086275161171926,0.9863780121518558
1781116674543559424,1.4999566078186035,-0.23745441436767578,-0.11108248680830002,0.2139659970998764,0.3365571200847626,-0.1781119555234909,-0.9246650338172913,-0.017205923795700073,0.0950431078672409,0.05135875940322876,-0.8558629228843319,0.00462857840446578,-0.19402592354655693,-0.47940712149180603,0.17906739862226692,0.34907213954646205,0.9895400337290381
1781116674553593600,1.5099906921386719,-0.1769745647907257,-0.08879316598176956,0.17574457824230194,0.3352883458137512,-0.1768518090248108,-0.9253675937652588,-0.018576890230178833,0.11087280511856079,0.05119156837463379,-0.8554873870354848,0.00508594245296225,-0.19310707075817415,-0.48044259025079633,0.17778691117809967,0.3476166253012101,0.9921168082151375
1781116674563628800,1.5200257301330566,-0.11436763405799866,-0.06835713237524033,0.13558118045330048,0.33428269624710083,-0.1760089099407196,-0.9258919954299927,-0.01998215913772583,0.1205737292766571,0.049884915351867676,-0.8551860205252393,0.005376024981758151,-0.19241909975294785,-0.4812513649002989,0.17693058065582684,0.3464746631332894,0.9941107422583833
1781116674573663744,1.5300607681274414,-0.045508675277233124,-0.047290727496147156,0.09719090908765793,0.33354905247688293,-0.17566454410552979,-0.9262219071388245,-0.028281718492507935,0.12407457828521729,0.04421812295913696,-0.8549583393052071,0.005465127695649138,-0.1919874682178706,-0.48182690268385336,0.1765807656838147,0.3456599341608537,0.9954964276161253
1781116674583698688,1.5400958061218262,0.007664795499294996,-0.03221750631928444,0.049749620258808136,0.3330550491809845,-0.17573446035385132,-0.9263863563537598,-0.035996973514556885,0.11910910904407501,0.03277069330215454,-0.8548174348366592,0.005380863776623091,-0.1917755457581793,-0.482162032724121,0.17665179082597635,0.34513118662548276,0.9962680300438189
1781116674593733632,1.5501306056976318,0.06184494495391846,-0.02079946920275688,0.0005250812391750515,0.33277586102485657,-0.17614157497882843,-0.9264094233512878,-0.037106335163116455,0.12052330374717712,0.018648803234100342,-0.8547812802284526,0.005146716609598016,-0.19175195864459418,-0.4822381241258991,0.1770653559759079,0.3448563636117605,0.9963918376292358
1781116674603768576,1.5601656436920166,0.10516685247421265,-0.012816376984119415,-0.040278807282447815,0.3326606750488281,-0.17687934637069702,-0.9263101816177368,-0.03317645192146301,0.11939950287342072,0.004603087902069092,-0.8548461914452257,0.0047560407502436446,-0.19189134601467028,-0.48207154373658573,0.17781489723822255,0.3447803067095441,0.9959065669129872
1781116674613803520,1.5702006816864014,0.11444476991891861,-0.003302233759313822,-0.0755731463432312,0.33268803358078003,-0.1777324080467224,-0.9261370897293091,-0.03224247694015503,0.1061992198228836,0.004979252815246582,-0.8549983421095627,0.004308540614148102,-0.19212731759754292,-0.4817118351701252,0.17868169820765595,0.3448659234621412,0.9949557439816296
1781116674623837696,1.5802347660064697,0.09893718361854553,0.009652180597186089,-0.10579922050237656,0.3328930735588074,-0.17842091619968414,-0.9259309768676758,-0.036475807428359985,0.08369435369968414,0.010693550109863281,-0.8552177112120668,0.003948479924038409,-0.1924030125627996,-0.4812152840175247,0.1793813870356208,0.3451328432033325,0.993707095033386
1781116674633872640,1.5902698040008545,0.08289004117250443,0.01862863078713417,-0.12502191960811615,0.333235502243042,-0.1788724809885025,-0.9257206916809082,-0.03547549247741699,0.06337870657444,0.019470691680908203,-0.8554864690895364,0.0037073687037053244,-0.19268088544251658,-0.4806280653253711,0.17984032394739713,0.34553269864698233,0.9922777277851559
1781116674643907584,1.6003046035766602,0.08004924654960632,0.030445076525211334,-0.14067332446575165,0.33369195461273193,-0.17916932702064514,-0.9254988431930542,-0.033429503440856934,0.04953065514564514,0.0321272611618042,-0.8557846124216139,0.0035500410974489364,-0.19297147436068215,-0.4799814707598103,0.18014204639330636,0.34604559369716015,0.9907302314952096
1781116674653942528,1.610339641571045,0.09486547857522964,0.0519101545214653,-0.15486396849155426,0.3343430459499359,-0.17947080731391907,-0.9252053499221802,-0.03368386626243591,0.04490354657173157,0.044361233711242676,-0.8561021941568198,0.003424262955533644,-0.19335355096476886,-0.47926155867572484,0.1804485010788897,0.3467693737585609,0.9890119785190311
1781116674663977728,1.6203746795654297,0.11815056204795837,0.07079462707042694,-0.1645863801240921,0.3351987600326538,-0.17992763221263885,-0.9248068928718567,-0.030785948038101196,0.04587918519973755,0.053713202476501465,-0.856427701414176,0.0032668333020042096,-0.19387076243788812,-0.4784714429421204,0.1809128839547343,0.3477251751799673,0.9871109034291925
1781116674674012672,1.6304097175598145,0.1394513100385666,0.09306318312883377,-0.1713838279247284,0.33624812960624695,-0.18055064976215363,-0.9243044257164001,-0.027654379606246948,0.043496206402778625,0.058978497982025146,-0.8567514753475013,0.003073698606714018,-0.19452079503821654,-0.47762872345256946,0.18154626961871423,0.348902317089399,0.9850664954962082
1781116674684046848,1.6404438018798828,0.16453349590301514,0.11557208746671677,-0.17693091928958893,0.3375243544578552,-0.18137189745903015,-0.9236782789230347,-0.026306092739105225,0.03616926074028015,0.06235015392303467,-0.8570694385667857,0.0028380822601879944,-0.19532743278313294,-0.47672967735502897,0.18238131045745545,0.35033953192221845,0.9828655299808233
1781116674694083328,1.6504805088043213,0.19417154788970947,0.12856458127498627,-0.18081913888454437,0.3389846682548523,-0.18241368234157562,-0.9229380488395691,-0.021907031536102295,0.027628526091575623,0.05420941114425659,-0.8573789750082378,0.0025408207201623257,-0.1962766249364449,-0.4757840656387156,0.18344077185202778,0.3519929478036945,0.9805273065623257
1781116674704118528,1.660515546798706,0.2279343158006668,0.14528045058250427,-0.18691378831863403,0.3405930697917938,-0.183732807636261,-0.922083854675293,-0.013063162565231323,0.021547138690948486,0.03974437713623047,-0.8576883886630964,0.0021435193073580344,-0.19736636547822015,-0.47477630565917567,0.18478256504771676,0.3538284861432517,0.9780071255612358
1781116674714153472,1.6705505847930908,0.263766348361969,0.14474888145923615,-0.1916118711233139,0.3422880470752716,-0.18534810841083527,-0.9211324453353882,-0.00023177266120910645,0.021697595715522766,0.023457884788513184,-0.8580023509245104,0.0016214972015639745,-0.19857278033434922,-0.4737069401678676,0.18642610013779842,0.35578197876321627,0.975302985103765
1781116674724188672,1.6805856227874756,0.2706306576728821,0.14071552455425262,-0.19496425986289978,0.343971312046051,-0.18716509640216827,-0.9201374650001526,0.013832032680511475,0.015030696988105774,0.006364881992340088,-0.8583226691433213,0.0009962242126207918,-0.19982559100564856,-0.47260029599814996,0.18827545375818247,0.3577410004032185,0.972483256908385
1781116674734223616,1.6906206607818604,0.24243149161338806,0.12745004892349243,-0.18857133388519287,0.3455694913864136,-0.18890298902988434,-0.9191830158233643,0.023876309394836426,-0.0013435930013656616,-0.005652189254760742,-0.8586466557227234,0.0003840229693640913,-0.20101827547419182,-0.4715055617437417,0.19004490299739774,0.35960578882129657,0.969700032802665
1781116674744258560,1.7006556987762451,0.16772502660751343,0.1022147387266159,-0.1786571890115738,0.3469863533973694,-0.1901743859052658,-0.9183867573738098,0.027250677347183228,-0.026515677571296692,-0.01618361473083496,-0.8589664652533754,-5.024313075722241e-05,-0.20200651303057396,-0.47049985768269864,0.19133977070780686,0.36124212080109197,0.9671859234717839
1781116674754292480,1.7106895446777344,0.09542500972747803,0.08092862367630005,-0.16245797276496887,0.34816545248031616,-0.19077695906162262,-0.9178153276443481,0.029504835605621338,-0.05063234269618988,-0.018860697746276855,-0.8592772641905172,-0.00022013285986320776,-0.2027123373558511,-0.46962768305550723,0.1919535838295096,0.3625714775391018,0.9650731464804276
1781116674764327424,1.7207245826721191,0.04058093577623367,0.056877750903367996,-0.1382700800895691,0.34908515214920044,-0.19086459279060364,-0.9174476861953735,0.03328484296798706,-0.06786343455314636,-0.024431586265563965,-0.8595630858865007,-0.0001935568652820118,-0.20316523107137954,-0.4689086037567097,0.19204286169841847,0.3635803190004204,0.9633875643419907
1781116674774362624,1.730759620666504,0.009669889695942402,0.048214223235845566,-0.11069491505622864,0.3498094081878662,-0.19065137207508087,-0.9172161221504211,0.03285050392150879,-0.07524828612804413,-0.022237002849578857,-0.8598012882275454,-4.6813993230642115e-05,-0.20345007279538763,-0.468348000650633,0.19182564575807834,0.36435378605487434,0.9621125394501324
1781116674784397568,1.7407946586608887,-0.010223125107586384,0.04091969132423401,-0.08908389508724213,0.3504102826118469,-0.19030481576919556,-0.9170587062835693,0.02347579598426819,-0.06996434926986694,-0.020441293716430664,-0.859991303326753,0.0001573694132960723,-0.20364334963401684,-0.4679148502182849,0.19147263373118414,0.3649827999105499,0.961152946524488
1781116674794432768,1.7508296966552734,-0.024862254038453102,0.02942042611539364,-0.06261393427848816,0.35087355971336365,-0.1898777335882187,-0.9169701337814331,0.019045263528823853,-0.06709553301334381,-0.018424153327941895,-0.8601312632094944,0.00039243110622144836,-0.20375177385230148,-0.46761020516412755,0.1910376125248883,0.36545577472449314,0.9605038200763987
1781116674804467456,1.760864496231079,-0.04574942588806152,0.015481840819120407,-0.03978878632187843,0.3511849343776703,-0.18935276567935944,-0.9169594645500183,0.014339357614517212,-0.06408046185970306,-0.01375037431716919,-0.8602288785133045,0.0006603700030369089,-0.20376413234393687,-0.4674250115649583,0.19050294495020895,0.3657558191627335,0.9601463106785654
1781116674814501632,1.7708985805511475,-0.05010209605097771,0.001909040380269289,-0.017887748777866364,0.3513326942920685,-0.18881581723690033,-0.9170135855674744,0.010270088911056519,-0.06063486635684967,-0.009606897830963135,-0.8602841291156145,0.0009185657689850481,-0.20369672084074894,-0.4673523183073314,0.1899561300599322,0.36587663244260565,0.9600521040734308
1781116674824536576,1.7809336185455322,-0.05241798236966133,-0.0035250065848231316,0.0021578653249889612,0.3513278067111969,-0.18831537663936615,-0.9171183705329895,0.0090695321559906,-0.05822087824344635,-0.010020911693572998,-0.8603010934373027,0.001144708112331854,-0.2035669704514179,-0.46737682200834707,0.18944655439214192,0.3658338087504314,0.960178594429792
1781116674834571520,1.790968656539917,-0.04899448901414871,-0.014878328889608383,0.015848377719521523,0.35121431946754456,-0.18788841366767883,-0.9172493815422058,0.003155827522277832,-0.04857704043388367,-0.01246863603591919,-0.8602901616190509,0.0013261508484204226,-0.20340488459927575,-0.46746706047485453,0.1890118321618067,0.3656781844627559,0.9604476236779892
1781116674844606720,1.8010036945343018,-0.03675326704978943,-0.02481391653418541,0.026081040501594543,0.35098376870155334,-0.18756847083568573,-0.9174031019210815,0.0038135647773742676,-0.03646107017993927,-0.015610814094543457,-0.8602643124701768,0.0014396924561615619,-0.20321509685032674,-0.4675968959411673,0.18868608772484372,0.36540305420640523,0.960793591405754
1781116674854641408,1.8110384941101074,-0.03164958581328392,-0.036634624004364014,0.03389502316713333,0.3506338596343994,-0.18736301362514496,-0.9175788760185242,0.004712820053100586,-0.02905239164829254,-0.01509934663772583,-0.8602243681959845,0.0014809380017123252,-0.20299844245726137,-0.46776441974075955,0.1884769341356723,0.3650064135153988,0.961210996287203
1781116674864676352,1.8210735321044922,-0.037749022245407104,-0.03945904225111008,0.04566113278269768,0.35020649433135986,-0.1871947944164276,-0.9177764058113098,0.004011064767837524,-0.026489287614822388,-0.012811362743377686,-0.8601690923720821,0.0014952332097094819,-0.20275491971989573,-0.46797164696145854,0.1883056854559428,0.3645282148765959,0.9617153555287062
1781116674874710528,1.8311076164245605,-0.057799965143203735,-0.044013045728206635,0.05988507717847824,0.3497145175933838,-0.18694867193698883,-0.9180141091346741,0.0015732944011688232,-0.028856366872787476,-0.007171988487243652,-0.8600850370830841,0.0015448582408141105,-0.20246123162588014,-0.4682528415781691,0.18805513681934674,0.36397406058914117,0.9624022717990312
1781116674884745472,1.8411426544189453,-0.07739843428134918,-0.04831058904528618,0.06996381282806396,0.3491690456867218,-0.18655644357204437,-0.918301522731781,0.0015237033367156982,-0.03289546072483063,-0.00039964914321899414,-0.8599790375402196,0.0016610134600548675,-0.20210512830190802,-0.4686009762097214,0.1876558849754099,0.36335108150356127,0.9632649864743245
1781116674894780672,1.85117769241333,-0.09410284459590912,-0.047987811267375946,0.07868779450654984,0.34858134388923645,-0.18602526187896729,-0.9186325073242188,0.0018062591552734375,-0.031534552574157715,0.00443267822265625,-0.8598514579626698,0.0018422231181426327,-0.2016937269063993,-0.4690114756424334,0.1871152419930666,0.362672257052206,0.9642916554255023
1781116674904815360,1.8612124919891357,-0.09663470834493637,-0.04838328808546066,0.08423462510108948,0.34797969460487366,-0.18543261289596558,-0.9189803600311279,0.0032623708248138428,-0.024024784564971924,0.00658106803894043,-0.859703085421296,0.0020576534733051997,-0.20126000310261866,-0.4694687429168917,0.186512098634612,0.36197423593981115,0.9654354031836228
1781116674914850560,1.8712475299835205,-0.09548475593328476,-0.04621148109436035,0.08986321836709976,0.3473789393901825,-0.18483132123947144,-0.9193286895751953,0.0010860562324523926,-0.012525856494903564,0.0063953399658203125,-0.8595451485763305,0.002280701085241762,-0.2008244327249904,-0.46994295035511463,0.1859002240545605,0.3612770330239622,0.9666194961776382
1781116674924885504,1.8812825679779053,-0.09674390405416489,-0.04646142199635506,0.08548364788293839,0.3467869460582733,-0.1842513382434845,-0.9196685552597046,0.0031733810901641846,-0.000990346074104309,0.00198972225189209,-0.8593843070306038,0.002496255939395381,-0.20039834788605265,-0.4704176241234285,0.18531010998107983,0.36059140582735216,0.9678016911089963
1781116674934920448,1.89131760597229,-0.10612062364816666,-0.04961513727903366,0.08032910525798798,0.3461817502975464,-0.18360596895217896,-0.9200255870819092,0.007288098335266113,0.003414928913116455,0.0001800060272216797,-0.8592344353385568,0.0027342650087700863,-0.19994935161281083,-0.47088103087138633,0.18465352974136778,0.3598871960544993,0.9689664545585503
1781116674944954624,1.9013516902923584,-0.11117077618837357,-0.04747089371085167,0.07370315492153168,0.345592737197876,-0.182869553565979,-0.9203935861587524,0.007129400968551636,0.007057800889015198,0.003340423107147217,-0.8591012772885309,0.0030103621218921196,-0.19948466522786362,-0.4713193577386551,0.18390443896872835,0.35919461747806186,0.9700851086805421
1781116674954989312,1.911386489868164,-0.11743906140327454,-0.04622533172369003,0.06520794332027435,0.3450312316417694,-0.18205125629901886,-0.9207664132118225,0.00781300663948059,0.010267794132232666,0.01070171594619751,-0.8589843795689792,0.003322837931171949,-0.19901191895173503,-0.47172999335776794,0.18307216162445272,0.3585267181770075,0.971150236480126
1781116674965024512,1.9214215278625488,-0.11460945010185242,-0.0416867733001709,0.05866508185863495,0.344512403011322,-0.1811937391757965,-0.9211297631263733,0.0059514641761779785,0.013331800699234009,0.01922851800918579,-0.858877557388018,0.0036576401634810787,-0.19854910493203015,-0.4721166306464028,0.18220014665281797,0.35790307940338983,0.9721646353379236
1781116674975059456,1.9314565658569336,-0.10986875742673874,-0.033480241894721985,0.04846011474728584,0.344083309173584,-0.18034636974334717,-0.9214563965797424,0.0016655921936035156,0.014162898063659668,0.02338510751724243,-0.8587833404975002,0.004000837877038455,-0.19813077481167757,-0.47246086440099827,0.18133858233802053,0.35737813110984545,0.9730791531449381
1781116674985094656,1.9414916038513184,-0.08377723395824432,-0.02363746613264084,0.04355750232934952,0.34373265504837036,-0.17961733043193817,-0.9217296242713928,0.000337749719619751,0.02019353210926056,0.025352060794830322,-0.8586963867111961,0.004302090456370986,-0.19777940484625636,-0.47276337157600645,0.18059744859039556,0.3569470633369713,0.9738806522085176
1781116674995129600,1.9515266418457031,-0.056098468601703644,-0.00938529334962368,0.04111165553331375,0.3435160517692566,-0.17911328375339508,-0.921908438205719,-0.0003306269645690918,0.02831067144870758,0.023577749729156494,-0.8586095217387739,0.00452682115617606,-0.19754820247944854,-0.47301577299175035,0.18008508986243932,0.35667725527104543,0.974535649228384
1781116675005164544,1.961561679840088,-0.034024059772491455,-0.0028714672662317753,0.03442445769906044,0.34339457750320435,-0.17884139716625214,-0.9220064878463745,-2.6047229766845703e-05,0.033440396189689636,0.01954066753387451,-0.8585251703870836,0.004662610552782373,-0.19742093854345752,-0.4732206601634162,0.17980873643134282,0.35652677046114756,0.9750490303724412
1781116675015198464,1.9715955257415771,-0.02641807310283184,4.016701132059097e-05,0.02233344130218029,0.34333017468452454,-0.17868183553218842,-0.9220613837242126,-0.0006482899188995361,0.030381664633750916,0.016177594661712646,-0.8584571036416573,0.004751452227012686,-0.19734926431392263,-0.47337310495189205,0.17964655964082743,0.356445950545215,0.975425378963079
1781116675025233408,1.981630563735962,-0.021153269335627556,0.003790962975472212,0.01469176635146141,0.34331297874450684,-0.17852996289730072,-0.9220972061157227,0.001032114028930664,0.02505706250667572,0.011620521545410156,-0.858411579665982,0.004837301494388178,-0.19730179913134624,-0.47347454087138746,0.17949221193336495,0.3564168670787386,0.9756821443982864
1781116675035268608,1.9916656017303467,-0.01968293823301792,0.0027680429629981518,0.004936074838042259,0.3433188199996948,-0.17837971448898315,-0.9221240878105164,0.0028878450393676758,0.024632170796394348,0.006428897380828857,-0.8583845953607911,0.004919530567120332,-0.19726569407581826,-0.47353752573985153,0.17933951341449006,0.3564129085386146,0.9758492236206489
1781116675045303552,2.0017006397247314,-0.010295029729604721,0.0041893720626831055,-0.007814074866473675,0.3433542549610138,-0.17824234068393707,-0.9221374988555908,-0.001832038164138794,0.022801056504249573,0.00493168830871582,-0.8583852426503964,0.004990606237874981,-0.19724693183750364,-0.47354364448652997,0.1791998934672553,0.3564418929103224,0.9758823618064821
1781116675055338496,2.011735677719116,-0.0017036722274497151,0.010350328870117664,-0.011832518503069878,0.3434514105319977,-0.1781524419784546,-0.9221186637878418,-0.004919916391372681,0.02124631404876709,0.007140636444091797,-0.8584005306632163,0.005046594391105045,-0.1972693560330773,-0.4735059715349373,0.1791085323294497,0.3565411126815615,0.9758073683467543
1781116675065373440,2.021770477294922,0.00990371499210596,0.01706855185329914,-0.018678175285458565,0.3436122536659241,-0.17813266813755035,-0.9220625758171082,-0.006133615970611572,0.021287575364112854,0.009037673473358154,-0.8584238401340241,0.005080174328828187,-0.19733958144863434,-0.4734340581000907,0.17908844570557608,0.35671418059507476,0.9756435168056512
1781116675075407616,2.0318045616149902,0.026257121935486794,0.024664685130119324,-0.022456401959061623,0.3438468873500824,-0.17821817100048065,-0.9219585657119751,-0.0069023072719573975,0.019191071391105652,0.013099312782287598,-0.85845374569867,0.005077756708589092,-0.19747133958008808,-0.4733249173588497,0.1791753362806616,0.3569745137259846,0.9753791526247527
1781116675085442560,2.041839599609375,0.035838909447193146,0.02776433899998665,-0.023982925340533257,0.3441300094127655,-0.1784163862466812,-0.9218146204948425,-0.00797891616821289,0.017069950699806213,0.01567143201828003,-0.8584833031496079,0.00503338338069512,-0.1976546690189301,-0.4731953294096672,0.17937677351466025,0.357295256527627,0.9750521734279144
1781116675095477504,2.0518746376037598,0.04121503233909607,0.03409920260310173,-0.02910684607923031,0.344475656747818,-0.1786741465330124,-0.9216355681419373,-0.006874948740005493,0.015695005655288696,0.016774117946624756,-0.858514942728994,0.004973624270778346,-0.19788250053795756,-0.4730433569554713,0.1796387448620777,0.3576879983207097,0.9746652962005133
1781116675105512704,2.0619096755981445,0.04813392460346222,0.0356903076171875,-0.030755342915654182,0.34486404061317444,-0.17896682024002075,-0.9214335083961487,-0.0053559839725494385,0.014705955982208252,0.01748758554458618,-0.8585506747667585,0.004904850614049955,-0.1981393240191436,-0.47287166665324215,0.1799362155657174,0.35812967318061306,0.9742279200615446
1781116675115547392,2.07194447517395,0.061229754239320755,0.04152582585811615,-0.03555169701576233,0.3452887535095215,-0.17935305833816528,-0.9211993217468262,-0.0030646324157714844,0.017869293689727783,0.015391826629638672,-0.8585928928154847,0.004797368818206582,-0.19843723877994032,-0.47267092324346865,0.18032880063850715,0.358617459043368,0.9737101955443132
1781116675125582336,2.081979513168335,0.07188212871551514,0.0443117581307888,-0.030457602813839912,0.3457448482513428,-0.17985767126083374,-0.9209297895431519,-0.0016286373138427734,0.01637500524520874,0.012986063957214355,-0.85863183664738,0.004642687870201448,-0.19878013253533516,-0.47245765944158075,0.18084176297657936,0.3591477644673022,0.9731472934192049
1781116675135616512,2.0920135974884033,0.07402277737855911,0.049734219908714294,-0.025281481444835663,0.3462294638156891,-0.18044069409370422,-0.9206336736679077,-0.004539400339126587,0.0032098591327667236,0.010263800621032715,-0.8586504085234942,0.004465915118400426,-0.19915628572878735,-0.4722673456658988,0.18143448848038096,0.35971485891791066,0.9726271507573176
1781116675145651456,2.102048635482788,0.05548238754272461,0.05363988131284714,-0.023492636159062386,0.34675219655036926,-0.1809445023536682,-0.920337975025177,-0.007366210222244263,-0.018564164638519287,0.007236778736114502,-0.858655961274375,0.004339241059868754,-0.19952990300397247,-0.4721004855452179,0.18194671653992278,0.3603181763716658,0.9721723672254673
1781116675155686656,2.112083673477173,0.04445263743400574,0.05140921473503113,-0.020350905135273933,0.34727245569229126,-0.18133485317230225,-0.9200649857521057,-0.00530773401260376,-0.02635250985622406,0.005941450595855713,-0.8586539049087505,0.004267943614151494,-0.19987322459716644,-0.471959736160642,0.18234364073041806,0.3609111054060954,0.9717938567592521
1781116675165721600,2.1221187114715576,0.036867689341306686,0.044195644557476044,-0.013996870256960392,0.347748339176178,-0.18164704740047455,-0.9198235869407654,0.0007929205894470215,-0.021706819534301758,0.0023736953735351562,-0.8586423281143155,0.004227605482397121,-0.20017573055194446,-0.471853046637726,0.18266111192633094,0.3614505306961646,0.9715050469777626
1781116675175756544,2.1321535110473633,0.03081991709768772,0.03732229024171829,-0.012028527446091175,0.3481553792953491,-0.18191194534301758,-0.919617235660553,0.005543351173400879,-0.016299724578857422,-0.0022882819175720215,-0.8586326190815503,0.004193881575610868,-0.20043400194281885,-0.47176113729355024,0.18293048359761202,0.36191194258999854,0.9712566172513977
1781116675185791488,2.142188549041748,0.022159051150083542,0.028943587094545364,-0.016083722934126854,0.3484760522842407,-0.18211135268211365,-0.9194563031196594,0.007954001426696777,-0.014376088976860046,-0.003410518169403076,-0.8586353791641572,0.004167203986655176,-0.20063518941146918,-0.47167090765262454,0.183133278882622,0.3622748966824708,0.9710206948329589
1781116675195826432,2.152223587036133,0.014795942232012749,0.02102707512676716,-0.01599450781941414,0.3487246334552765,-0.18221329152584076,-0.9193418622016907,0.010772407054901123,-0.01833297312259674,-0.005310237407684326,-0.8586505628335259,0.004165473807525743,-0.2007777835538919,-0.4715827174355103,0.1832369600633703,0.3625525733261007,0.9708025629363963
1781116675205860608,2.162257671356201,0.011099208146333694,0.004117732867598534,-0.020972222089767456,0.3488701283931732,-0.18226805329322815,-0.9192758202552795,0.012351185083389282,-0.01844605803489685,-0.003468930721282959,-0.8586838924633887,0.004156289524699483,-0.2008602136725432,-0.47148692721820806,0.18329265216156443,0.36271474985014224,0.970572635440826
1781116675215895552,2.172292709350586,-0.0032893186435103416,0.0010814634151756763,-0.016704505309462547,0.3489363193511963,-0.18224984407424927,-0.9192543029785156,0.008195638656616211,-0.023347079753875732,-0.004039764404296875,-0.8587257011561447,0.004160850483724943,-0.2008868976266503,-0.4713993492202199,0.1832741370060727,0.3627854572753821,0.9703715168123378
1781116675225930496,2.1823275089263916,-0.028797874227166176,-0.008043991401791573,-0.000874409859534353,0.3489215075969696,-0.18209868669509888,-0.9192898869514465,0.0027172863483428955,-0.03242462873458862,-0.004019439220428467,-0.858750035647649,0.004217822610227692,-0.20084142122187784,-0.4713738622021051,0.18312039947314224,0.36275851364863027,0.9703329544761036
1781116675235965440,2.1923625469207764,-0.06811811774969101,-0.012918109074234962,0.011465346440672874,0.34881359338760376,-0.18166843056678772,-0.9194159507751465,-0.0006690621376037598,-0.04870876669883728,-0.0025506019592285156,-0.8587475842291257,0.004396751012213432,-0.20068058382783266,-0.47144529182108086,0.18268285323261352,0.36261042342247846,0.9705581976816943
1781116675246000640,2.202397584915161,-0.10617255419492722,-0.013519183732569218,0.02618943154811859,0.3486567437648773,-0.18092940747737885,-0.9196211099624634,-0.003899693489074707,-0.051996007561683655,0.001225113868713379,-0.8587133228407007,0.004722684267112899,-0.20041738759759112,-0.47161645095831406,0.18193137586517472,0.3623873200546919,0.9710580253836223
1781116675256035584,2.212432622909546,-0.12233208119869232,-0.018952831625938416,0.03171548992395401,0.3484551012516022,-0.17997916042804718,-0.9198840260505676,-0.003408074378967285,-0.04218880832195282,0.002235710620880127,-0.8586547865905916,0.005147639225928832,-0.20007873933847922,-0.47186236001366433,0.1809652674270084,0.3621008882430888,0.9717608369059808
1781116675266069760,2.2224667072296143,-0.14243043959140778,-0.027142183855175972,0.04488162696361542,0.348185271024704,-0.17886215448379517,-0.9202039837837219,0.005727052688598633,-0.024430692195892334,-0.0015184283256530762,-0.8585868066379966,0.005639454430782332,-0.19966523611555198,-0.4721555078742106,0.17982983958540982,0.36172922643124433,0.9725961692855912
1781116675276104448,2.23250150680542,-0.15534622967243195,-0.032338544726371765,0.05237123370170593,0.3478287160396576,-0.17766214907169342,-0.9205712080001831,0.007655292749404907,-0.01435445249080658,-0.0010443925857543945,-0.8584978586648676,0.006159865512887801,-0.1991894905108506,-0.4725114139574947,0.17861029949126261,0.3612582922812946,0.9735883294183574
1781116675286139392,2.2425365447998047,-0.16680023074150085,-0.033773988485336304,0.06255915760993958,0.347429096698761,-0.17635402083396912,-0.920973539352417,0.005003184080123901,-0.016684919595718384,-0.005112886428833008,-0.8583917371429276,0.006727945352350995,-0.19866545910518396,-0.472916754931271,0.17728118198708248,0.3607340419530294,0.9747100179436424
1781116675296174592,2.2525715827941895,-0.15049901604652405,-0.03515323996543884,0.06653232872486115,0.3469860255718231,-0.17511838674545288,-0.9213762879371643,0.00839117169380188,-0.01167970895767212,-0.004191339015960693,-0.8582652357035998,0.00726094250695389,-0.19813918750649068,-0.4733591846057837,0.17602600426916415,0.36016859642005106,0.9759075680750544
1781116675306209536,2.262606620788574,-0.127081036567688,-0.033490099012851715,0.06538291275501251,0.34655290842056274,-0.17405490577220917,-0.921740710735321,0.006886392831802368,0.0010965466499328613,-0.0012481212615966797,-0.85813811122613,0.007715567793211966,-0.19766160167947977,-0.47378183568071647,0.1749459444741601,0.3596265505727255,0.9770350439069363
1781116675316244480,2.272641658782959,-0.1099712923169136,-0.03422725945711136,0.07124453037977219,0.3461162745952606,-0.17322155833244324,-0.9220617413520813,0.00384405255317688,0.009220093488693237,0.003879368305206299,-0.8580055988246196,0.008064376563867147,-0.19724122981422346,-0.47419120742433135,0.17409973604865295,0.3590968791881317,0.9780996989640024
1781116675326279680,2.2826766967773438,-0.10920988768339157,-0.03466494753956795,0.07411248981952667,0.3456838130950928,-0.17246897518634796,-0.9223650097846985,0.00032448768615722656,0.0030811578035354614,0.007020771503448486,-0.8578593865877672,0.008381726159643901,-0.19684322399547416,-0.4746154084583389,0.17333565183125366,0.35857764554218413,0.979187631098307
1781116675336313600,2.292710542678833,-0.12263675034046173,-0.03383191302418709,0.07830563187599182,0.3452346622943878,-0.17166045308113098,-0.9226839542388916,-0.003590404987335205,-0.007309868931770325,0.013702690601348877,-0.8577069103443081,0.008723420106295792,-0.19642280896681946,-0.47505869426597563,0.17251489220481786,0.35803711108200303,0.9803274079744093
1781116675346348544,2.3027455806732178,-0.11840418726205826,-0.030442774295806885,0.08211208879947662,0.34479236602783203,-0.17081789672374725,-0.9230056405067444,-0.007725715637207031,-0.013019993901252747,0.01710665225982666,-0.8575425717948908,0.009086593856846481,-0.19599643029454578,-0.47552443360728575,0.17165971069875094,0.3575022487325753,0.9815241765464013
1781116675356383488,2.3127806186676025,-0.10355999320745468,-0.018876131623983383,0.0840572640299797,0.34441298246383667,-0.17008230090141296,-0.9232831001281738,-0.00913161039352417,-0.01033763587474823,0.015018939971923828,-0.8573651141405538,0.009418576658251687,-0.19562650036292578,-0.47599024699439013,0.17091317964536676,0.3570430669356156,0.982707140927961
1781116675366418688,2.3228156566619873,-0.09276460856199265,-0.011924350634217262,0.08572520315647125,0.3441255986690521,-0.1694914549589157,-0.9234988689422607,-0.0079745352268219,-0.0018494725227355957,0.017081081867218018,-0.8571722975224056,0.009709097209880991,-0.19533634269575567,-0.47645049283166574,0.17031363555483398,0.35669335466391494,0.9838582984391655
1781116675376453632,2.332850694656372,-0.08842285722494125,-0.009112052619457245,0.08499682694673538,0.3438768684864044,-0.16894055902957916,-0.9236924648284912,-0.004872351884841919,0.0006818920373916626,0.014573812484741211,-0.8569725255354453,0.009991908674581907,-0.19507413981570315,-0.47691135699347514,0.16975468276026204,0.35638828355714947,0.9850060666656435
1781116675386488320,2.3428854942321777,-0.08349493891000748,-0.0070518311113119125,0.0827922597527504,0.3436618149280548,-0.16842463612556458,-0.9238666892051697,-0.00011023879051208496,0.000822111964225769,0.013771533966064453,-0.8567755544270962,0.010264229207269833,-0.19483657923726339,-0.4773562504303387,0.16923125570391698,0.35612216809442426,0.986112235852493
1781116675396522496,2.352919578552246,-0.05760155990719795,-0.008162369020283222,0.07623342424631119,0.34344908595085144,-0.16803301870822906,-0.924017071723938,0.002833843231201172,0.008212476968765259,0.008352458477020264,-0.8565886901623475,0.010475223765618262,-0.19463226869898909,-0.4777700472255702,0.16883397719983564,0.35586672212063575,0.9871289637489928
1781116675406557440,2.362954616546631,-0.0491819754242897,-0.008174885995686054,0.07032520323991776,0.3432554006576538,-0.16778892278671265,-0.9241334199905396,0.009726166725158691,0.02061791718006134,-0.0005186200141906738,-0.8564175145323052,0.010615680146222287,-0.1944751627461487,-0.4781377447984755,0.16858636428240903,0.35564142191947967,0.9880183394175435
1781116675416592640,2.3729896545410156,-0.04349372908473015,-0.01268814504146576,0.056714050471782684,0.34305426478385925,-0.16758480668067932,-0.9242451786994934,0.016152888536453247,0.02811947464942932,-0.004923522472381592,-0.8562696039838372,0.010726435769048423,-0.19432541298048225,-0.47846096739735694,0.16837931826957628,0.3554107109278638,0.9887983645004975
1781116675426627584,2.3830246925354004,-0.04152858257293701,-0.017519518733024597,0.04487976059317589,0.34282732009887695,-0.16736997663974762,-0.9243682622909546,0.019141674041748047,0.024532467126846313,-0.005334436893463135,-0.8561621975578845,0.010819965619272247,-0.19416174633596717,-0.47871753978521314,0.16816140810346814,0.3551514480618982,0.9894239002206083
1781116675436662528,2.393059492111206,-0.029578179121017456,-0.01836933195590973,0.03225557878613472,0.34259870648384094,-0.16715861856937408,-0.924491286277771,0.019751757383346558,0.028028979897499084,-0.009285569190979004,-0.8560858019697267,0.010898804984975707,-0.1939989148546838,-0.4789182509111145,0.16794702953879,0.3548906763482562,0.9899183993512262
1781116675446697472,2.403094530105591,-0.007083257660269737,-0.02005751058459282,0.019587721675634384,0.34236496686935425,-0.16708913445472717,-0.9245904088020325,0.018352776765823364,0.03828971087932587,-0.010620713233947754,-0.856043347231561,0.010897378091653654,-0.19387118779228124,-0.47904587673854404,0.16787655099771787,0.35463343640703593,0.9902228031537729
1781116675456732416,2.4131295680999756,0.0054674213752150536,-0.01976563036441803,0.007066071033477783,0.3421655297279358,-0.16713085770606995,-0.9246566891670227,0.015256345272064209,0.041154295206069946,-0.012095630168914795,-0.856028462348967,0.010840970097051962,-0.19378886296413908,-0.4791070357960435,0.16791887338379505,0.3544204000488198,0.9903572745949605
1781116675466766592,2.423163652420044,0.017607174813747406,-0.022105615586042404,0.00011735127191059291,0.3419709801673889,-0.16725517809391022,-0.924706220626831,0.015725553035736084,0.04141594469547272,-0.009146928787231445,-0.8560408320522858,0.010736567510157136,-0.19373081867415712,-0.479110805706759,0.1680449676596948,0.354217921539884,0.9903465634867866
1781116675476801536,2.4331986904144287,0.02202136442065239,-0.02537437714636326,-0.015526322647929192,0.3417740762233734,-0.1674106866121292,-0.9247508645057678,0.014411836862564087,0.03697855770587921,-0.006981313228607178,-0.8560847554140131,0.010604541880535844,-0.19368043276784802,-0.4790557758256857,0.1682027014344123,0.3540148579288326,0.9901942899757896
1781116675486836480,2.4432334899902344,0.03145268186926842,-0.023847322911024094,-0.0312269888818264,0.34157595038414,-0.16758206486701965,-0.924793004989624,0.009910225868225098,0.03588347136974335,-0.003353297710418701,-0.8561701536572549,0.010448122613742632,-0.1936345293819454,-0.47892493005785314,0.16837653596388938,0.35381153494570355,0.9898626995259626
1781116675496871424,2.453268527984619,0.05018296092748642,-0.024015100672841072,-0.03670085221529007,0.3414081037044525,-0.1678486168384552,-0.9248066544532776,0.006126075983047485,0.0404224693775177,-0.003278672695159912,-0.8562775042973233,0.010245572092347492,-0.19362775392247927,-0.47874005582117474,0.16864691804651588,0.353647043117285,0.9893925661511815
1781116675506906624,2.463303565979004,0.058699484914541245,-0.018156547099351883,-0.04628103971481323,0.34128648042678833,-0.16822734475135803,-0.9247827529907227,0.00430983304977417,0.03701701760292053,-0.0027227401733398438,-0.856399091890712,0.00999556939384031,-0.19367168857273795,-0.47851015153808846,0.16903110838671878,0.353539689122789,0.9888028576723732
1781116675516941568,2.4733386039733887,0.06780296564102173,-0.01603507250547409,-0.04939400777220726,0.34121155738830566,-0.16865217685699463,-0.9247329831123352,0.003423452377319336,0.02920210361480713,0.0038040876388549805,-0.8565356257392206,0.00972828972055059,-0.19374946585581335,-0.4782398447200797,0.16946209686864772,0.35348583862674743,0.9881133049024279
1781116675526975744,2.483372688293457,0.0625474825501442,-0.014302154071629047,-0.050329845398664474,0.3411567807197571,-0.16908927261829376,-0.9246733784675598,0.00312727689743042,0.019186928868293762,0.007940590381622314,-0.8566736946070823,0.009458929085980618,-0.1938397203783796,-0.4779611276913501,0.16990556156791656,0.3534546451136427,0.9874027766813985
1781116675537010432,2.4934074878692627,0.05778122693300247,-0.011284259147942066,-0.052974630147218704,0.34113505482673645,-0.16948390007019043,-0.9246091246604919,0.004201829433441162,0.009068265557289124,0.015582084655761719,-0.8568073730271403,0.009217983921022377,-0.19393415688187424,-0.4776878253884663,0.17030596761423014,0.3534565394007376,0.9867112067929418
1781116675547045376,2.5034425258636475,0.052867960184812546,-0.002669466193765402,-0.04980599880218506,0.3411552309989929,-0.16982470452785492,-0.9245391488075256,-0.005126208066940308,-0.0014551877975463867,0.02379763126373291,-0.8569409399477392,0.009010830719928522,-0.19403406649513666,-0.47741154438380307,0.17065178982088203,0.35350030084565237,0.9860205554992403
1781116675557080576,2.5134775638580322,0.05196994170546532,0.006155450362712145,-0.04442135617136955,0.34125906229019165,-0.17014235258102417,-0.9244424700737,-0.012111783027648926,-0.011742398142814636,0.03009432554244995,-0.8570553443324465,0.008840079217746452,-0.19416650545931685,-0.47715548492877036,0.17097412546369592,0.35363314996574413,0.9853812567041569
1781116675567115520,2.523512601852417,0.045520830899477005,0.019275913015007973,-0.03382223844528198,0.3414383828639984,-0.1704634428024292,-0.9243170619010925,-0.018562406301498413,-0.0227433443069458,0.03682011365890503,-0.8571406022065771,0.008695721001304401,-0.19433438052453522,-0.47693660703150986,0.1712999828880516,0.35384794035065464,0.9848291132020354
1781116675577150464,2.5335476398468018,0.04392213746905327,0.030656132847070694,-0.021516304463148117,0.3417269289493561,-0.17078478634357452,-0.9241511225700378,-0.02957788109779358,-0.03359144926071167,0.04100292921066284,-0.8571860558522293,0.008590883222231348,-0.1945524096884011,-0.47676807067333093,0.1716260993288711,0.3541810129858902,0.9843956175268757
1781116675587185664,2.5435826778411865,0.04259162023663521,0.04738238453865051,-0.006419910583645105,0.34211328625679016,-0.17113670706748962,-0.923943042755127,-0.03588464856147766,-0.039144665002822876,0.04361772537231445,-0.8571857895762403,0.008511412167368865,-0.19482310239881398,-0.47665916596337043,0.1719832863640234,0.3546220401051117,0.9840979724798442
1781116675597219584,2.553616523742676,0.03621814399957657,0.056059494614601135,0.014352479949593544,0.34259194135665894,-0.17152702808380127,-0.9236932396888733,-0.03877422213554382,-0.03625188767910004,0.041323304176330566,-0.8571255309448088,0.00845853413298615,-0.19514565611515766,-0.4766364941774953,0.17237946427030879,0.3551657109851074,0.983997283657819
1781116675607254528,2.5636515617370605,0.026733295992016792,0.06024358421564102,0.024418164044618607,0.34309104084968567,-0.1719149947166443,-0.9234358668327332,-0.03947165608406067,-0.03838163614273071,0.035710036754608154,-0.8570226701500656,0.008428583768869057,-0.19547642141974103,-0.47668657658713964,0.17277328003791045,0.35573159000464744,0.9840668464463871
1781116675617289472,2.5736865997314453,0.01327208150178194,0.057679496705532074,0.03454483300447464,0.3435789942741394,-0.17218707501888275,-0.923203706741333,-0.03562614321708679,-0.04178693890571594,0.026337862014770508,-0.8568967450280716,0.008459282988485438,-0.19577176382557887,-0.4767912668260686,0.17304947152020103,0.3562780141986724,0.9842794132212831
1781116675627324672,2.58372163772583,0.0051872567273676395,0.05124436691403389,0.03881840780377388,0.3440225124359131,-0.17238809168338776,-0.9230009913444519,-0.033292531967163086,-0.040487274527549744,0.018124282360076904,-0.8567576610879281,0.008518701134633447,-0.19602787753555545,-0.47693474300620553,0.17325353841477045,0.3567717589222883,0.9845916587192499
1781116675637359616,2.593756675720215,-0.010495832189917564,0.045794207602739334,0.04539774730801582,0.3443904519081116,-0.17251574993133545,-0.9228399395942688,-0.03280597925186157,-0.03785717487335205,0.006259739398956299,-0.8566049261594022,0.008601499606970724,-0.19622960485049426,-0.4771245384069645,0.17338313963959978,0.35717891911439464,0.9850213130314026
1781116675647394304,2.6037914752960205,-0.03363151103258133,0.03586074709892273,0.05013417825102806,0.344695121049881,-0.17245179414749146,-0.9227381348609924,-0.02732756733894348,-0.032580554485321045,-0.0038213133811950684,-0.856447024571301,0.0087614794534877,-0.19635216817528836,-0.47735473091687275,0.1733182078556068,0.3575048242908179,0.9855709259684549
1781116675657428480,2.613825559616089,-0.05347179248929024,0.02298969216644764,0.05131715536117554,0.3448801636695862,-0.1722104847431183,-0.9227140545845032,-0.01341351866722107,-0.026931986212730408,-0.0017244219779968262,-0.8562956331008047,0.008975044431467509,-0.19637316557292603,-0.4776137865504936,0.17307323571967734,0.35768935375638705,0.9862110129834708
1781116675667463424,2.6238605976104736,-0.06178059056401253,0.018366975709795952,0.048410046845674515,0.34497177600860596,-0.17184677720069885,-0.9227476119995117,-0.001145482063293457,-0.023084253072738647,-0.0015230178833007812,-0.8561536698871757,0.009221078572856627,-0.19631903171001613,-0.47788567044262115,0.17270403565696982,0.35776450821714,0.9868968264648912
1781116675677498624,2.6338956356048584,-0.06617240607738495,0.01209443248808384,0.045762065798044205,0.3450276553630829,-0.17140841484069824,-0.9228082299232483,0.0022776126861572266,-0.011605501174926758,-0.005109190940856934,-0.8560236600466912,0.009488939244062428,-0.19622903300557187,-0.478150247305083,0.17225905768409852,0.3577961088859489,0.9875755569618896
1781116675687533568,2.643930673599243,-0.0648440271615982,0.005928815808147192,0.03701198473572731,0.34503984451293945,-0.17096678912639618,-0.9228856563568115,0.006461620330810547,0.003654167056083679,-0.0055353641510009766,-0.8559089351635846,0.00974249854290643,-0.19611799613789974,-0.47839611612778365,0.1718108249568522,0.35778017522941874,0.988210640028776
1781116675697567744,2.6539647579193115,-0.07070537656545639,0.001148441806435585,0.030222522094845772,0.3450039327144623,-0.17044693231582642,-0.9229952096939087,0.012707829475402832,0.013556048274040222,-0.004632353782653809,-0.8558202818792792,0.010010984045009462,-0.19596473719233237,-0.4786119616370938,0.1712832166224816,0.3577071160067449,0.988785744791251
1781116675707602688,2.6639997959136963,-0.07984986901283264,-0.003052827902138233,0.019642315804958344,0.34494635462760925,-0.16983148455619812,-0.9231301546096802,0.017617732286453247,0.016343310475349426,3.933906555175781e-06,-0.8557583061536398,0.010307817760217339,-0.19577708064866067,-0.4787932258861018,0.1706586610951434,0.3576044212489722,0.9892928829341262
1781116675717637888,2.674034833908081,-0.07947570085525513,-0.004848863929510117,0.007523069623857737,0.34487274289131165,-0.16914375126361847,-0.9232839345932007,0.021155089139938354,0.019104093313217163,0.0028737783432006836,-0.8557270785132319,0.010621783713224857,-0.19556385218061428,-0.47892913731995257,0.16996084477156087,0.3574798459538954,0.9897037053369558
1781116675727671552,2.6840686798095703,-0.07298743724822998,-0.001511523500084877,-0.0016461939085274935,0.34483882784843445,-0.1684427708387375,-0.9234247207641602,0.020654946565628052,0.025559470057487488,0.006005287170410156,-0.8557201025208345,0.01094045776140576,-0.1953661885611895,-0.47901511164700405,0.16924965608429426,0.3573976530591355,0.9900002599961181
1781116675737706752,2.694103717803955,-0.06198379024863243,0.00912460871040821,-0.013668236322700977,0.34488987922668457,-0.167791485786438,-0.9235242009162903,0.016712874174118042,0.030950680375099182,0.010682463645935059,-0.8557296439125976,0.011247775651328383,-0.19522134923145787,-0.4790500654225738,0.16858896868459416,0.3574108507859703,0.9901720279660243
1781116675747741696,2.70413875579834,-0.054073136299848557,0.0176274161785841,-0.026004796847701073,0.34505364298820496,-0.1671896129846573,-0.9235722422599792,0.010201483964920044,0.033553123474121094,0.013492286205291748,-0.85575724913893,0.011549293171969958,-0.1951422618802558,-0.4790258859653322,0.16797846138157024,0.35754940567169813,0.9902005686422735
1781116675757776640,2.7141737937927246,-0.04409453645348549,0.02364509552717209,-0.03566727787256241,0.345298707485199,-0.16663934290409088,-0.9235800504684448,0.009132444858551025,0.03324700891971588,0.010280489921569824,-0.8558060832841462,0.011835924354558991,-0.19511502963124813,-0.47894275796742014,0.16742037380673216,0.3577794631175807,0.9900856268795271
1781116675767811840,2.7242088317871094,-0.034393440932035446,0.022967319935560226,-0.04404185339808464,0.34557297825813293,-0.16615431010723114,-0.9235648512840271,0.015465229749679565,0.03614942729473114,0.0043448805809021,-0.855875447645068,0.012090367703448375,-0.19511891890263455,-0.4788106041680737,0.16692848476293637,0.35804537695082406,0.9898477263336499
1781116675777846784,2.734243869781494,-0.01702670194208622,0.015738703310489655,-0.0644102394580841,0.3458446264266968,-0.16573841869831085,-0.9235379099845886,0.023555397987365723,0.03832753002643585,-0.002319633960723877,-0.8559827818422043,0.012296927513269032,-0.19514054738693293,-0.47860461571415125,0.166506736927731,0.3583129500705039,0.9894280239190988
1781116675787880704,2.7442777156829834,-0.0011308264220133424,0.006990085355937481,-0.07168812304735184,0.34607094526290894,-0.16543935239315033,-0.9235067367553711,0.029081612825393677,0.03873036801815033,-0.015610694885253906,-0.856133244978642,0.012422241439325701,-0.19517251976129674,-0.47831923202895266,0.1662034853399976,0.3585389451033267,0.9888062189214375
1781116675797915648,2.754312753677368,-0.005467517767101526,-0.003569880500435829,-0.07682110369205475,0.34622207283973694,-0.16516146063804626,-0.9234998226165771,0.02786239981651306,0.03085361421108246,-0.030113399028778076,-0.8563059944724307,0.012512378550881064,-0.19517560178789223,-0.4780062309137313,0.16592171535718667,0.35868486812329065,0.9881159537241809
1781116675807950848,2.764347791671753,-0.01697636768221855,-0.02616507187485695,-0.07895402610301971,0.3462081253528595,-0.1647937297821045,-0.9235707521438599,0.023802250623703003,0.016386747360229492,-0.03997600078582764,-0.8565113571422884,0.012595004836425113,-0.1950794187514462,-0.4776753650553422,0.16554888429304637,0.35864638951884753,0.9873940648192328
1781116675817985792,2.7743828296661377,-0.025736304000020027,-0.045324649661779404,-0.06772693991661072,0.34597840905189514,-0.16435030102729797,-0.9237358570098877,0.02165156602859497,-0.0011923015117645264,-0.046906232833862305,-0.8567216824250906,0.012664051566838985,-0.19486326877961024,-0.47738457416285707,0.16509932080302953,0.35836959344842884,0.9867730005104819
1781116675828020736,2.7844178676605225,-0.049374788999557495,-0.06048855930566788,-0.05577254667878151,0.3455958664417267,-0.16377858817577362,-0.9239805340766907,0.016968220472335815,-0.01375742256641388,-0.048553645610809326,-0.856917918735236,0.012765110868988652,-0.19454247641691513,-0.47716028176959446,0.16451974655142518,0.35791944639818113,0.9863225401836071
1781116675838055680,2.794452667236328,-0.07668763399124146,-0.07874719053506851,-0.03705025836825371,0.3450239598751068,-0.16301950812339783,-0.9243284463882446,0.008064419031143188,-0.02701343595981598,-0.034793198108673096,-0.8570954862136173,0.012919438282394696,-0.19408467608214722,-0.477023474007956,0.1637503328070388,0.3572529711354703,0.9860991301582104
1781116675848090624,2.804487705230713,-0.09841876477003098,-0.08861207216978073,-0.02063213661313057,0.34428298473358154,-0.16210921108722687,-0.9247647523880005,0.004471898078918457,-0.03898635506629944,-0.01990687847137451,-0.8572383630537884,0.01312117917035121,-0.1935083158309979,-0.4769954499765818,0.16282776842802446,0.35639487562196454,0.9861475355810793
1781116675858124800,2.8145217895507812,-0.10340926051139832,-0.09430990368127823,-0.00367099535651505,0.34345200657844543,-0.16111528873443604,-0.925247311592102,-0.0031047165393829346,-0.044191718101501465,-0.00869739055633545,-0.8573481116716059,0.013355310436492672,-0.19286779834454076,-0.47705110057143413,0.161820603025901,0.35543521765571057,0.9864007485655961
1781116675868159744,2.824556827545166,-0.09237365424633026,-0.09143555164337158,0.005769643932580948,0.3425765037536621,-0.16019609570503235,-0.925731360912323,-0.006318569183349609,-0.04201337695121765,0.004390418529510498,-0.8574274332732651,0.01355746462305926,-0.1922251723825909,-0.4771622301689912,0.1608893151837248,0.3544330225424902,0.9867717995878382
1781116675878194688,2.834591865539551,-0.06982200592756271,-0.08888823539018631,0.02221626229584217,0.3417230248451233,-0.15948060154914856,-0.9261702299118042,-0.009996950626373291,-0.03415343165397644,0.0153120756149292,-0.8574720645416181,0.013684357473614298,-0.19164449960949848,-0.47731217890814776,0.1601644954548854,0.3534679354044833,0.9872053274504689
1781116675888229632,2.8446266651153564,-0.05086136236786842,-0.07828126847743988,0.03388836234807968,0.34090182185173035,-0.1590135544538498,-0.9265530705451965,-0.013326138257980347,-0.03162975609302521,0.024880707263946533,-0.8574802770407945,0.01371822175150487,-0.19114199475572474,-0.4774977893930426,0.15969141017234406,0.35255333475738315,0.9876880737135524
1781116675898264576,2.854661703109741,-0.04255310073494911,-0.06857138127088547,0.04315882921218872,0.34015169739723206,-0.15872471034526825,-0.9268782734870911,-0.020495325326919556,-0.03735072910785675,0.035322487354278564,-0.8574565835145501,0.013698067008547707,-0.1907176889009343,-0.4777105409023609,0.15939884897899992,0.3517265918170907,0.9882108520844739
1781116675908299776,2.864696741104126,-0.025983178988099098,-0.057174116373062134,0.05260985344648361,0.33949148654937744,-0.15857842564582825,-0.9271453022956848,-0.02416861057281494,-0.03940437734127045,0.041342079639434814,-0.8573956070925004,0.013646526132081848,-0.190370985209427,-0.4779598248651867,0.15925068969904488,0.35100565589235067,0.9888009473782424
1781116675918333696,2.8747308254241943,-0.027998391538858414,-0.047432541847229004,0.06446518748998642,0.338913232088089,-0.1585329920053482,-0.9273645877838135,-0.023010551929473877,-0.035848721861839294,0.04500985145568848,-0.857302720059742,0.013578858068578899,-0.19008764583750945,-0.4782409029912145,0.15920467611455266,0.35037936030830474,0.9894528692791991
1781116675928368896,2.884765863418579,-0.03249753639101982,-0.03223255276679993,0.07279156148433685,0.33843982219696045,-0.15850965678691864,-0.9275414347648621,-0.02296435832977295,-0.03593309223651886,0.046270132064819336,-0.8571721605755843,0.013538551593716487,-0.18985777804117773,-0.4785671745807635,0.1591810482601953,0.3498675194011556,0.9902091481439644
1781116675938403584,2.8948006629943848,-0.05643349513411522,-0.024766113609075546,0.07993336021900177,0.33804452419281006,-0.1583545207977295,-0.927712082862854,-0.02349984645843506,-0.037827715277671814,0.043053269386291504,-0.8570123587333712,0.013587116961661254,-0.189629496965698,-0.4789423186918758,0.1590239296823046,0.34943220715538714,0.9910987814419923
1781116675948438528,2.9048357009887695,-0.07865464687347412,-0.01823551021516323,0.08536221086978912,0.33770835399627686,-0.15800070762634277,-0.9278948307037354,-0.020249277353286743,-0.03398537635803223,0.03771233558654785,-0.8568322600309268,0.013747517036243509,-0.18937682519774215,-0.47935997744442,0.15866560005184305,0.3490489682724524,0.9921156745450407
1781116675958473728,2.9148707389831543,-0.08926814049482346,-0.013179231435060501,0.0871281549334526,0.33742886781692505,-0.15749859809875488,-0.9280818700790405,-0.015086978673934937,-0.021486997604370117,0.028896689414978027,-0.8566344890841792,0.013994847280548391,-0.18911165087067403,-0.4798105662718657,0.15815712323679626,0.34871824765225495,0.9932304107780109
1781116675968508672,2.924905776977539,-0.10646604001522064,-0.009159989655017853,0.08564797043800354,0.33718767762184143,-0.1568869650363922,-0.92827308177948,-0.004958063364028931,-0.009327024221420288,0.02071082592010498,-0.8564305218162203,0.014302812229728248,-0.18883559832259214,-0.48027409392615134,0.1575377865963377,0.34842256310000125,0.9943909736281561
1781116675978543872,2.934940814971924,-0.13326703011989594,-0.01564798131585121,0.08076506108045578,0.3369506299495697,-0.1560516357421875,-0.9284999370574951,0.005761772394180298,0.003433242440223694,0.007906734943389893,-0.8562333369590847,0.014711025054858686,-0.1885036140982679,-0.4807435099313831,0.15669204554607025,0.3481185683245778,0.9955956374050481
1781116675988577536,2.944974660873413,-0.14749151468276978,-0.024018697440624237,0.06618186086416245,0.3366561830043793,-0.15499180555343628,-0.9287842512130737,0.020368963479995728,0.01277989149093628,0.0007904767990112305,-0.8560616761315094,0.015198879228051356,-0.18808742737497963,-0.4811968774876386,0.1556191625918506,0.34774024752714094,0.9967921053408374
1781116675998612736,2.955009698867798,-0.14534446597099304,-0.02420671656727791,0.05394116789102554,0.33633458614349365,-0.15380066633224487,-0.9290987253189087,0.029647469520568848,0.021995261311531067,-0.0028623342514038086,-0.8559295817704977,0.01572473327140414,-0.18762564883799127,-0.4815951400139593,0.1544135693149505,0.34732581525042094,0.997877002319228
1781116676008647680,2.9650447368621826,-0.12984301149845123,-0.021129168570041656,0.03614725545048714,0.3360491394996643,-0.1526670902967453,-0.9293888807296753,0.034449487924575806,0.041598379611968994,-0.008416235446929932,-0.8558298542270844,0.016218975987641514,-0.1871964012831968,-0.4819228810506846,0.15326643943445536,0.34695425644579236,0.9987899799638369
1781116676018682624,2.9750797748565674,-0.10415548086166382,-0.020403720438480377,0.013499735854566097,0.3358035981655121,-0.15167711675167084,-0.9296396970748901,0.030147910118103027,0.05492113530635834,-0.007982373237609863,-0.8557768225788749,0.01663779564342371,-0.18682434340566856,-0.48214699277244294,0.1522647948198958,0.3466343903039565,0.9994421480314613
1781116676028717824,2.985114812850952,-0.07539493590593338,-0.01885456219315529,-0.006537888199090958,0.3356388807296753,-0.15085390210151672,-0.9298331141471863,0.027962803840637207,0.06450442969799042,-0.00783473253250122,-0.8557755967927572,0.016977944098353646,-0.1865346910796506,-0.48224951149867934,0.15143200795369394,0.3464111939084589,0.9997893475598216
1781116676038752768,2.995149850845337,-0.04994789883494377,-0.01754029095172882,-0.025527292862534523,0.3355045020580292,-0.1502356231212616,-0.9299817085266113,0.029089003801345825,0.0657477080821991,-0.002574443817138672,-0.8558232178824505,0.017212224376222603,-0.18631392688102577,-0.482242178846454,0.1508065990551244,0.346232298859646,0.9998528189287941
1781116676048786688,3.005183696746826,-0.024415642023086548,-0.009381432086229324,-0.045210450887680054,0.3354302942752838,-0.1497689187526703,-0.9300837516784668,0.022617191076278687,0.05910119414329529,0.003615856170654297,-0.8559186937673139,0.01737205205615791,-0.18616212445532634,-0.4821255682434086,0.15033454433632168,0.34612670107679977,0.9996417229632866
1781116676058821632,3.015218734741211,-0.0025036861188709736,-0.0052018663845956326,-0.061090610921382904,0.33544740080833435,-0.14945612847805023,-0.9301279187202454,0.012681841850280762,0.05425654351711273,0.007016956806182861,-0.8560519259287418,0.017467182185947443,-0.18609392246207487,-0.48191192808655287,0.1500182040187898,0.3461278242815326,0.9991852097052145
1781116676068856832,3.0252537727355957,0.01378021202981472,0.002635017968714237,-0.07298029214143753,0.335547536611557,-0.14928887784481049,-0.9301186203956604,0.005989968776702881,0.049847349524497986,0.007145047187805176,-0.8562123601478419,0.017503641487005492,-0.18610292460407876,-0.4816220555633057,0.149849052056412,0.34622624786796274,0.998532867419277
1781116676078891776,3.0352888107299805,0.03507271781563759,0.01158377155661583,-0.08144515007734299,0.33573246002197266,-0.14925949275493622,-0.930056631565094,0.0029058456420898438,0.04289047420024872,0.009570181369781494,-0.8563969285174237,0.01748640191827866,-0.1861878410843379,-0.4812615489373284,0.14981933711455106,0.34642345818593473,0.997698894963757
1781116676088926720,3.0453238487243652,0.05718041583895683,0.014365976676344872,-0.08430165797472,0.33597642183303833,-0.1493944376707077,-0.9299468398094177,0.0005561709403991699,0.0345110148191452,0.005660951137542725,-0.856589329407888,0.017403872054845747,-0.18634291372752254,-0.4808618007350919,0.1499558073498465,0.3466932281129539,0.9967524554386128
1781116676098961664,3.055358648300171,0.0730307549238205,0.019748756662011147,-0.08575494587421417,0.33625829219818115,-0.14971062541007996,-0.9297941327095032,0.00028952956199645996,0.026053398847579956,0.0016477704048156738,-0.856784515774149,0.0172455441023795,-0.1865624254789156,-0.48043450934152543,0.1502755921951405,0.3470138563226481,0.9957181557141644
1781116676108996608,3.0653936862945557,0.07988493144512177,0.017927421256899834,-0.08485079556703568,0.336575448513031,-0.15015383064746857,-0.9296078681945801,0.00033861398696899414,0.018150046467781067,-0.0007662773132324219,-0.856977839016855,0.017037251450418435,-0.1868309422655299,-0.47999255676336966,0.15072386441684907,0.34737959575576144,0.9946332358696436
1781116676119030784,3.075427770614624,0.08562511205673218,0.016666147857904434,-0.0878942608833313,0.3368683457374573,-0.1506355106830597,-0.9294238090515137,0.00019827485084533691,0.010498806834220886,0.0021777749061584473,-0.8571769972729881,0.016803369609895754,-0.18709820146919173,-0.4795407820647908,0.15121108852927664,0.3477215463305983,0.9935197228134065
1781116676129065728,3.085462808609009,0.09722184389829636,0.015897827222943306,-0.08322334289550781,0.3371623754501343,-0.1512112021446228,-0.9292237162590027,0.0025287866592407227,0.004970967769622803,0.0024048686027526855,-0.8573726716586687,0.016527723513161396,-0.18738990054532095,-0.4790867515286946,0.15179344780638085,0.3480701781210137,0.9923883880220905
1781116676139100672,3.0954978466033936,0.11061301827430725,0.017645126208662987,-0.07423197478055954,0.33743855357170105,-0.1519370824098587,-0.9290050268173218,0.0009708404541015625,-0.0005745142698287964,0.00033986568450927734,-0.8575569053332273,0.016183353795030213,-0.18771144061866651,-0.47864257410198074,0.15252781290021286,0.3484083163361196,0.9912591668542915
1781116676149135616,3.105532646179199,0.11386846750974655,0.01474467758089304,-0.06431010365486145,0.3376850485801697,-0.1527421623468399,-0.9287834167480469,-0.00011485815048217773,-0.004148706793785095,-0.000919342041015625,-0.8577190514722491,0.015804425199067062,-0.1880385883013183,-0.4782360868381874,0.15334240411682365,0.34871929753996883,0.990206526776653
1781116676159170560,3.115567684173584,0.10147570818662643,0.01143663190305233,-0.05876807123422623,0.33790794014930725,-0.15355810523033142,-0.9285677671432495,0.003156512975692749,-0.015066757798194885,-0.002904951572418213,-0.8578607829151387,0.015422966595686554,-0.1883566795399247,-0.47786895671488067,0.15416808412492441,0.3490058404765448,0.9892437365049315
1781116676169205760,3.1256027221679688,0.08445704728364944,0.007063322234898806,-0.04345569387078285,0.3380686342716217,-0.15422947704792023,-0.9283980131149292,0.002248138189315796,-0.029303237795829773,0.0015333890914916992,-0.8579859104623688,0.015100487743043471,-0.1886079860602886,-0.4775552947461624,0.15484754813755014,0.3492174374091257,0.9884241123852006
1781116676179239680,3.135636806488037,0.07207920402288437,0.003015850204974413,-0.03232447803020477,0.3381710350513458,-0.15481022000312805,-0.9282640218734741,0.0015658438205718994,-0.040166571736335754,0.0039018988609313965,-0.8580777196107939,0.014819904460807326,-0.1888077035824872,-0.4773202455942362,0.15543535381733709,0.3493612493276158,0.9877990727494798
1781116676189274880,3.145671844482422,0.04266379401087761,-0.0032662805169820786,-0.013992075808346272,0.3381894528865814,-0.1552596539258957,-0.9281823039054871,-0.0011533498764038086,-0.045881688594818115,-0.0010016560554504395,-0.8581379648319248,0.0145937319048714,-0.18893354682169164,-0.477169166814908,0.1558902906779161,0.3494070901007466,0.9873861091978292
1781116676199309568,3.1557066440582275,0.0283394493162632,-0.010313537903130054,-0.0031064050272107124,0.3381246030330658,-0.1555624008178711,-0.9281551837921143,-0.001881927251815796,-0.044312477111816406,0.003503084182739258,-0.8581705977201157,0.014427721388137808,-0.18898210684072805,-0.4770961899115574,0.15619675246964604,0.3493547791184752,0.9871736127047906
1781116676209344512,3.1657416820526123,0.013619890436530113,-0.012782554142177105,0.007702033966779709,0.3380016088485718,-0.15576030313968658,-0.9281668066978455,0.0010944902896881104,-0.04641863703727722,0.005193173885345459,-0.8581811481173511,0.01430599553772155,-0.18897600652234425,-0.47708326795840994,0.15639711121525504,0.3492337570051354,0.9871143511500976
1781116676219379712,3.175776720046997,0.005835470277816057,-0.016111772507429123,0.01872725412249565,0.3378527760505676,-0.15589666366577148,-0.9281980991363525,-0.001396477222442627,-0.044512271881103516,0.009527444839477539,-0.8581622235049734,0.014218630982162543,-0.18894120693615302,-0.4771337228164145,0.15653514622972414,0.3490813652159464,0.9872107485448696
1781116676229414656,3.185811758041382,0.009705842472612858,-0.015059422701597214,0.027432594448328018,0.33767998218536377,-0.1560460925102234,-0.9282358884811401,-0.0038787126541137695,-0.04097539186477661,0.010511279106140137,-0.8581208417063025,0.014128930459636617,-0.18889795498389203,-0.4772279049622363,0.15668642996475043,0.348903889579818,0.9874068781246876
1781116676239448832,3.19584584236145,0.006189936771988869,-0.01745200715959072,0.03612275794148445,0.33748045563697815,-0.15623138844966888,-0.9282772541046143,-0.0027178823947906494,-0.037631526589393616,0.012612581253051758,-0.858063265381065,0.014023367067982333,-0.18885103597117198,-0.477353115638698,0.15687402816040014,0.3486997387407724,0.9876700592589256
1781116676249483520,3.205880641937256,-0.005605736281722784,-0.025828182697296143,0.041184891015291214,0.3372216820716858,-0.15637198090553284,-0.928347647190094,0.0006689131259918213,-0.03439339995384216,0.008669912815093994,-0.8579915853121625,0.013931045698549178,-0.18876468046737097,-0.47751893637813475,0.15701636797595944,0.348429158834184,0.9880330326611954
1781116676259518720,3.2159156799316406,-0.03015182353556156,-0.031676750630140305,0.04994696006178856,0.3368857502937317,-0.15636110305786133,-0.9284714460372925,0.00025719404220581055,-0.03977537155151367,0.00880897045135498,-0.8579078584610175,0.013896186185096204,-0.18860323740621246,-0.47773411908319324,0.15700536197030074,0.34806669516934463,0.9885302539556005
1781116676269553664,3.2259507179260254,-0.0590420626103878,-0.03163240849971771,0.06022968888282776,0.3365090787410736,-0.1561250388622284,-0.9286477565765381,-0.008490890264511108,-0.045275717973709106,0.014722585678100586,-0.8577997210876122,0.013965335318282942,-0.18836427699352545,-0.4780204809402816,0.15676636150128895,0.3476473231913065,0.9892231739561487
1781116676279588608,3.23598575592041,-0.07849059253931046,-0.022213339805603027,0.07258942723274231,0.336160808801651,-0.15569348633289337,-0.9288462996482849,-0.016580700874328613,-0.04610399901866913,0.016904771327972412,-0.8576622541154741,0.014141678656487584,-0.1880873603677451,-0.47837093049990065,0.156329458905118,0.3472473418334595,0.9900924104403119
1781116676289623808,3.246020793914795,-0.09195873141288757,-0.01816493459045887,0.07952535897493362,0.3358508050441742,-0.15516553819179535,-0.9290467500686646,-0.017766058444976807,-0.03747667372226715,0.01660168170928955,-0.857491043264639,0.014383442068984655,-0.18780238303580432,-0.4787822312269266,0.1557950231594574,0.3468832210642786,0.9911171508896953
1781116676299658752,3.2560558319091797,-0.08875974267721176,-0.010355481877923012,0.08302582055330276,0.3355900049209595,-0.15459108352661133,-0.9292367696762085,-0.009616494178771973,-0.019069194793701172,0.014151930809020996,-0.8573026968674123,0.014663624653639712,-0.18752761416257635,-0.4792185093453791,0.15521354178681004,0.34656961995295243,0.9922074162984489
1781116676309692672,3.266089677810669,-0.06853969395160675,-0.012960853055119514,0.076032355427742,0.3353461027145386,-0.15411555767059326,-0.9294037818908691,0.0002709329128265381,0.002199038863182068,0.01274728775024414,-0.8571190054696076,0.014899992057286286,-0.18728614169564012,-0.4796342156249245,0.15473224688148365,0.34628001877281545,0.9932368203408926
1781116676319727616,3.2761247158050537,-0.04976627230644226,-0.012320095673203468,0.07141231000423431,0.3351201117038727,-0.15381403267383575,-0.9295352101325989,0.00902661681175232,0.02075737714767456,0.004043936729431152,-0.856948449302755,0.015055137653061833,-0.18709816782131147,-0.48000731887704895,0.15442708369853939,0.34601972719078333,0.9941437840334677
1781116676329762816,3.2861597537994385,-0.034456558525562286,-0.012235140427947044,0.06143130734562874,0.33492305874824524,-0.15364596247673035,-0.9296340942382812,0.01309940218925476,0.03328463435173035,-7.62939453125e-06,-0.8567965789734601,0.015148062095664655,-0.1869585606194417,-0.4803299139604297,0.1542569989182406,0.3457981818388327,0.994915617171811
1781116676339797760,3.2961947917938232,-0.032160378992557526,-0.018062403425574303,0.051491860300302505,0.33470046520233154,-0.1535395383834839,-0.9297317862510681,0.017533451318740845,0.03359018266201019,-0.006471216678619385,-0.856670447281509,0.015197010171050023,-0.18682383556898643,-0.4806056792014047,0.15414929154630938,0.3455527283340544,0.9955694181120278
1781116676349832704,3.306229829788208,-0.030661020427942276,-0.02015831135213375,0.04399239644408226,0.33443543314933777,-0.15341609716415405,-0.9298475384712219,0.01868346333503723,0.02809564769268036,-0.008583247661590576,-0.8565701329797468,0.015234266125592016,-0.18666585697246577,-0.4808445670575425,0.15402436935026362,0.3452607026045991,0.9961386311969533
1781116676359867904,3.3162648677825928,-0.031916167587041855,-0.021043546497821808,0.038656752556562424,0.3341773748397827,-0.15328340232372284,-0.9299622178077698,0.016072839498519897,0.02628450095653534,-0.0010985732078552246,-0.8564885284904576,0.015269933050493942,-0.18650932434413905,-0.481049529893166,0.1538900900688184,0.3449757170733592,0.9966300566948401
1781116676369901568,3.326298713684082,-0.041485704481601715,-0.015490190126001835,0.034455616027116776,0.33396610617637634,-0.1530490666627884,-0.9300767183303833,0.012667804956436157,0.020618021488189697,0.0016556978225708008,-0.8564145766675634,0.015359295015475616,-0.18634845402529046,-0.4812406662818705,0.15365295139428675,0.34473533342279306,0.997103693744101
1781116676379936768,3.336333751678467,-0.04288093373179436,-0.011211288161575794,0.024704985320568085,0.33378133177757263,-0.15274223685264587,-0.9301934242248535,0.008427560329437256,0.01812918484210968,0.009401798248291016,-0.856355031142985,0.015481948614673866,-0.18618158460467546,-0.4814072270215704,0.15334247236960527,0.3445194300078412,0.9975301179459204
1781116676389971712,3.3463687896728516,-0.03476814925670624,-0.006056074984371662,0.016777288168668747,0.33365845680236816,-0.15244202315807343,-0.9302867650985718,0.009801626205444336,0.023383185267448425,0.012760519981384277,-0.856313285334266,0.015608245953190313,-0.18604568846109654,-0.48152987422797305,0.15303870060527586,0.34437053786371175,0.997854278961697
1781116676400006656,3.3564038276672363,-0.019646719098091125,0.0022732275538146496,0.004037258215248585,0.3336193859577179,-0.15221689641475677,-0.9303376078605652,0.0072009265422821045,0.031352028250694275,0.01915907859802246,-0.8562859134817755,0.01571306104072709,-0.18596849934720505,-0.4816048033070042,0.1528109246627486,0.3443159450392529,0.9980585629052852
1781116676410041856,3.366438865661621,0.0009384497534483671,0.012224927544593811,-0.005274484865367413,0.3336809277534485,-0.1521250307559967,-0.9303305745124817,0.005598247051239014,0.033518463373184204,0.02272254228591919,-0.8562780692214652,0.01577162472145668,-0.185973006710674,-0.48161511781360034,0.15271797306487644,0.34437695596502865,0.9980961587237314
1781116676420076544,3.3764736652374268,0.017408769577741623,0.024530863389372826,-0.011147287674248219,0.3338675796985626,-0.15219582617282867,-0.9302520155906677,0.00412982702255249,0.030827432870864868,0.023162841796875,-0.8562789298106505,0.015780060224201916,-0.1860778531800407,-0.4815728562169865,0.15278959703078732,0.34458156576301857,0.9979916894437842
1781116676430111744,3.3865087032318115,0.03588471561670303,0.033936746418476105,-0.019290966913104057,0.33416417241096497,-0.15240086615085602,-0.9301119446754456,0.0011171996593475342,0.023006334900856018,0.022656500339508057,-0.8562849845495245,0.015749307971246636,-0.18626855317560265,-0.4814893625150687,0.15299705884071532,0.34491189874933115,0.997775094453034
1781116676440145664,3.39654278755188,0.054239220917224884,0.04033046215772629,-0.02142282761633396,0.33454060554504395,-0.1527479887008667,-0.9299197196960449,-0.0034401416778564453,0.0176771879196167,0.020862102508544922,-0.8563037881018695,0.015666184620629967,-0.18653342865433462,-0.48135612130518207,0.15334829812345394,0.3453361292917262,0.9974248078814633
1781116676450180864,3.4065778255462646,0.06109100207686424,0.047394633293151855,-0.018907738849520683,0.33496615290641785,-0.15321609377861023,-0.9296894669532776,-0.006322354078292847,0.012575849890708923,0.017763197422027588,-0.856322281726579,0.015538529574122294,-0.1868524171662504,-0.4812035085262895,0.15382198418645404,0.34582023635404285,0.9970138660487536
1781116676460215808,3.4166128635406494,0.05261150002479553,0.04531789943575859,-0.01798282377421856,0.33542126417160034,-0.1536862701177597,-0.9294477701187134,-0.007631957530975342,0.0036465972661972046,0.014835953712463379,-0.8563279904745213,0.015421260244179422,-0.18718523249709143,-0.4810678366127495,0.15429779646347244,0.3463364451745639,0.9966427052670964
1781116676470250496,3.426647663116455,0.04348697513341904,0.04815563187003136,-0.01528157852590084,0.3358909487724304,-0.1540779322385788,-0.929213285446167,-0.01010054349899292,-0.010716989636421204,0.017317533493041992,-0.8563260035874829,0.015345986073392532,-0.18750432209529563,-0.4809496320362901,0.1546941771590482,0.34686414880530403,0.9963230606358751
1781116676480285696,3.43668270111084,0.04525505006313324,0.053018562495708466,-0.011415201239287853,0.3363754153251648,-0.15443207323551178,-0.9289791584014893,-0.013255327939987183,-0.01570342481136322,0.014001131057739258,-0.8563156220179103,0.01529422615208048,-0.18782040098928995,-0.48084617784245876,0.1550526058983617,0.3474058543352082,0.9960429808077853
1781116676490320640,3.4467177391052246,0.059246230870485306,0.053743742406368256,-0.005533344112336636,0.3368864357471466,-0.1548917442560196,-0.9287174344062805,-0.011782675981521606,-0.007843226194381714,0.005865931510925293,-0.8562900452047463,0.015205881367070124,-0.18817560917132148,-0.48075581798501515,0.1555178781376436,0.3479823974017693,0.9957797569537735
1781116676500354816,3.456751823425293,0.07270984351634979,0.04878413677215576,-0.0032092032488435507,0.3373734652996063,-0.15548920631408691,-0.9284407496452332,-0.0054642558097839355,0.0006582736968994141,0.0008132457733154297,-0.8562565874631857,0.015052146251785194,-0.18855514630528974,-0.4806715978633968,0.15612266542309833,0.34854136494177956,0.995511602121687
1781116676510389760,3.4667868614196777,0.08379578590393066,0.04613295942544937,-0.0027929511852562428,0.3378179669380188,-0.15621331334114075,-0.9281575083732605,-0.0007208287715911865,-0.001837208867073059,-0.0030863285064697266,-0.8562250107394058,0.014830180700653506,-0.18894787088075551,-0.4805803316736544,0.15685573263184982,0.349062288630145,0.9952087839739616
1781116676520424704,3.4768216609954834,0.09665219485759735,0.041101448237895966,0.0025573396123945713,0.33822178840637207,-0.157057985663414,-0.9278678894042969,0.0007522106170654297,-0.004624128341674805,-0.009052276611328125,-0.856189464680328,0.01454549150639727,-0.18935282720599372,-0.4804929091966332,0.15771095998772192,0.34954684976397815,0.994897698022131
1781116676530459648,3.486856698989868,0.10809552669525146,0.03649138659238815,0.010935377329587936,0.338573157787323,-0.15802858769893646,-0.927574872970581,0.0008433163166046143,-0.008154869079589844,-0.01346510648727417,-0.8561468759903553,0.014194244159106547,-0.18976584617552925,-0.4804165492197347,0.15869383603149184,0.34998278565010077,0.9945943238871287
1781116676540494592,3.496891736984253,0.09855662286281586,0.029214298352599144,0.021106522530317307,0.3388512134552002,-0.15905271470546722,-0.9272982478141785,0.0035254955291748047,-0.013310566544532776,-0.015511810779571533,-0.8560828818434264,0.013810648857937152,-0.1901581759835233,-0.4803865012727884,0.15973108592928204,0.35034341577573086,0.9943903444364315
1781116676550529792,3.5069267749786377,0.07959996908903122,0.020503763109445572,0.03465855121612549,0.3390340507030487,-0.15999191999435425,-0.9270698428153992,0.006958961486816406,-0.024471580982208252,-0.01969224214553833,-0.8559958474618226,0.013454249082199771,-0.1904837531792951,-0.48042280860591974,0.16068246416345824,0.35059681491856903,0.9943512462024364
1781116676560564736,3.5169618129730225,0.04682232066988945,0.007358933333307505,0.050525665283203125,0.33908942341804504,-0.16073383390903473,-0.9269212484359741,0.010138481855392456,-0.033754706382751465,-0.02055799961090088,-0.8558850564803953,0.0131698944392886,-0.19069851040701846,-0.4805429758383567,0.16143410275592351,0.3507011880543569,0.9945326747851974
1781116676570598656,3.5269956588745117,0.025079740211367607,-0.005405731033533812,0.06698400527238846,0.33900418877601624,-0.16126051545143127,-0.9268609285354614,0.018860191106796265,-0.038812726736068726,-0.019733309745788574,-0.8557453934848682,0.01296499670310252,-0.19079161383188292,-0.4807600773821342,0.1619677461947798,0.3506410976566508,0.9949674352658814
