time,seconds_elapsed,rotationRateX,rotationRateY,rotationRateZ,gravityX,gravityY,gravityZ,accelerationX,accelerationY,accelerationZ,quaternionW,quaternionX,quaternionY,quaternionZ,pitch,roll,yaw
1781551373804883456,0.2793116569519043,0.03252636641263962,0.0016284757293760777,-0.10671532154083252,-0.3044411540031433,-0.2367233783006668,-0.9226470589637756,-0.0057395100593566895,-0.010453715920448303,0.00956118106842041,-0.9506822747079984,-0.15503005640581558,0.12100473506397652,-0.23984712588588242,0.238991979767808,-0.31871589910540576,0.5328546006394657
1781551373814917632,0.28934574127197266,0.01646723784506321,0.019525717943906784,-0.12025164067745209,-0.3040630519390106,-0.23733465373516083,-0.9226147532463074,-0.011549770832061768,-0.018219545483589172,0.019218146800994873,-0.9508055448218204,-0.15522030325761652,0.12082752971256472,-0.2393245942484706,0.2396211839518428,-0.3183567139165036,0.5318178762286327
1781551373824951552,0.299379825592041,-0.007646619807928801,0.03224444016814232,-0.13044995069503784,-0.30350780487060547,-0.23778152465820312,-0.9226824641227722,-0.01566028594970703,-0.02813337743282318,0.024473905563354492,-0.95097016936328,-0.15529487364174174,0.12059128335252883,-0.23874054115183227,0.2400812306780395,-0.317791955994368,0.5305856279089759
1781551373834985472,0.3094136714935303,-0.03159110248088837,0.05156993493437767,-0.14397640526294708,-0.3027850091457367,-0.2380317896604538,-0.9228554368019104,-0.018214136362075806,-0.033422067761421204,0.0284309983253479,-0.9511745584693737,-0.15524041055049048,0.12030255894393777,-0.238106591191883,0.24033889410071405,-0.31702940093160886,0.5291774301962598
1781551373845019648,0.31944775581359863,-0.0322188064455986,0.07191142439842224,-0.16914035379886627,-0.3018183410167694,-0.23820798099040985,-0.9231265783309937,-0.02188161015510559,-0.03309328854084015,0.03518712520599365,-0.9514254551976643,-0.15510425883028384,0.11991407169715221,-0.2373878722028978,0.24052030626894877,-0.31599665901661966,0.5275326529284734
1781551373855054592,0.3294827938079834,0.0031674117781221867,0.0964343473315239,-0.19168640673160553,-0.30059534311294556,-0.23862294852733612,-0.923418402671814,-0.023867517709732056,-0.023706138134002686,0.024462103843688965,-0.9517028360386227,-0.15504348858622072,0.11938310012811089,-0.23658164294233827,0.24094759611333427,-0.31470626589077044,0.5257092486565758
1781551373865088768,0.33951687812805176,0.03860130161046982,0.1265677511692047,-0.23602910339832306,-0.299053817987442,-0.2394801825284958,-0.9236969351768494,-0.026294082403182983,-0.009024456143379211,0.022970616817474365,-0.9520056208081519,-0.1551493349023914,0.11866007338183902,-0.23565591518114642,0.241830417652137,-0.31310770788916165,0.5236712689701207
1781551373875122432,0.349550724029541,0.07570792734622955,0.16430634260177612,-0.2795875072479248,-0.2970917820930481,-0.24080869555473328,-0.9239846467971802,-0.030453354120254517,0.00643371045589447,0.03084200620651245,-0.9523512014036277,-0.15541755710545924,0.11769901375201318,-0.23456225830499358,0.2431989860827896,-0.3110931472633148,0.5213041389954379
1781551373885156608,0.3595848083496094,0.10155948996543884,0.20515191555023193,-0.3212659955024719,-0.29464948177337646,-0.24256116151809692,-0.9243082404136658,-0.036298394203186035,0.010658085346221924,0.02706092596054077,-0.9527413512988405,-0.15581989758344666,0.11647331121414534,-0.23331936608865322,0.2450049853795498,-0.3085943974662759,0.5186255332287052
1781551373895190528,0.36961865425109863,0.10442452132701874,0.2524360716342926,-0.35144200921058655,-0.29169127345085144,-0.24451327323913574,-0.9247320890426636,-0.04325437545776367,0.004935041069984436,0.01709359884262085,-0.9531874962087468,-0.15624200877535357,0.1149886485677841,-0.23194720826291026,0.2470176901571594,-0.30555494724979815,0.5156234990073758
1781551373905224448,0.379652738571167,0.09595061838626862,0.29623281955718994,-0.3952070474624634,-0.2882084548473358,-0.246562197804451,-0.9252799153327942,-0.043334513902664185,0.0012008696794509888,0.015505194664001465,-0.9536975270160877,-0.15663153523623444,0.11325454224231224,-0.23043672291400402,0.24913133372823676,-0.301957585206805,0.5122556090977566
1781551373915258624,0.38968682289123535,0.04822836443781853,0.31871843338012695,-0.434015691280365,-0.28429335355758667,-0.24846671521663666,-0.9259814023971558,-0.03807908296585083,-0.0044171810150146484,0.007890582084655762,-0.9542926844722472,-0.15687360973558706,0.11135509895463203,-0.22872758463774104,0.2510970036845202,-0.29788321175507,0.5083627121129254
1781551373925293568,0.3997218608856201,-0.015074708499014378,0.3253864347934723,-0.47669899463653564,-0.28014305233955383,-0.2499305158853531,-0.9268519878387451,-0.026390761137008667,-0.0011833757162094116,0.002611875534057617,-0.954978617223953,-0.1568449489577329,0.10942423673996755,-0.2268081899189487,0.2526084959443228,-0.29352174553819915,0.5038981330389571
1781551373935327488,0.4097557067871094,-0.08383965492248535,0.3256394565105438,-0.5206328630447388,-0.2758435606956482,-0.2509097754955292,-0.9278764128684998,-0.016545355319976807,-0.0028591156005859375,0.003315865993499756,-0.9557583305170728,-0.15653248767344025,0.107514544374558,-0.224642548938237,0.25361998147365017,-0.2889639325953865,0.4987974228449258
1781551373945361664,0.41978979110717773,-0.18912719190120697,0.3248142600059509,-0.5553876757621765,-0.2714613080024719,-0.25116047263145447,-0.9291002154350281,-0.016533076763153076,-0.013060718774795532,0.006904780864715576,-0.9566395851551402,-0.15582379776493116,0.10568275959058149,-0.22224039172125457,0.25387896994349207,-0.28426396932740894,0.4930509009388038
1781551373955395584,0.4298238754272461,-0.3326835632324219,0.32561933994293213,-0.5890934467315674,-0.26698872447013855,-0.2503107786178589,-0.93062424659729,-0.019906997680664062,-0.019724011421203613,0.014089882373809814,-0.9576458460206604,-0.15453098410629207,0.10396171590864205,-0.21960555279131716,0.2530012301578984,-0.2793882257671081,0.48660302801630984
1781551373965429504,0.43985772132873535,-0.4954005777835846,0.3370857238769531,-0.6317737698554993,-0.26236051321029663,-0.2480906993150711,-0.9325330853462219,-0.02502351999282837,-0.021822020411491394,0.018150150775909424,-0.9588030874300455,-0.15250774808186002,0.10234665143895903,-0.2167100943549979,0.25070883332308674,-0.2742524870377612,0.47934773797423363
1781551373975463680,0.4498918056488037,-0.6354737877845764,0.3291223347187042,-0.6684404611587524,-0.2575826942920685,-0.24448353052139282,-0.9348149299621582,-0.02572724223136902,-0.023674428462982178,0.022171497344970703,-0.9601097267292947,-0.14974750027928305,0.10083758710111447,-0.21353409634804862,0.24698703042907116,-0.268871937164197,0.471261151025969
1781551373985498624,0.4599268436431885,-0.7415387034416199,0.3204537332057953,-0.7182213068008423,-0.2528412640094757,-0.23979854583740234,-0.9373195767402649,-0.021221846342086792,-0.029808983206748962,0.03203088045120239,-0.9615218347289817,-0.14643408337256464,0.09948506779452435,-0.2100847220529735,0.24215834272640363,-0.263478115941699,0.46246523402834866
1781551373995532544,0.46996068954467773,-0.850256621837616,0.3021114766597748,-0.7662333250045776,-0.24812333285808563,-0.23418252170085907,-0.9399964809417725,-0.018661335110664368,-0.024560749530792236,0.03086256980895996,-0.9630303918383902,-0.1426390978801112,0.09826421242010988,-0.20632662692949277,0.23637762648665903,-0.25807557906237816,0.4529263873703226
1781551374005566720,0.4799947738647461,-0.9394845366477966,0.28804025053977966,-0.7912028431892395,-0.24352441728115082,-0.22766436636447906,-0.9427962303161621,-0.02098667621612549,-0.003475770354270935,0.022782862186431885,-0.9548244360097751,-0.1425190240678279,0.09105052395425771,-0.24435293035708253,0.22967838791918013,-0.2527751816996538,0.5303848572173894
1781551374015600640,0.49002885818481445,-0.9664889574050903,0.27734872698783875,-0.8110761642456055,-0.23904496431350708,-0.22053943574428558,-0.9456319808959961,-0.024459034204483032,0.027927756309509277,0.01989656686782837,-0.9566012896880769,-0.13795196468721296,0.09029542543690912,-0.2402703376020257,0.22236748300439543,-0.24760148691502062,0.5199441412934693
1781551374025634560,0.5000627040863037,-0.8998886346817017,0.27410128712654114,-0.8373149633407593,-0.23461639881134033,-0.21361878514289856,-0.9483259916305542,-0.03325164318084717,0.04998353123664856,0.0151900053024292,-0.9583467371589295,-0.13350409903363322,0.08951906789748425,-0.23608185701647028,0.21527775468389063,-0.2425306637874222,0.5094021300952761
1781551374035668736,0.5100967884063721,-0.7955694198608398,0.2840423285961151,-0.8586689829826355,-0.23016270995140076,-0.20751890540122986,-0.9507686495780945,-0.04226770997047424,0.06613096594810486,0.0014430880546569824,-0.9600272482355302,-0.1294750640179163,0.08861085219779936,-0.2318015693322029,0.2090379712313051,-0.23751139992852616,0.49886871067390276
1781551374045702656,0.5201308727264404,-0.6443833708763123,0.2941729724407196,-0.8619124293327332,-0.2256239950656891,-0.20261512696743011,-0.9529117941856384,-0.04653175175189972,0.07410562038421631,0.002838611602783203,-0.9616105507284544,-0.12605212402295934,0.08749259896053127,-0.22751055045148041,0.204027703337094,-0.2324917045554695,0.4885491910146666
1781551374055737600,0.5301656723022461,-0.48242300748825073,0.29796773195266724,-0.862518846988678,-0.22104279696941376,-0.199171781539917,-0.9547097682952881,-0.04528409242630005,0.07224917411804199,-0.004625558853149414,-0.9630649933024027,-0.12338054963348354,0.08615317575627596,-0.2232952783890861,0.20051269682372524,-0.2275198950001259,0.4786518404206435
1781551374065771520,0.5401997566223145,-0.3577977120876312,0.2967100739479065,-0.872382640838623,-0.21644462645053864,-0.1971023678779602,-0.9561915993690491,-0.038712844252586365,0.058628857135772705,0.003997385501861572,-0.9644120717784155,-0.1214150428711687,0.08463206918307863,-0.21910070400396328,0.19840143164384516,-0.22260961708652166,0.4690346105984284
1781551374075805696,0.5502338409423828,-0.3129202425479889,0.27767297625541687,-0.8735091686248779,-0.21195070445537567,-0.19580988585948944,-0.9574629664421082,-0.033654749393463135,0.038400232791900635,0.01891016960144043,-0.9656840820657582,-0.11986970206726938,0.08306478279561584,-0.21490843589125885,0.19708325075964492,-0.21785380911172048,0.45957568712027796
1781551374085839616,0.5602676868438721,-0.32280483841896057,0.2812398672103882,-0.8946179151535034,-0.2075970470905304,-0.19464276731014252,-0.9586541056632996,-0.024641722440719604,0.015077322721481323,0.03539055585861206,-0.966924494540448,-0.11841826117347895,0.0815479801981475,-0.21067516456320948,0.19589323775477835,-0.21325771257996926,0.4500917412355105
1781551374095873536,0.5703017711639404,-0.36486414074897766,0.24086342751979828,-0.8920471668243408,-0.2033696323633194,-0.19320282340049744,-0.9598507285118103,-0.021300747990608215,-0.01076139509677887,0.04449129104614258,-0.9681671336286142,-0.11685414917327955,0.08012324652346135,-0.20634376890223755,0.1944254356432615,-0.20878857867853323,0.4404075035951596
1781551374105907712,0.5803358554840088,-0.43033504486083984,0.23141813278198242,-0.8854055404663086,-0.19935975968837738,-0.19120515882968903,-0.9610912203788757,-0.019771695137023926,-0.03889736533164978,0.04322928190231323,-0.9694021440626497,-0.11505121953790161,0.0788518917080043,-0.20200296347637114,0.19238981938648606,-0.20453008904170064,0.4306822939258774
1781551374115941632,0.590369701385498,-0.5058358907699585,0.21116319298744202,-0.8726705312728882,-0.19554036855697632,-0.18844115734100342,-0.9624208807945251,-0.013871252536773682,-0.05588257312774658,0.034350812435150146,-0.9706373469291598,-0.11290166038860942,0.07773537376056373,-0.19767048820160912,0.18957462478848033,-0.2004470806671472,0.420926229433454
1781551374125976576,0.6004047393798828,-0.5405989289283752,0.18913473188877106,-0.8601001501083374,-0.19195908308029175,-0.18505120277404785,-0.9637985825538635,-0.005352303385734558,-0.050269827246665955,0.0241471529006958,-0.9718616615495582,-0.1104794806660081,0.07677877266272073,-0.19334988992234026,0.18612397086141277,-0.19659667015464688,0.4111750189122916
1781551374136010752,0.6104388236999512,-0.5274778008460999,0.15019558370113373,-0.8434807062149048,-0.18874523043632507,-0.1815166175365448,-0.9651046395301819,0.008126944303512573,-0.0378589928150177,0.0018172860145568848,-0.9730368434221963,-0.10804027728639012,0.07599331565029632,-0.18908062141368118,0.1825284662359927,-0.19313206410713446,0.4015861923144144
1781551374146044416,0.6204726696014404,-0.5041378736495972,0.08780849725008011,-0.8350754976272583,-0.18607734143733978,-0.1781056821346283,-0.9662575125694275,0.026134714484214783,-0.034327179193496704,-0.00748211145401001,-0.9741446213383158,-0.10573277344355288,0.07544415800917037,-0.18485424689949637,0.1790610138900238,-0.19024635321911845,0.39219152906508803
1781551374156078592,0.6305067539215088,-0.5056228041648865,0.02187342569231987,-0.8286271691322327,-0.18407371640205383,-0.1747835874557495,-0.9672474265098572,0.03613974153995514,-0.03819859027862549,-0.0016856789588928223,-0.9751926352603926,-0.10354303359998457,0.07520061123799235,-0.1806183605948261,0.17568596585883248,-0.18805799017989466,0.3828862189227567
1781551374166112768,0.6405408382415771,-0.5144820809364319,-0.01879357546567917,-0.8111925721168518,-0.18263065814971924,-0.17135660350322723,-0.9681337475776672,0.03799259662628174,-0.040328577160835266,0.012964069843292236,-0.9761896844978285,-0.10136225968173042,0.07522510317919616,-0.1764104212254821,0.17220647165443922,-0.18645090658873306,0.3737077320535636
1781551374176146432,0.6505746841430664,-0.5217618346214294,-0.050243910402059555,-0.8034043908119202,-0.18159219622612,-0.16783717274665833,-0.9689452648162842,0.0268680602312088,-0.043115586042404175,0.02630305290222168,-0.9771408158924587,-0.0991794988693065,0.07543728731932445,-0.17224571677625392,0.16863530936075885,-0.1852631555524444,0.3646681937008333
1781551374186180608,0.6606087684631348,-0.5506209135055542,-0.07822588086128235,-0.79384845495224,-0.1808798611164093,-0.16408556699752808,-0.9697207808494568,0.012682229280471802,-0.045448124408721924,0.031091630458831787,-0.9780611900289785,-0.09691280273077532,0.07581236568169147,-0.16809746331847686,0.16483094492721498,-0.18440857570910882,0.35568599611381124
1781551374196215552,0.6706438064575195,-0.5449180603027344,-0.07127422839403152,-0.7833497524261475,-0.18033942580223083,-0.16015630960464478,-0.9704780578613281,-0.002460867166519165,-0.039871156215667725,0.038730621337890625,-0.9789535550220132,-0.09457470187253833,0.07626663317506141,-0.16397851714291461,0.16084899730186672,-0.18372968370489284,0.3467761323289641
1781551374206249472,0.6806776523590088,-0.5248127579689026,-0.06457637995481491,-0.7923291325569153,-0.17972834408283234,-0.15638214349746704,-0.9712066650390625,-0.01434817910194397,-0.03381867706775665,0.0424957275390625,-0.9798191642293466,-0.09230845676393151,0.07665392745712306,-0.15986820856035444,0.1570266533878821,-0.1829866412380795,0.33790810590861947
1781551374216283648,0.6907117366790771,-0.5335077047348022,-0.06481899321079254,-0.782191276550293,-0.17911651730537415,-0.15266239643096924,-0.9719112515449524,-0.012808531522750854,-0.01722896099090576,0.016588985919952393,-0.9806609890517063,-0.0900691479106237,0.07701899745010207,-0.1557551089499351,0.1532616880600531,-0.18224814905499537,0.32905386409371584
1781551374226317568,0.7007458209991455,-0.5179042816162109,-0.08134204149246216,-0.7755717039108276,-0.1786482334136963,-0.14894133806228638,-0.9725745916366577,-0.002916097640991211,0.003876030445098877,0.017160773277282715,-0.9814677899997054,-0.0878442466802042,0.07743452458179462,-0.15168467084773532,0.14949758130600568,-0.18166085524738032,0.3203129099058527
1781551374236351488,0.7107796669006348,-0.49828585982322693,-0.0955747738480568,-0.7774460315704346,-0.1783626526594162,-0.1454041600227356,-0.973162055015564,0.004153057932853699,0.004794418811798096,0.008623480796813965,-0.9822366774711383,-0.08572606959372357,0.07791029037605209,-0.14762118757142492,0.14592146203362347,-0.18126968248220135,0.3116340304922444
1781551374246385664,0.7208137512207031,-0.5137478709220886,-0.10086674243211746,-0.7721306085586548,-0.17818443477153778,-0.14189207553863525,-0.9737129807472229,0.007240220904350281,0.0009161233901977539,-0.0002097487449645996,-0.9829777767866171,-0.08362814480433702,0.07842097176817289,-0.143565842245211,0.14237256346768012,-0.18099225473206268,0.30299428666454725
1781551374256420608,0.7308487892150879,-0.5160152912139893,-0.1087329238653183,-0.7813577055931091,-0.1781093031167984,-0.13824883103370667,-0.9742506742477417,0.012200489640235901,0.008121877908706665,0.0037916898727416992,-0.983701340741209,-0.08146874188720829,0.07897795241698144,-0.1394882351056506,0.13869304779656882,-0.18081990302880796,0.2943141053811602
1781551374266454784,0.7408828735351562,-0.5052840709686279,-0.11974229663610458,-0.8052297234535217,-0.1781199425458908,-0.1346971094608307,-0.9747461080551147,0.018345162272453308,0.016319409012794495,0.006118178367614746,-0.9844078967771666,-0.07935286119188219,0.0795617421956074,-0.135329237485622,0.1351077769710984,-0.18074054794171404,0.2854943308594677
1781551374276488448,0.7509167194366455,-0.5333540439605713,-0.1456764191389084,-0.8238990306854248,-0.1783035546541214,-0.13111896812915802,-0.9752002954483032,0.025135859847068787,0.022461146116256714,0.002559363842010498,-0.9851020544799733,-0.07722364927375043,0.0802268754404685,-0.1310495029758456,0.13149760708103322,-0.1808403937367803,0.2764493030067713
1781551374286522624,0.7609508037567139,-0.5731619596481323,-0.179605633020401,-0.834723174571991,-0.1788049191236496,-0.1271810233592987,-0.9756299257278442,0.02760559320449829,0.0303945392370224,0.0024854540824890137,-0.9857853761452774,-0.07492301591937847,0.08106522440055058,-0.12665729285486077,0.12752640211791805,-0.18125970840558484,0.2671721390821942
1781551374296556800,0.7709848880767822,-0.5883510112762451,-0.19595451653003693,-0.8463510870933533,-0.1795792579650879,-0.12302831560373306,-0.9760201573371887,0.02410745620727539,0.034527331590652466,0.0004342198371887207,-0.9864488573667092,-0.07252085204292426,0.08204056370248533,-0.12218290170542817,0.123340806897143,-0.18195631229609793,0.25773397503858214
1781551374306590464,0.7810187339782715,-0.60151207447052,-0.2093733847141266,-0.8492448329925537,-0.18052351474761963,-0.11873824149370193,-0.9763772487640381,0.01842939853668213,0.038095541298389435,-0.010210275650024414,-0.987088325491955,-0.07005071597608745,0.0830920150623788,-0.11766619749576109,0.11901904067294707,-0.18282652637594,0.24821407599746714
1781551374316624640,0.7910528182983398,-0.5961934924125671,-0.22946134209632874,-0.8503401875495911,-0.18167100846767426,-0.11443015933036804,-0.976678729057312,0.01798999309539795,0.039280615746974945,-0.006521344184875488,-0.9876947312449171,-0.06757522292241967,0.08422716399288832,-0.11312991747267293,0.11468137188170366,-0.18390717362058223,0.23867140943763115
1781551374326659584,0.8010878562927246,-0.5975338220596313,-0.23380720615386963,-0.850633978843689,-0.18297913670539856,-0.11014223843812943,-0.9769275188446045,0.02205994725227356,0.030643947422504425,0.0015857219696044922,-0.9882682745912802,-0.06511005073040015,0.08542210880268607,-0.10857937266256798,0.11036615656151863,-0.18515534694918298,0.22911587276935919
1781551374336693504,0.8111217021942139,-0.5768360495567322,-0.22675596177577972,-0.8570023775100708,-0.18430116772651672,-0.10596923530101776,-0.9771405458450317,0.030080586671829224,0.02662353217601776,0.014188885688781738,-0.9888124483431608,-0.06269395199858574,0.08659796459188401,-0.10402025295005998,0.10616857482920791,-0.1864227026326305,0.21955744054179924
1781551374346727680,0.8211557865142822,-0.5702396631240845,-0.22890140116214752,-0.8647782802581787,-0.18560293316841125,-0.10197705030441284,-0.9773188829421997,0.038859158754348755,0.022173576056957245,0.018487095832824707,-0.9893306335029536,-0.06035531142223575,0.08773702860521271,-0.09942022178766874,0.1021546281960965,-0.18767538180194376,0.2099348227512538
1781551374356761600,0.8311898708343506,-0.576938807964325,-0.23566903173923492,-0.8659775257110596,-0.18700608611106873,-0.09798979759216309,-0.9774593114852905,0.04647265374660492,0.019132383167743683,0.021740376949310303,-0.9898201720752091,-0.05801337761306388,0.08890887834120534,-0.09479269171035777,0.09814729687287803,-0.18903423853429221,0.20026455530878867
1781551374366795520,0.8412237167358398,-0.6029927730560303,-0.2444787621498108,-0.8510070443153381,-0.18851244449615479,-0.09384948015213013,-0.9775762557983398,0.051213860511779785,0.011741936206817627,0.028418540954589844,-0.9902797343833669,-0.05559285998914262,0.0901182911353469,-0.09018972620789215,0.0939877928761623,-0.1904982466325506,0.1906348504093975
1781551374376829696,0.8512578010559082,-0.6145567893981934,-0.2504519820213318,-0.8275560736656189,-0.19013814628124237,-0.08946800231933594,-0.9776722192764282,0.05113056302070618,-0.0055789947509765625,0.03496897220611572,-0.9907051744949369,-0.053055161743517626,0.09137307987360238,-0.08567099328116076,0.08958779163100546,-0.1920827202569436,0.18115678156437665
1781551374386864640,0.861292839050293,-0.6141141653060913,-0.24237261712551117,-0.8012629747390747,-0.191855326294899,-0.08501416444778442,-0.9777342081069946,0.03938952088356018,-0.038292109966278076,0.03274214267730713,-0.9910914037270617,-0.050486602372266126,0.0926499506758521,-0.08127100125932306,0.08511690656171604,-0.1937625830183743,0.17191400840036133
1781551374396898560,0.8713266849517822,-0.6106166243553162,-0.24733993411064148,-0.7508474588394165,-0.19352251291275024,-0.08049917221069336,-0.9777877926826477,0.024912893772125244,-0.06833505630493164,0.019474804401397705,-0.9914419435032205,-0.047892513219351035,0.09387450936029595,-0.0770502958486173,0.0805863705211988,-0.19539354353191007,0.1630213961688448
1781551374406932480,0.8813607692718506,-0.6407130360603333,-0.16294236481189728,-0.726010799407959,-0.19485504925251007,-0.0758058950304985,-0.9778982400894165,0.019226402044296265,-0.0821988582611084,0.03031224012374878,-0.9917746593008478,-0.04520512845415237,0.09490717897359487,-0.07302244050774072,0.07587868599418712,-0.1966829789760198,0.15448062698805418
1781551374416966656,0.891394853591919,-0.6136236190795898,-0.14227651059627533,-0.697619616985321,-0.19580970704555511,-0.07102952152490616,-0.9780661463737488,0.028909072279930115,-0.07885756343603134,0.04000157117843628,-0.9920951759062868,-0.04246892664564263,0.09572523697184948,-0.06914016054872392,0.07108938026824503,-0.19758871291811841,0.1462062408958473
1781551374427000576,0.9014286994934082,-0.5586026906967163,-0.14511077105998993,-0.6585047245025635,-0.19674310088157654,-0.0666298195719719,-0.9781884551048279,0.051525190472602844,-0.0713096335530281,0.04943174123764038,-0.9923764840117445,-0.039934541169254614,0.09649358314920252,-0.06544671492068149,0.06667922269673408,-0.19848191423272876,0.13834981060883805
1781551374437034496,0.9114627838134766,-0.5094410181045532,-0.14281167089939117,-0.6329866051673889,-0.19772714376449585,-0.06265886127948761,-0.9782524704933167,0.07501596212387085,-0.06836836040019989,0.06258779764175415,-0.9926170976876586,-0.03763178484700512,0.09725032283027014,-0.061948608147157504,0.06269993560835467,-0.19943589374989037,0.1309322286085764
1781551374447068672,0.9214968681335449,-0.4728103280067444,-0.12974952161312103,-0.6213719844818115,-0.19866913557052612,-0.05912315472960472,-0.9782816767692566,0.07897919416427612,-0.07379616051912308,0.07619732618331909,-0.9928302435396361,-0.035552367607238566,0.09795506294038579,-0.05855632320698845,0.05915765385572768,-0.20035503064711194,0.12376976670686497
1781551374457103616,0.9315316677093506,-0.43968671560287476,-0.09813487529754639,-0.5997340679168701,-0.19944427907466888,-0.055863477289676666,-0.978315532207489,0.07049225270748138,-0.08430376648902893,0.06742686033248901,-0.9930276893508228,-0.03361214261497802,0.09855184120559037,-0.055260768497228836,0.05589257233092839,-0.20110911609101664,0.11682358727124427
1781551374467137536,0.941565752029419,-0.40205466747283936,-0.05180918052792549,-0.5673495531082153,-0.19984972476959229,-0.052911169826984406,-0.9783968925476074,0.056340813636779785,-0.0868135616183281,0.05676603317260742,-0.9932173811525545,-0.03182910972626401,0.09893663684015425,-0.0521307337142751,0.05293589051079698,-0.20149066685139683,0.11022961629226917
1781551374477172736,0.9516007900238037,-0.3310374617576599,-0.004687743727117777,-0.5383498072624207,-0.19982430338859558,-0.05041741579771042,-0.9785337448120117,0.044093117117881775,-0.08463812619447708,0.043139517307281494,-0.9934016451713376,-0.03028240507209733,0.09907620313578848,-0.04919326940561977,0.05043880127401818,-0.20143830679734667,0.1040576671089052
1781551374487206400,0.961634635925293,-0.27836787700653076,0.04394743591547012,-0.5087056756019592,-0.19934865832328796,-0.048488471657037735,-0.9787282347679138,0.037941187620162964,-0.08354581892490387,0.027754783630371094,-0.9935836259967622,-0.02902530425386079,0.0989616443276451,-0.046430423084422856,0.04850749265850372,-0.20093276324402598,0.09828337405456693
1781551374497240576,0.9716687202453613,-0.22741173207759857,0.08437421917915344,-0.4652039706707001,-0.1984548270702362,-0.04697243869304657,-0.9789838194847107,0.041243523359298706,-0.07746298611164093,0.022349298000335693,-0.9937638584716941,-0.027987828058253405,0.09861431425153143,-0.04387874497803315,0.04698972989383008,-0.20000489019431508,0.09296654983115157
1781551374507274752,0.9817028045654297,-0.18533484637737274,0.11948147416114807,-0.41895684599876404,-0.1972399652004242,-0.04584448039531708,-0.9792827367782593,0.056294530630111694,-0.07215173542499542,0.025761008262634277,-0.9939376532305668,-0.0271657909112262,0.09808492052539654,-0.04158500555874277,0.045860554892466744,-0.19875354623539146,0.08820184828875259
1781551374517308416,0.991736650466919,-0.1707039773464203,0.14841113984584808,-0.38345080614089966,-0.19571734964847565,-0.044888224452733994,-0.9796324372291565,0.07384543120861053,-0.07763984799385071,0.03305351734161377,-0.9941097295519986,-0.02644886499612344,0.09738699088094503,-0.039522334067755405,0.044903313975978666,-0.19719027376100387,0.08391355342242077
1781551374527343616,1.0017716884613037,-0.1745131015777588,0.16698747873306274,-0.36620762944221497,-0.1939646154642105,-0.043945346027612686,-0.9800237417221069,0.09096778929233551,-0.09309384226799011,0.032483458518981934,-0.9942828671932351,-0.025750415346672995,0.09656627093262504,-0.03759619645281903,0.04395950141806723,-0.19539310632599075,0.07989783513650726
1781551374537377536,1.011805772781372,-0.22503645718097687,0.16327397525310516,-0.34139204025268555,-0.1921740472316742,-0.04271780699491501,-0.9804306626319885,0.10141479969024658,-0.1031867265701294,0.0165635347366333,-0.994453267099133,-0.024919350684651086,0.09572713760230155,-0.03574979861637891,0.04273081029020701,-0.19355593212338953,0.07601643595999447
1781551374547411456,1.0218396186828613,-0.2647543251514435,0.15075498819351196,-0.31066927313804626,-0.19048269093036652,-0.04090980440378189,-0.9808377623558044,0.11391410231590271,-0.09336753189563751,0.008334159851074219,-0.9946159451157559,-0.023813996618368295,0.09494212786305416,-0.03402998305498099,0.04092122329481525,-0.1918163904601535,0.0723390111531021
1781551374557445632,1.0318737030029297,-0.27915963530540466,0.1408376395702362,-0.2934756278991699,-0.18890437483787537,-0.038825202733278275,-0.981227695941925,0.11927852034568787,-0.08196337521076202,-0.00030916929244995117,-0.9947677378213148,-0.022584929150340362,0.09421298502646439,-0.03241759523046875,0.03883496171409412,-0.19019146656013863,0.06885782035172942
1781551374567479552,1.041907787322998,-0.30344098806381226,0.132783442735672,-0.27771636843681335,-0.1874403953552246,-0.03650404512882233,-0.9815974235534668,0.1156325489282608,-0.07335923612117767,-0.017593860626220703,-0.9949099735082587,-0.021247479771822987,0.09354047835396476,-0.03086692269376764,0.036512157726975705,-0.18868297764730182,0.06548502465921355
1781551374577513472,1.0519416332244873,-0.3339725434780121,0.12035765498876572,-0.2599688172340393,-0.1860906034708023,-0.033875029534101486,-0.9819484353065491,0.1124822199344635,-0.06996102631092072,-0.013138175010681152,-0.9950430370685702,-0.019766397960376134,0.09292503133298323,-0.02938821991677658,0.03388151285104025,-0.1872905077446431,0.06223453433550467
1781551374587548416,1.061976671218872,-0.34144484996795654,0.12047829478979111,-0.23785975575447083,-0.18482422828674316,-0.03101242706179619,-0.9822821617126465,0.10483765602111816,-0.07137404382228851,-0.008196353912353516,-0.9951669050009021,-0.018180004862374977,0.09234938038363287,-0.02800155254118295,0.03101739958228446,-0.18598351166086668,0.05915318836734183
1781551374597582592,1.0720107555389404,-0.34091541171073914,0.13147369027137756,-0.213375985622406,-0.18351027369499207,-0.028062211349606514,-0.9826171398162842,0.10036516189575195,-0.06786979734897614,-0.006945788860321045,-0.9952858768456075,-0.01656160639876715,0.0917449279456398,-0.026730933832310257,0.028065895109682708,-0.18462973645226907,0.056300627833386706
1781551374607616512,1.0820446014404297,-0.32663819193840027,0.13728497922420502,-0.18828554451465607,-0.18211516737937927,-0.02514559216797352,-0.9829556345939636,0.10148772597312927,-0.05900663137435913,-0.005447685718536377,-0.9954008858756169,-0.014972602066376487,0.09109340554822284,-0.025588522484505598,0.025148242093086384,-0.18319574775434583,0.05371228523111587
1781551374617650432,1.092078685760498,-0.30863550305366516,0.13190193474292755,-0.17456574738025665,-0.1807110607624054,-0.022379696369171143,-0.9832815527915955,0.11186341941356659,-0.05409735441207886,0.0016379356384277344,-0.9955089137181388,-0.013470379776725454,0.09043096967444714,-0.024549496550321,0.02238156529110399,-0.18175539077228817,0.051350183728815356
1781551374627684608,1.1021127700805664,-0.3062109649181366,0.11451122164726257,-0.16219057142734528,-0.1794360727071762,-0.019679410383105278,-0.983572781085968,0.12084232270717621,-0.05899490788578987,0.004309475421905518,-0.9956056819926369,-0.01200988325518065,0.08982968435894716,-0.02357130490157654,0.019680680718471878,-0.1804485128128234,0.049122400465432585
1781551374637718528,1.1121466159820557,-0.31162595748901367,0.10724105685949326,-0.1500244438648224,-0.17829927802085876,-0.016922535374760628,-0.9838307499885559,0.12274204194545746,-0.06266731023788452,0.004536986351013184,-0.9956916264149387,-0.010530291708590002,0.08929571786776189,-0.022662401318581677,0.01692334356198237,-0.17928371587007624,0.047034218752375984
1781551374647753472,1.1221816539764404,-0.3285152018070221,0.09712543338537216,-0.13961175084114075,-0.17725645005702972,-0.014063113369047642,-0.9840642213821411,0.11899839341640472,-0.06415344029664993,-0.0017451047897338867,-0.9957695084433312,-0.009005746873675979,0.08880758991407789,-0.021800966987909173,0.014063577190796353,-0.17821586428630246,0.04503670905863328
1781551374657787648,1.1322157382965088,-0.3563880920410156,0.07830647379159927,-0.14084452390670776,-0.17634953558444977,-0.010949862189590931,-0.9842666983604431,0.11351384222507477,-0.06390975415706635,-0.008363306522369385,-0.9958385453389261,-0.0073575867537937,0.08838842523093221,-0.02095339424183943,0.010950080765240204,-0.17728736301437048,0.04304892155846097
1781551374667821312,1.142249584197998,-0.3790486752986908,0.0558224692940712,-0.13809429109096527,-0.17566519975662231,-0.007553703151643276,-0.9844210147857666,0.10416251420974731,-0.06372009962797165,0.0029146671295166016,-0.9958950236660845,-0.005569481638176284,0.08808227226502909,-0.02009221027771139,0.007553774859126499,-0.17658652507610692,0.041013276446572454
1781551374677855488,1.1522836685180664,-0.38518619537353516,0.061047326773405075,-0.13415493071079254,-0.17508605122566223,-0.004025596659630537,-0.9845449328422546,0.09035399556159973,-0.06412015110254288,0.012666881084442139,-0.9959428517505241,-0.003718156923841817,0.08782779712346848,-0.01924531271967277,0.00402560765056506,-0.17599460584348844,0.03899777829483451
1781551374687889664,1.1623177528381348,-0.38290467858314514,0.07715252786874771,-0.12210439890623093,-0.17434397339820862,-0.0004501486837398261,-0.9846847057342529,0.07084360718727112,-0.061347946524620056,0.01659083366394043,-0.9959933363444436,-0.0018448367455721185,0.08748852277236004,-0.018429511843351818,0.00045014869248783047,-0.1752395134754594,0.03704262060400564
1781551374697923328,1.172351598739624,-0.3578680157661438,0.10114307701587677,-0.12164580076932907,-0.17342430353164673,0.0029954849742352962,-0.9848426580429077,0.05841881036758423,-0.045369140803813934,0.019434332847595215,-0.9960469461268879,-3.972022672537759e-05,0.08705558736775333,-0.017658897377072758,-0.0029954894255282433,-0.17430639518085034,0.03519251915247586
1781551374707958528,1.1823866367340088,-0.2890506088733673,0.08631713688373566,-0.09714152663946152,-0.17244966328144073,0.006033751182258129,-0.9849998354911804,0.054133012890815735,-0.025091977789998055,0.008284807205200195,-0.9960985479809802,0.001554213712492012,0.08658901558080097,-0.016962030701530694,-0.006033787737468467,-0.17331923554125941,0.0335294449422751
1781551374717992448,1.1924207210540771,-0.2912335991859436,0.1264118254184723,-0.11075986176729202,-0.17133736610412598,0.008690658025443554,-0.9851740598678589,0.05320383608341217,-0.008675400167703629,-0.003778517246246338,-0.9961529949156588,0.00295276433751984,0.08604788660445767,-0.016315610702671367,-0.008690767116492025,-0.17219351819019005,0.032004202290965296
1781551374728026368,1.2024545669555664,-0.2930064797401428,0.12395704537630081,-0.11249970644712448,-0.17013835906982422,0.011383035220205784,-0.9853544235229492,0.04773235321044922,0.002212545834481716,-0.007000923156738281,-0.9962092579108585,0.004372319099621283,0.08546148166162364,-0.015630113097927386,-0.011383280616515903,-0.17098126026290533,0.03040104902842065
1781551374738060544,1.2124886512756348,-0.29492926597595215,0.14171794056892395,-0.11276522278785706,-0.16881804168224335,0.014073600992560387,-0.9855467677116394,0.03884367644786835,0.0013530347496271133,-0.004275619983673096,-0.9962681510073705,0.005791321790287676,0.08481205107649324,-0.01493999072545775,-0.014074066042448912,-0.1696473447975105,0.02879295554246738
1781551374748094464,1.2225227355957031,-0.2958427369594574,0.13914306461811066,-0.11561587452888489,-0.16741357743740082,0.016773007810115814,-0.985744059085846,0.032007068395614624,-0.009631892666220665,-0.006245076656341553,-0.996327878679246,0.007214856787483718,0.08411844641917653,-0.014243493936742391,-0.0167737936476358,-0.1682295246951163,0.027175742486392096
1781551374758128384,1.2325565814971924,-0.31501883268356323,0.13746526837348938,-0.11815279722213745,-0.1660427451133728,0.019572127610445023,-0.9859243035316467,0.029186666011810303,-0.015604842454195023,-0.009437024593353271,-0.9963830348319572,0.008688798744878774,0.08344070488009594,-0.013526872869699082,-0.019573376730946262,-0.1668475968002015,0.0255135488317689
1781551374768162560,1.2425906658172607,-0.3264256715774536,0.14672747254371643,-0.12491695582866669,-0.16465187072753906,0.02254662476480007,-0.9860939979553223,0.02933695912361145,-0.014398433268070221,-0.006535947322845459,-0.9964354985549683,0.010252039954582827,0.08275195938583876,-0.012782975731729448,-0.022548536365079683,-0.1654475061539423,0.023786357856877872
1781551374778197504,1.2526257038116455,-0.3406831920146942,0.14380359649658203,-0.13833476603031158,-0.16321592032909393,0.02562885917723179,-0.9862574338912964,0.031227394938468933,-0.01401691883802414,-0.009790539741516113,-0.9964864001903259,0.011872810955076729,0.08203851891817382,-0.01198625544988714,-0.025631665085825567,-0.16400376498337474,0.021949196937580732
1781551374788231680,1.2626597881317139,-0.3693728744983673,0.1230398565530777,-0.1490159034729004,-0.16192100942134857,0.02888866700232029,-0.9863807559013367,0.037973880767822266,-0.013614621013402939,-0.0032126903533935547,-0.9965274696778691,0.013587079218516417,0.08139412676089094,-0.011111809137439714,-0.028892687058067586,-0.1627055575257595,0.019944274865532557
1781551374798265344,1.2726936340332031,-0.3743665814399719,0.0935613289475441,-0.15313582122325897,-0.1608801931142807,0.03230169042944908,-0.9864451885223389,0.0391150563955307,-0.01599004492163658,0.006098508834838867,-0.9965534126907354,0.015379193309618963,0.08087566101968154,-0.010196616702785136,-0.03230731128555902,-0.1616675115391267,0.017845600660567392
1781551374808299520,1.2827277183532715,-0.41221967339515686,0.10425898432731628,-0.14657245576381683,-0.1599733978509903,0.03592957556247711,-0.9864672422409058,0.0328524112701416,-0.020319830626249313,0.013231158256530762,-0.9965678794290062,0.017277569096335477,0.08042309610830196,-0.009282366818918144,-0.035937309097126315,-0.16076840783315563,0.01573279291819308
1781551374818333696,1.2927618026733398,-0.4547889828681946,0.12144835293292999,-0.11661242693662643,-0.15890291333198547,0.04003513231873512,-0.9864821434020996,0.021528035402297974,-0.020503882318735123,0.01527547836303711,-0.9965791126320153,0.01940949739131959,0.07988861392390127,-0.008442586905219377,-0.040045835023847426,-0.15970849075349955,0.013737661454640275
1781551374828367360,1.302795648574829,-0.4211207628250122,0.11940770596265793,-0.11875680834054947,-0.15771502256393433,0.04419655725359917,-0.9864951372146606,0.020294368267059326,-0.017737817019224167,0.0009452104568481445,-0.9965886007846669,0.02156435548674602,0.0792932236708896,-0.007661278720025958,-0.04421095781065272,-0.15853250639818894,0.011862340711626992
1781551374838402560,1.3128306865692139,-0.3996833860874176,0.11997070163488388,-0.12108520418405533,-0.1565726399421692,0.04804924875497818,-0.9864969849586487,0.02566748857498169,-0.01187065988779068,-0.01594442129135132,-0.9965947867079541,0.02356334118011779,0.07871646918484167,-0.006879394476641044,-0.048067757270048375,-0.15740285335097054,0.010014024998691555
1781551374848436480,1.3228647708892822,-0.35158616304397583,0.11461108922958374,-0.12331986427307129,-0.15542350709438324,0.0515926331281662,-0.9864997267723083,0.03371940553188324,-0.0005367249250411987,-0.01887136697769165,-0.9966004796765318,0.02540580548266805,0.07813242894303558,-0.006103456952116119,-0.051615547361787625,-0.15626597489860353,0.008206402835084331
1781551374858470400,1.3328986167907715,-0.29916104674339294,0.08875738829374313,-0.11846891790628433,-0.15445077419281006,0.054594140499830246,-0.9864909648895264,0.04397714138031006,0.0002306923270225525,-0.030873537063598633,-0.9966026223095585,0.02697258052490916,0.07763371140826336,-0.00536010673564253,-0.05462129518124576,-0.1553050210919698,0.006505577849600268
1781551374868504576,1.3429327011108398,-0.2855096757411957,0.04336913302540779,-0.1115657389163971,-0.15382522344589233,0.057277265936136246,-0.9864365458488464,0.05308671295642853,-0.0012775100767612457,-0.02625870704650879,-0.996592473461548,0.028374600491470288,0.07730843972443978,-0.004665979032422723,-0.0573086301304453,-0.15469442076845885,0.004921065680740836
1781551374878538496,1.3529667854309082,-0.29774901270866394,0.01282400544732809,-0.11371224373579025,-0.1536121815443039,0.05994798615574837,-0.9863110780715942,0.054933592677116394,-0.010982528328895569,-0.008806109428405762,-0.9965639269944543,0.02976839499012623,0.07719005465578997,-0.003988647197339522,-0.05998394966002775,-0.154502905956174,0.003360285534339458
1781551374888572416,1.3630006313323975,-0.3283122479915619,0.0117717906832695,-0.114077627658844,-0.15359307825565338,0.06284096837043762,-0.9861339330673218,0.03947259485721588,-0.029317408800125122,-0.008693337440490723,-0.9965219771427836,0.031275047365375064,0.07716795932430016,-0.0032942687730308858,-0.06288240143729244,-0.15451130831365684,0.001742203548462693
1781551374898607616,1.3730356693267822,-0.37178197503089905,0.016081051900982857,-0.1076306477189064,-0.15351420640945435,0.06610757112503052,-0.9859326481819153,0.020533844828605652,-0.04707986116409302,-0.0006548762321472168,-0.9964735321124318,0.0329693016976066,0.07711486968777692,-0.0026032372374229554,-0.0661558152370758,-0.15446424760625158,0.00010349359380638574
1781551374908641536,1.3830697536468506,-0.42157748341560364,0.02128113992512226,-0.10884558409452438,-0.1533941626548767,0.06988092511892319,-0.9856910705566406,0.011823117733001709,-0.053584545850753784,-0.009181976318359375,-0.9964144483263407,0.03491827062197285,0.07704011823658327,-0.0019132206315764543,-0.0699379289892206,-0.15438260545105706,-0.0015713360627109874
1781551374918675456,1.3931035995483398,-0.4159632921218872,0.015336165204644203,-0.11702681332826614,-0.15325647592544556,0.07387261837720871,-0.985421359539032,0.015423819422721863,-0.04167657345533371,-0.012839138507843018,-0.9963479273514362,0.036980135791662976,0.07695311320790403,-0.0011855071257647178,-0.07393997493003013,-0.15428776283714543,-0.0033382453379390753
1781551374928709632,1.4031376838684082,-0.4060254395008087,-0.029423847794532776,-0.13649186491966248,-0.15337835252285004,0.07770860195159912,-0.9851073026657104,0.02804267406463623,-0.024562247097492218,-0.018768370151519775,-0.9962698292624291,0.03896932928191193,0.07699172522302845,-0.0003939805788967267,-0.07778702271007568,-0.15445697815185383,-0.005231452958951804
1781551374938743552,1.4131717681884766,-0.37345418334007263,-0.06649904698133469,-0.15517553687095642,-0.15397731959819794,0.08131350576877594,-0.9847228527069092,0.03799526393413544,-0.02047671377658844,-0.02554631233215332,-0.9961732454658683,0.0408500536159972,0.0772647806132142,0.0004785889560727618,-0.08140337843605341,-0.1551101157189413,-0.007290261412899388
1781551374948777472,1.4232056140899658,-0.34693387150764465,-0.09659596532583237,-0.1423228532075882,-0.15486861765384674,0.08460703492164612,-0.9843055009841919,0.02806808054447174,-0.028668314218521118,-0.048546671867370605,-0.9960676787411743,0.0425763478376874,0.0776820108389773,0.0013568891438392595,-0.08470830385282013,-0.15605859753976686,-0.009351606439036991
1781551374958812416,1.4332406520843506,-0.30843043327331543,-0.13712500035762787,-0.11796105653047562,-0.1561305969953537,0.08764784038066864,-0.9838399887084961,0.011416241526603699,-0.03450148552656174,-0.0785531997680664,-0.995949585593449,0.04416784527202873,0.07828930108097606,0.0021078910177451823,-0.08776045405429607,-0.1573826882621348,-0.011157616293870833
1781551374968846592,1.443274736404419,-0.27141594886779785,-0.15749379992485046,-0.11506806313991547,-0.15768317878246307,0.09028671681880951,-0.9833536148071289,-0.0023204833269119263,-0.04000900685787201,-0.0862112045288086,-0.9958259563312479,0.04555165399397339,0.07904581168352227,0.0027599239585392524,-0.09040983501642373,-0.15899891478763845,-0.012750562496108274
1781551374978880512,1.4533085823059082,-0.25467878580093384,-0.17570476233959198,-0.09800118952989578,-0.15943074226379395,0.09273030608892441,-0.9828442931175232,-0.014839887619018555,-0.03705097734928131,-0.0992479920387268,-0.9956962604308444,0.0468349808624045,0.07990200758985441,0.0033573840083559753,-0.09286372064346718,-0.16081289277988173,-0.014232088100815594
1781551374988914432,1.4633426666259766,-0.2142389416694641,-0.19280199706554413,-0.08757279068231583,-0.161300390958786,0.09487152844667435,-0.9823347330093384,-0.01635769009590149,-0.03270722180604935,-0.09702622890472412,-0.9955663873562072,0.04796083925205321,0.08082313338957858,0.003865673600725362,-0.09501442364440257,-0.16274873716804925,-0.015520384614626381
1781551374998948608,1.473376750946045,-0.20357617735862732,-0.24132610857486725,-0.09175021946430206,-0.1634901612997055,0.0967913493514061,-0.9817852973937988,-0.0038071870803833008,-0.031590551137924194,-0.1102403998374939,-0.9954264593415175,0.048974869202111644,0.0819072960150925,0.004336684517789253,-0.09694312249577,-0.16500920810088032,-0.016735856786083296
1781551375008982528,1.4834105968475342,-0.17591844499111176,-0.2799336910247803,-0.08670806139707565,-0.16611488163471222,0.0984916016459465,-0.981175422668457,0.012901395559310913,-0.0282096266746521,-0.1131543517112732,-0.9952711481200756,0.04988119467723831,0.08321144525111429,0.004801179856330037,-0.09865153858465425,-0.16771159892683177,-0.01794654104094221
1781551375019017472,1.493445634841919,-0.1412222534418106,-0.33897915482521057,-0.08241983503103256,-0.16923069953918457,0.09989970922470093,-0.9805004000663757,0.03251194953918457,-0.021179616451263428,-0.11953622102737427,-0.9950995226929653,0.05063985212095915,0.08476679033800755,0.005212385927847384,-0.10006662733336102,-0.17091239881070971,-0.019055312321561307
1781551375029051648,1.5034797191619873,-0.11393257975578308,-0.4044829308986664,-0.08438551425933838,-0.17296342551708221,0.10101249814033508,-0.9797347187995911,0.052007004618644714,-0.015715867280960083,-0.13223427534103394,-0.9949051734164537,0.05125098779434349,0.08663702059368747,0.005582171714593136,-0.10118507451568594,-0.17474055804673388,-0.02009204132491575
1781551375039085568,1.5135138034820557,-0.08799152076244354,-0.47896382212638855,-0.09139442443847656,-0.1773512214422226,0.10182556509971619,-0.9788657426834106,0.0695936530828476,-0.012805789709091187,-0.12658774852752686,-0.9946846426085325,0.05171658049279131,0.0888399338807751,0.005953464293710827,-0.10200235427303603,-0.17923599660837317,-0.021144102806726336
1781551375049119488,1.523547649383545,-0.07526880502700806,-0.5473392009735107,-0.09529408812522888,-0.18249905109405518,0.10243614763021469,-0.9778552651405334,0.07802213728427887,-0.008884511888027191,-0.12527883052825928,-0.9944283582009613,0.052086173582012965,0.09142971884006044,0.006320654314737395,-0.10261614264511774,-0.18450926030594283,-0.02221399639675118
1781551375059153664,1.5335817337036133,-0.06491737067699432,-0.5642254948616028,-0.10085530579090118,-0.18804730474948883,0.10292588919401169,-0.976751983165741,0.07501019537448883,-0.0013328716158866882,-0.11666232347488403,-0.9941485564444867,0.05239960998155386,0.09422462235809961,0.006686698921716659,-0.10310849004844702,-0.19019598729693432,-0.023295629315858015
1781551375069187328,1.5436155796051025,-0.052763499319553375,-0.5650210976600647,-0.10898007452487946,-0.19367140531539917,0.10329972952604294,-0.9756129384040833,0.06439895927906036,0.005648016929626465,-0.10681504011154175,-0.9938592006759359,0.052661356077907805,0.09705837021187867,0.007089633199726277,-0.10348433356874458,-0.195964912739269,-0.024447856830127804
1781551375079222528,1.5536506175994873,-0.04868912696838379,-0.5719833970069885,-0.11538843810558319,-0.19931715726852417,0.10355377942323685,-0.9744482040405273,0.06558914482593536,0.002586357295513153,-0.09856510162353516,-0.9935631250518374,0.05286774562998098,0.09990447307975274,0.007512713976056955,-0.1037397509886014,-0.20176058350654513,-0.025632756844715714
1781551375089256448,1.5636847019195557,-0.057642675936222076,-0.5895674228668213,-0.12762832641601562,-0.2050933539867401,0.103810615837574,-0.973221480846405,0.08244320750236511,-2.0332634449005127e-05,-0.08657771348953247,-0.9932506728303189,0.0530853449479943,0.10281634150014526,0.007992389476346225,-0.1039979777277606,-0.20769754801380202,-0.026941780164793573
1781551375099290624,1.573718786239624,-0.06704257428646088,-0.6279249787330627,-0.13707242906093597,-0.21115325391292572,0.10411663353443146,-0.9718919992446899,0.10333465039730072,-0.0040952712297439575,-0.07080209255218506,-0.9929115129220052,0.05333888764168555,0.10587243069606607,0.008524214536529257,-0.10430566499926258,-0.2139353037401194,-0.028379847416753624
1781551375109324544,1.5837526321411133,-0.10080373287200928,-0.6470205187797546,-0.15405860543251038,-0.2175108939409256,0.10459204018115997,-0.9704378247261047,0.1211821585893631,-0.012505248188972473,-0.061056315898895264,-0.992540095910053,0.05369111773925913,0.10907962538078407,0.009117796185500612,-0.1047836849966693,-0.22049275338934377,-0.029981680727223695
1781551375119358464,1.5937867164611816,-0.12270157039165497,-0.6735501289367676,-0.15051579475402832,-0.22405396401882172,0.10533048212528229,-0.9688680768013,0.1279693841934204,-0.025328651070594788,-0.04735201597213745,-0.9921383583626653,0.05418949107801943,0.11238092339016681,0.009772390702525783,-0.10552622873397965,-0.22725842899961168,-0.031752795368273905
1781551375129392640,1.60382080078125,-0.1751629114151001,-0.6996129751205444,-0.14335615932941437,-0.23088718950748444,0.10643161833286285,-0.96714186668396,0.13310886919498444,-0.035493507981300354,-0.03215622901916504,-0.9916971065258123,0.05487435121871821,0.11583550908424727,0.010384768290793163,-0.10663358943874239,-0.23434518431626697,-0.03350643543539642
1781551375139426560,1.6138546466827393,-0.22411100566387177,-0.6944965124130249,-0.1445002555847168,-0.2377457171678543,0.10798808187246323,-0.9653059244155884,0.134153813123703,-0.039567671716213226,-0.013682663440704346,-0.9912272030291467,0.0557994266202704,0.11930404852804251,0.011029548239545876,-0.10819907122452643,-0.24148437232735703,-0.03539409575194597
1781551375149461504,1.623889684677124,-0.2657362222671509,-0.6915262937545776,-0.14221926033496857,-0.2446116805076599,0.11003460735082626,-0.9633573889732361,0.1288127452135086,-0.04422345757484436,-0.00827646255493164,-0.9907280792281692,0.05698012507742725,0.12277849399359554,0.011683702319653195,-0.11025786632847942,-0.24866072482730434,-0.037378231803090134
1781551375159495680,1.6339237689971924,-0.29500916600227356,-0.6753113865852356,-0.14358945190906525,-0.25130805373191833,0.11235914379358292,-0.9613634347915649,0.12704047560691833,-0.04807385802268982,0.006361603736877441,-0.9902164750446129,0.058311354756530744,0.12616678161880338,0.01237484161745467,-0.11259690813528771,-0.255686393488511,-0.0394816587770243
1781551375169529344,1.6439576148986816,-0.34495994448661804,-0.6670477390289307,-0.1570378839969635,-0.2579353451728821,0.11504075676202774,-0.9592887759208679,0.12011793255805969,-0.05405137687921524,0.02183455228805542,-0.9896830072415462,0.05983609453922446,0.12951928388343648,0.013113016746334851,-0.11529602685284264,-0.2626693530643019,-0.04174450969336173
1781551375179563520,1.65399169921875,-0.39237114787101746,-0.6583881974220276,-0.15119144320487976,-0.26448696851730347,0.11816637217998505,-0.9571224451065063,0.11478298902511597,-0.060366079211235046,0.03417932987213135,-0.9891244733110859,0.06160320636625002,0.1328300758776794,0.013927974531374275,-0.1184431112932804,-0.26960745591863217,-0.044242822829092227
1781551375189597696,1.6640257835388184,-0.44264283776283264,-0.6341413259506226,-0.14665767550468445,-0.270833820104599,0.121751569211483,-0.9548956155776978,0.09822642803192139,-0.070298932492733,0.050049424171447754,-0.9885496302613042,0.06361003126878272,0.13603664323955172,0.014745205774653708,-0.122054389823159,-0.2763685134349121,-0.046824654506032036
1781551375199632384,1.674060583114624,-0.46822860836982727,-0.6108232140541077,-0.15473291277885437,-0.2769569754600525,0.12570267915725708,-0.9526246190071106,0.08005756139755249,-0.07981951534748077,0.0679505467414856,-0.987961761039706,0.06581595722585645,0.13912567089559416,0.015613983713974185,-0.12603610383710218,-0.28293107614834767,-0.049578825123423
1781551375209666560,1.6840946674346924,-0.472842812538147,-0.5837987661361694,-0.13988925516605377,-0.28283998370170593,0.12977953255176544,-0.9503467082977295,0.05913087725639343,-0.08752794563770294,0.07551455497741699,-0.9873710398580627,0.06809262789720685,0.1420916952134385,0.016488831336626566,-0.13014662161668927,-0.28926975782270636,-0.05237870065986658
1781551375219700480,1.6941287517547607,-0.4742918312549591,-0.5278002023696899,-0.11204350739717484,-0.2883102297782898,0.13391748070716858,-0.9481261968612671,0.036280810832977295,-0.09020105004310608,0.10057675838470459,-0.9867955285612457,0.07038721796139111,0.14485349001003175,0.01725227390671463,-0.13432102190027123,-0.29519957213938586,-0.05496310274140666
1781551375229734400,1.70416259765625,-0.4863138794898987,-0.45006346702575684,-0.1079009622335434,-0.2930918037891388,0.13815747201442719,-0.9460495114326477,0.019425421953201294,-0.08391247689723969,0.1103866696357727,-0.9862563779058616,0.07272528534815201,0.14726259049258966,0.01797497198341723,-0.1386008028919587,-0.3004286586771859,-0.05745759842954301
1781551375239768576,1.7141966819763184,-0.47792544960975647,-0.3698919415473938,-0.1046266034245491,-0.29710784554481506,0.1424098163843155,-0.9441643953323364,0.0047189295291900635,-0.0735774040222168,0.10377132892608643,-0.9857648509022081,0.0750654131368121,0.14927490504099986,0.018703351802258267,-0.14289561452004212,-0.3048679623582986,-0.05993131594188763
1781551375249802496,1.7242307662963867,-0.47250327467918396,-0.32094210386276245,-0.0928538367152214,-0.30047664046287537,0.1465875506401062,-0.942457377910614,0.004730790853500366,-0.0665094256401062,0.10409373044967651,-0.9853178091560636,0.07736268080077933,0.150951435433583,0.019430428284074864,-0.14711767111896412,-0.30863449786920744,-0.062359912677631045
1781551375259837696,1.7342658042907715,-0.4844832122325897,-0.30100807547569275,-0.07686847448348999,-0.3035203218460083,0.15084435045719147,-0.940808892250061,0.013862758874893188,-0.06248071789741516,0.11022722721099854,-0.984886107684831,0.0796898905007758,0.15246335329073143,0.020091960714432273,-0.1514223473348555,-0.3120744588148614,-0.06466057155592735
1781551375269871360,1.7442996501922607,-0.4907435178756714,-0.28280043601989746,-0.07170647382736206,-0.306386798620224,0.1552141308784485,-0.9391675591468811,0.022146075963974,-0.06410388648509979,0.1237226128578186,-0.9844567059887243,0.08206936446369918,0.1538857946367011,0.020708043804484218,-0.15584420135396065,-0.3153460708503967,-0.06689089167491359
1781551375279905536,1.754333734512329,-0.523435652256012,-0.27230730652809143,-0.043706268072128296,-0.30906590819358826,0.15977540612220764,-0.937523365020752,0.021819204092025757,-0.07386842370033264,0.12963151931762695,-0.9840269575598821,0.08454040649753955,0.1552135014789163,0.021276084136515577,-0.16046313291393768,-0.3184428052445764,-0.06905742966925069
1781551375289939456,1.7643675804138184,-0.5714324712753296,-0.28372296690940857,-0.025040434673428535,-0.31169593334198,0.16482608020305634,-0.9357767105102539,0.02084815502166748,-0.06933657824993134,0.1293344497680664,-0.9835727465957422,0.0872507412982536,0.15652144369208437,0.02175042722678248,-0.1655816830233745,-0.32152968782900154,-0.07113151831142327
1781551375299973376,1.7744016647338867,-0.5562777519226074,-0.2845221757888794,-0.04037332162261009,-0.3144342303276062,0.17005448043346405,-0.9339232444763184,0.0271264910697937,-0.05211929976940155,0.13387441635131836,-0.9830909969941786,0.09005843029192562,0.15788560717177788,0.022221106910314134,-0.17088495221984537,-0.3247604489337115,-0.07326022008720641
1781551375310007552,1.784435749053955,-0.5559262037277222,-0.28998592495918274,-0.03301287814974785,-0.3171408176422119,0.1750175654888153,-0.9320893287658691,0.029085427522659302,-0.04728624224662781,0.15643936395645142,-0.9826126962834181,0.09274166956794991,0.15923036801819973,0.02273662907721675,-0.17592360377605293,-0.32796011190766095,-0.07545222981111525
1781551375320042496,1.7944707870483398,-0.681544303894043,-0.3375664949417114,0.008865066803991795,-0.32008132338523865,0.18071545660495758,-0.929994523525238,0.03176650404930115,-0.04547680914402008,0.1717243194580078,-0.9820705613137278,0.095791077735073,0.16070716687030717,0.023121980170420383,-0.1817138387404745,-0.33147653647258946,-0.07755684693714206
1781551375330076416,1.804504632949829,-0.8248897790908813,-0.3025586009025574,-0.006369279697537422,-0.32300010323524475,0.18768194317817688,-0.9276025295257568,0.03773704171180725,-0.054182812571525574,0.19861388206481934,-0.9814503914684702,0.09951182784895364,0.1621608471985891,0.02358737225994297,-0.1888016228985839,-0.33507891819888,-0.08008060374272205
1781551375340110592,1.8145387172698975,-1.032699465751648,-0.32511529326438904,0.005973406136035919,-0.3258728086948395,0.19623401761054993,-0.9248238205909729,0.03641358017921448,-0.08797290921211243,0.1940498948097229,-0.980727772426763,0.10407921703111209,0.16357138850969763,0.024187413475835168,-0.19751578046868618,-0.33877754258883924,-0.08320311077746155
1781551375350144512,1.8245728015899658,-1.3237369060516357,-0.4007888734340668,0.04936668649315834,-0.3291367292404175,0.20712538063526154,-0.9212861061096191,0.04852756857872009,-0.10612744092941284,0.18376779556274414,-0.97980938438861,0.10988348278563193,0.1651743237892859,0.024835442824113933,-0.2086357016538473,-0.3431259351211472,-0.08696084200985335
1781551375360178432,1.834606647491455,-1.611116647720337,-0.34402361512184143,0.013664616271853447,-0.33274945616722107,0.220816507935524,-0.9167976379394531,0.05781656503677368,-0.11432541906833649,0.16727066040039062,-0.978642824780865,0.11718984678823612,0.16693631980692428,0.025631016990798255,-0.22265156673173775,-0.34816250725806225,-0.09168206058852942
1781551375370212608,1.8446407318115234,-1.888282299041748,-0.38797080516815186,-0.0011100693373009562,-0.33592092990875244,0.23687730729579926,-0.9116173982620239,0.03796255588531494,-0.12248216569423676,0.11980831623077393,-0.9772844400628202,0.1258272932676136,0.16840071479949298,0.026902498963362286,-0.23915042016074609,-0.35305017077368916,-0.09789972874296822
1781551375380247552,1.8546757698059082,-2.1365840435028076,-0.4748106300830841,0.02217448130249977,-0.33986884355545044,0.2552533745765686,-0.9051712155342102,0.01265937089920044,-0.1228986382484436,0.0912368893623352,-0.9755957863837602,0.13575068173888633,0.17025321272195817,0.028258500400104167,-0.25810976055252743,-0.35918675503743036,-0.10502743479118261
1781551375390281472,1.8647096157073975,-2.3919260501861572,-0.5199083685874939,0.04098758101463318,-0.344271183013916,0.2758446931838989,-0.8974336385726929,0.005068302154541016,-0.11993035674095154,0.08214128017425537,-0.9735683519997368,0.1469225428299379,0.17232805945003846,0.029692185156969256,-0.27946836881293674,-0.3663042068622616,-0.11307083280151432
1781551375400315648,1.8747437000274658,-2.4907147884368896,-0.49927255511283875,0.04282329976558685,-0.3486523926258087,0.2979556918144226,-0.8886303305625916,-0.006450146436691284,-0.11845135688781738,0.07942628860473633,-0.9712568118495866,0.1589934174219972,0.17437293046577798,0.031229556572477526,-0.30255036620136894,-0.3738925098102044,-0.12193888381374371
1781551375410349568,1.8847777843475342,-2.3608932495117188,-0.6418054699897766,-0.0024104907643049955,-0.35356420278549194,0.3197249174118042,-0.8790724277496338,-0.0008974671363830566,-0.09635147452354431,0.04421830177307129,-0.9687415590873297,0.17100383133205896,0.17669598812530332,0.032802480314215614,-0.3254391364218305,-0.38240272298547934,-0.13123045032508487
1781551375420383488,1.8948116302490234,-1.9295988082885742,-0.8851291537284851,-0.04217468202114105,-0.36016345024108887,0.3386487066745758,-0.8692522048950195,0.005213499069213867,-0.029047906398773193,-0.06794261932373047,-0.9661555903536402,0.18162570197560113,0.17996114618259632,0.034198088904204345,-0.34548038854913715,-0.39280453388730846,-0.14016590654267647
1781551375430417664,1.9048457145690918,-1.3199647665023804,-1.0996439456939697,-0.0597989521920681,-0.3688803017139435,0.3525207042694092,-0.860032856464386,-0.003037393093109131,0.10071104764938354,-0.285810649394989,-0.9637387029942844,0.18959028253884935,0.1844969055666774,0.03498777913513828,-0.3602633740834342,-0.4051813411435006,-0.14735379520856026
1781551375440452608,1.9148807525634766,-0.9095324873924255,-1.413753867149353,-0.3250250220298767,-0.38033467531204224,0.3612680733203888,-0.8513700366020203,-0.039297282695770264,0.3135060966014862,-0.6654756665229797,-0.961466158565228,0.1949311391865152,0.19056975964894537,0.0356072186909868,-0.3696274506605441,-0.4201333471442448,-0.15371133526308214
1781551375450486528,1.9249145984649658,-0.5769569277763367,-1.2837222814559937,-0.5432026386260986,-0.3937620520591736,0.36586904525756836,-0.8432623147964478,-0.11801773309707642,0.5356659889221191,-0.7529290914535522,-0.959292825405815,0.198370015123427,0.19753021935783968,0.03726221266558051,-0.3745664128094682,-0.4368605049127189,-0.16172731371212834
1781551375460520448,1.9349486827850342,-0.46424853801727295,-1.0081807374954224,-0.21401861310005188,-0.40484383702278137,0.3683505952358246,-0.8369105458259583,-0.17448657751083374,0.4691585302352905,-0.23953592777252197,-0.9575880616782145,0.20050218370282957,0.20333124631173163,0.038475119244800446,-0.37723425773849834,-0.45055202901671254,-0.16774865156264238
1781551375470554624,1.9449827671051025,-0.5656371712684631,-0.8019243478775024,-0.08456581085920334,-0.4127488136291504,0.37223371863365173,-0.8313124775886536,-0.11183309555053711,0.10643446445465088,0.08675986528396606,-0.9561157921101618,0.20306628117539297,0.20762427945515177,0.038714253379388046,-0.3814145265018333,-0.4608457882657051,-0.1714528670676273
1781551375480587008,1.9550151824951172,-0.746677815914154,-0.9524232745170593,-0.10441488772630692,-0.42024219036102295,0.3769761323928833,-0.825400173664093,-0.04484567046165466,-0.3010331392288208,0.07846719026565552,-0.9545571731023673,0.20610953270366364,0.21170446119141492,0.03899426786995324,-0.38652940253368284,-0.47093088740667,-0.17549359603550535
1781551375490621952,1.965050220489502,-1.3930400609970093,-1.3011419773101807,0.05922038108110428,-0.4295356869697571,0.385581374168396,-0.8165941834449768,0.03903275728225708,-0.5100167989730835,0.0934343934059143,-0.9522438568917162,0.21136360334848914,0.21686014753314745,0.03909894105425618,-0.3958378447374576,-0.4842374376444716,-0.18104688320108972
1781551375500655872,1.9750840663909912,-1.7662967443466187,-1.563462257385254,0.13678841292858124,-0.4408731460571289,0.3991639316082001,-0.8039272427558899,0.1160440444946289,-0.44909071922302246,0.10714989900588989,-0.9489269181439796,0.2194434268423753,0.22334044687647828,0.03874715399488933,-0.41060480696075474,-0.5016134329587867,-0.1882196744872557
1781551375510690048,1.9851181507110596,-1.9308151006698608,-1.481758713722229,0.035358723253011703,-0.4528634548187256,0.41429367661476135,-0.7894779443740845,0.11163115501403809,-0.30308765172958374,0.022144019603729248,-0.9451128614679786,0.2286127031964933,0.23021132409639963,0.038738176626755,-0.4271666102553878,-0.5207995089612311,-0.19738277109578722
1781551375520723968,1.995152235031128,-2.0843887329101562,-1.3786553144454956,0.1252092570066452,-0.46369293332099915,0.43038392066955566,-0.7744407653808594,0.05358248949050903,-0.14515140652656555,-0.05562204122543335,-0.9411117003296043,0.2384814426723096,0.23644496950339666,0.03910302813307383,-0.4449180649786651,-0.5394965919076954,-0.20797354817241745
1781551375530757888,2.005186080932617,-2.0559074878692627,-1.3850102424621582,0.2948438227176666,-0.47327348589897156,0.4474393129348755,-0.7588216066360474,0.05779191851615906,-0.03592503070831299,-0.028394579887390137,-0.9369607415568024,0.24883462373082052,0.24222001302827173,0.03892585095787711,-0.46389997794219423,-0.557660577994258,-0.21807957378007192
1781551375540792064,2.0152201652526855,-1.8162126541137695,-1.4538710117340088,0.3016636371612549,-0.48261043429374695,0.4635377824306488,-0.7431150078773499,0.08278438448905945,-0.008261293172836304,-0.0074343085289001465,-0.9327949837714785,0.25860017010671654,0.2481298968075069,0.03809316468135166,-0.4819836765964598,-0.5759831788443437,-0.22697978843575067
1781551375550827008,2.0252552032470703,-1.4602375030517578,-1.495859980583191,0.2581148147583008,-0.4922023415565491,0.47704342007637024,-0.728125274181366,0.07803305983543396,0.02681705355644226,0.004400908946990967,-0.928816855585846,0.2669079720570501,0.254357012918922,0.03690446169631952,-0.49728760728618443,-0.5944265882953397,-0.23464179513110067
1781551375560860928,2.0352890491485596,-1.0906378030776978,-1.4427533149719238,0.2431846261024475,-0.5017316341400146,0.487510621547699,-0.714561939239502,0.06575751304626465,0.13523107767105103,0.06334733963012695,-0.9252171162239307,0.27343550852486775,0.26067617103771384,0.03541520259763094,-0.5092363422810701,-0.6121693454597295,-0.24064565284155434
1781551375570894848,2.045323133468628,-0.49358031153678894,-1.3400651216506958,0.26373356580734253,-0.5103403925895691,0.4945313334465027,-0.7035562992095947,0.04122418165206909,0.2739165425300598,0.11825966835021973,-0.922314935442881,0.27773758799029286,0.266615250711632,0.03336592509424246,-0.5172955178815054,-0.6275523303341125,-0.2436076108976245
1781551375580929024,2.0553572177886963,0.17204910516738892,-1.2876421213150024,0.21397773921489716,-0.5183172821998596,0.49683335423469543,-0.6960631012916565,0.01073366403579712,0.36945390701293945,0.07649528980255127,-0.9203770779737238,0.27896721305000527,0.27229713490972945,0.03062226832101476,-0.5199460807225831,-0.6400626615135048,-0.2423765043241672
1781551375590962944,2.0653910636901855,0.6322521567344666,-1.1155049800872803,0.24866966903209686,-0.5253962874412537,0.49519023299217224,-0.6919143199920654,-0.029413282871246338,0.38588276505470276,0.05676722526550293,-0.9193530134661049,0.27756528168013395,0.2774893880719842,0.027335659776732555,-0.5180537966352284,-0.6494501809471245,-0.23738519716074216
1781551375600996864,2.075425148010254,1.0123049020767212,-1.051559567451477,0.31664738059043884,-0.5314980745315552,0.4909209609031677,-0.6902944445610046,-0.04003506898880005,0.3333283066749573,0.029085397720336914,-0.9190217440161943,0.2742655517030285,0.2821899698903489,0.023372665016155703,-0.5131465363500134,-0.6561526519078084,-0.22898037927738132
1781551375611032064,2.0854601860046387,1.1936371326446533,-1.081358790397644,0.3352482318878174,-0.5371382832527161,0.48496851325035095,-0.6901362538337708,-0.021623313426971436,0.21406713128089905,-0.011737525463104248,-0.919083473881849,0.2696991901393582,0.2866953522370029,0.01880678882070381,-0.5063271471948344,-0.6613731937126223,-0.21808386623079482
1781551375621065728,2.095494031906128,1.209411859512329,-1.2278128862380981,0.32138141989707947,-0.5433903336524963,0.4784351587295532,-0.6898019909858704,0.018487989902496338,0.09695851802825928,-0.05098164081573486,-0.919078541749287,0.2647179109428185,0.2915877619669154,0.013988844170693947,-0.49887180745559245,-0.6672255701030728,-0.20655155937108266
1781551375631099904,2.1055281162261963,0.9972647428512573,-1.357937216758728,0.347903847694397,-0.5508376359939575,0.4724510908126831,-0.6880174279212952,0.06605058908462524,-0.010475993156433105,-0.07737874984741211,-0.9186542606347624,0.26009301727368267,0.2972253701608816,0.009117706782323539,-0.492069752450761,-0.6751163218887208,-0.19567899287692261
1781551375641134080,2.1155622005462646,0.7452237010002136,-1.645289421081543,0.3442491888999939,-0.5594208240509033,0.46839725971221924,-0.6838511228561401,0.10058903694152832,-0.11527839303016663,-0.08697712421417236,-0.9175549455568522,0.2566638323707928,0.303641438134017,0.004296290408288299,-0.4874758761269996,-0.685647402106424,-0.18641841724257868
1781551375651167744,2.125596046447754,0.4833121597766876,-1.8395253419876099,0.40593117475509644,-0.5696213245391846,0.46640002727508545,-0.676758885383606,0.12214207649230957,-0.19552597403526306,-0.10621535778045654,-0.9156304359729889,0.2544654736758404,0.31123603346190815,-0.0006544160669780179,-0.48521665858262997,-0.6996499507760646,-0.17866076938639
1781551375661201920,2.1356301307678223,0.15946540236473083,-2.0218331813812256,0.4150935113430023,-0.5808132886886597,0.46648043394088745,-0.6671221256256104,0.13461577892303467,-0.22616973519325256,-0.12136054039001465,-0.9129792078303156,0.253553230411657,0.31960865482329875,-0.005479786951809416,-0.4853075617401356,-0.7163468038377744,-0.172779611335285
1781551375671236864,2.145665168762207,-0.004905694164335728,-2.0634734630584717,0.4602450132369995,-0.5922203063964844,0.4686896502971649,-0.6554427146911621,0.11520004272460938,-0.19183418154716492,-0.08463907241821289,-0.9097346008917009,0.2539093063169185,0.32834234688677144,-0.010217208242832591,-0.48780682461442887,-0.7347687831160027,-0.1685059231565149
1781551375681271040,2.1556992530822754,-0.07481527328491211,-2.058591842651367,0.4918671250343323,-0.6034963130950928,0.4717969298362732,-0.6428062915802002,0.10346579551696777,-0.0850629210472107,-0.060089826583862305,-0.9061898807202494,0.2547601829451317,0.33718555634974917,-0.014939460771937434,-0.4913276932151916,-0.7538673359599768,-0.16489015094784873
1781551375691304960,2.1657330989837646,0.028343604877591133,-1.9929695129394531,0.4704095125198364,-0.6141310930252075,0.47494304180145264,-0.6302953362464905,0.08185875415802002,0.04577839374542236,-0.02220100164413452,-0.9026409544144752,0.25554867497870765,0.34575598510660266,-0.019675216695263134,-0.4948993131953093,-0.7724095575468823,-0.16114308762517557
1781551375701338880,2.175767183303833,0.1527864634990692,-1.8234939575195312,0.47346654534339905,-0.623796820640564,0.4773242175579071,-0.6189015507698059,0.047060370445251465,0.1588757336139679,-0.026728332042694092,-0.8993631682499186,0.2557602333684499,0.35374558017178537,-0.02442654408100271,-0.49760713515980937,-0.7893373766874809,-0.15655910291123232
1781551375711372800,2.1858010292053223,0.3003847002983093,-1.6374433040618896,0.4331079423427582,-0.6323314309120178,0.4788103699684143,-0.609013557434082,0.009040474891662598,0.1950635015964508,-0.0020551085472106934,-0.8964707042072975,0.25533446401128973,0.360967489577312,-0.02910321125244678,-0.49929914152391025,-0.8041803272385999,-0.15110606453831574
1781551375721408000,2.195836067199707,0.4598100483417511,-1.4279215335845947,0.324999064207077,-0.6396927833557129,0.47901394963264465,-0.6011146306991577,-0.02568197250366211,0.18102023005485535,0.005792975425720215,-0.8941120622432861,0.2541198562566126,0.36724075989802263,-0.033480325744346805,-0.4995310436710918,-0.8164792851839042,-0.14493035159524384
1781551375731441920,2.2058701515197754,0.5490803122520447,-1.1681135892868042,0.23150373995304108,-0.6461173892021179,0.47770825028419495,-0.5952538251876831,-0.05679398775100708,0.16094836592674255,0.008736491203308105,-0.8923212056568776,0.2521122443957105,0.37257551222397106,-0.03727840587604842,-0.49804419920593107,-0.826348954651919,-0.13855388227620927
1781551375741476096,2.2159042358398438,0.6259556412696838,-1.0076091289520264,0.14907729625701904,-0.6516376733779907,0.4753962457180023,-0.5910725593566895,-0.05588185787200928,0.11931505799293518,-0.010200023651123047,-0.8910034130062964,0.24959038672418737,0.3770521933525886,-0.04061038034679907,-0.49541436511482456,-0.8340959302402975,-0.13206455648117174
1781551375751510016,2.225938081741333,0.5629340410232544,-0.836854875087738,0.053484730422496796,-0.6565837264060974,0.47251638770103455,-0.5878996849060059,-0.03413587808609009,0.056322723627090454,-0.01642465591430664,-0.8899832509118548,0.24690823845709026,0.38090218393449476,-0.043354947716467473,-0.4921438358345444,-0.8405330343152204,-0.12619724755973827
1781551375761543936,2.2359721660614014,0.5143790245056152,-0.703102707862854,-0.030090853571891785,-0.6610288023948669,0.46938809752464294,-0.5854192972183228,-0.029736578464508057,-0.0010347962379455566,-0.028670668601989746,-0.8891849457274578,0.24433447301117875,0.384175775273608,-0.04538419340409874,-0.4885976491964474,-0.8459838996467629,-0.12150584957673666
1781551375771578112,2.2460062503814697,0.3812931180000305,-0.5774521827697754,-0.06813783943653107,-0.6650134921073914,0.4663940668106079,-0.5832955837249756,-0.03612786531448364,-0.04161989688873291,-0.060274362564086914,-0.8885145885667189,0.2420766521568657,0.38697687230292893,-0.046794518487530364,-0.485209927523847,-0.8507677529267642,-0.11807157697601729
1781551375781612800,2.2560410499572754,0.2831428647041321,-0.4773910939693451,-0.0834808424115181,-0.6684332489967346,0.4639225900173187,-0.5813542604446411,-0.03760617971420288,-0.07268723845481873,-0.06056773662567139,-0.88791804021165,0.2403117370451218,0.3893239635985522,-0.04773445469637478,-0.4824180114817193,-0.8549607889572158,-0.11579360838471947
1781551375791646976,2.2660751342773438,0.13532571494579315,-0.41067054867744446,-0.11245310306549072,-0.6713902950286865,0.4620800018310547,-0.579410970211029,-0.0324365496635437,-0.12193110585212708,-0.08767271041870117,-0.8873439210093296,0.23910336638340499,0.3913107440017858,-0.04823041558420085,-0.48033917662455283,-0.8588023794724217,-0.11474091685227022
1781551375801681152,2.276109218597412,0.025345152243971825,-0.3458433449268341,-0.11463157087564468,-0.6741101741790771,0.4608168601989746,-0.5772548317909241,-0.026848018169403076,-0.1641402542591095,-0.10101354122161865,-0.8867303294099649,0.23841101118100066,0.39310655371795766,-0.04833842397971362,-0.4789153797817161,-0.862643896385906,-0.11486210855910779
1781551375811714816,2.2861430644989014,-0.09464916586875916,-0.2679797112941742,-0.09981880336999893,-0.6763573884963989,0.46030718088150024,-0.5750287771224976,-0.038547396659851074,-0.16971880197525024,-0.11335623264312744,-0.8861133137095111,0.2382961129680412,0.3945891359239289,-0.04814180911841932,-0.4783411916840647,-0.866194982548595,-0.11598932472708827
1781551375821748992,2.2961771488189697,-0.14554323256015778,-0.20218975841999054,-0.07993616908788681,-0.6781560778617859,0.46040695905685425,-0.5728261470794678,-0.061757802963256836,-0.16276901960372925,-0.09836220741271973,-0.8855092814146697,0.23859405021223404,0.3958027196135734,-0.04781734425289073,-0.47845358502356183,-0.8693978134220428,-0.11763736970692658
1781551375831783936,2.3062121868133545,-0.14025233685970306,-0.15787795186042786,-0.08849077671766281,-0.6795809268951416,0.4606563448905945,-0.5709338188171387,-0.06883209943771362,-0.16440695524215698,-0.09038203954696655,-0.8850002995528256,0.23903483187599378,0.39673094306447404,-0.04734258342124796,-0.4787345193383739,-0.8720624707074263,-0.11956269309743128
1781551375841817856,2.3162460327148438,-0.08258716762065887,-0.08068224787712097,-0.05413414165377617,-0.6806102991104126,0.4608049690723419,-0.5695862174034119,-0.0762408971786499,-0.14409351348876953,-0.06739193201065063,-0.8846400603949061,0.23935374555193603,0.3973873288154562,-0.04695812938956978,-0.47890197532356016,-0.8739711334711293,-0.12102767831744228
1781551375851852032,2.326280117034912,-0.013398515060544014,0.01808774285018444,-0.028751816600561142,-0.680950403213501,0.460783451795578,-0.5691969990730286,-0.09947562217712402,-0.098417729139328,-0.07620394229888916,-0.8845430073829873,0.23946804847174738,0.3975632659071095,-0.04671442140615953,-0.4788777460647714,-0.8745533553202488,-0.1217246429069707
1781551375861885952,2.3363142013549805,0.07420776784420013,0.06314123421907425,-0.016450142487883568,-0.6807777285575867,0.46047401428222656,-0.5696537494659424,-0.10863572359085083,-0.09765052795410156,-0.06819415092468262,-0.8846776903158393,0.2393148865801568,0.3973682367674739,-0.04660781783635322,-0.47852912183528923,-0.874033839853365,-0.12165814476651375
1781551375871919872,2.3463480472564697,0.04997832700610161,0.07195376604795456,0.03418213874101639,-0.680448591709137,0.4598960876464844,-0.5705131888389587,-0.08430659770965576,-0.10786059498786926,-0.04162365198135376,-0.8849107759609091,0.23885657451841175,0.3971031970219142,-0.04679209064906493,-0.47787817672367056,-0.8730536931078351,-0.12066540830764641
1781551375881954048,2.356382131576538,-0.12005332112312317,0.18168506026268005,0.055474378168582916,-0.6794436573982239,0.4605003297328949,-0.5712230801582336,-0.06488007307052612,-0.1015067994594574,-0.018284976482391357,-0.8851148573207233,0.2392079487138872,0.39644423573745885,-0.04672447378362539,-0.4785587504991161,-0.8717134803534974,-0.12078127976502244
1781551375891988992,2.366417169570923,-0.17220546305179596,0.20852267742156982,0.073295459151268,-0.6779873371124268,0.46177247166633606,-0.571925938129425,-0.04785794019699097,-0.13056519627571106,-0.00040072202682495117,-0.8853251297959345,0.24001894830298157,0.3955097200008103,-0.04650056984757696,-0.4799924377379415,-0.8700503994864855,-0.12152051384936308
1781551375902023168,2.376451253890991,-0.23152977228164673,0.20482008159160614,0.0743149146437645,-0.676436722278595,0.4634271562099457,-0.5724234580993652,-0.011520981788635254,-0.11336001753807068,-0.027307987213134766,-0.885482757090428,0.24110749120098335,0.3945319346116179,-0.046173816608928345,-0.48185882202641267,-0.8684929549889038,-0.12272367771725734
1781551375912056832,2.3864850997924805,-0.24768903851509094,0.18199345469474792,0.0744619220495224,-0.6749653816223145,0.46531620621681213,-0.5726277828216553,0.009407520294189453,-0.040038496255874634,-0.011066675186157227,-0.8855597023643832,0.24236492336513785,0.39363099892367165,-0.04580304004740386,-0.4839918206061884,-0.8672429781689653,-0.12423359699868056
1781551375922091008,2.396519184112549,-0.2172195464372635,0.14994950592517853,0.06291098892688751,-0.6736783981323242,0.4671230912208557,-0.5726722478866577,0.018862664699554443,0.002435624599456787,-0.016271233558654785,-0.8855910242431817,0.24357832260639017,0.3928530036284836,-0.04543879017934589,-0.4860342475127938,-0.8662629550969254,-0.1257570711171998
1781551375932124928,2.406553030014038,-0.15890803933143616,0.11417832225561142,0.05354811251163483,-0.6726434826850891,0.46856689453125,-0.5727091431617737,0.02611333131790161,0.0116119384765625,-0.02293294668197632,-0.8856154826300466,0.24454054148473608,0.3922312437924864,-0.0451635528100617,-0.4876678666545352,-0.8654723946299805,-0.12693586467795004
1781551375942159872,2.416588068008423,-0.07013262808322906,0.06673011183738708,0.035440750420093536,-0.6719023585319519,0.46952930092811584,-0.5727910399436951,0.031841933727264404,0.015196651220321655,-0.016579747200012207,-0.8856458295626776,0.2451600093512998,0.39179211017632637,-0.04502315495592369,-0.48875759841258926,-0.8648576055633392,-0.12759959869820905
1781551375952194048,2.426622152328491,0.015040583908557892,0.004460347816348076,0.012734906747937202,-0.6715773344039917,0.4698348343372345,-0.5729216933250427,0.038139164447784424,0.02279523015022278,-0.01663219928741455,-0.8856826109193762,0.24533081788618002,0.39160175724878477,-0.04502578836055408,-0.4891036660601863,-0.8645060734959934,-0.12766030218763955
1781551375962227968,2.4366562366485596,0.07228656113147736,-0.04833495616912842,0.006314823403954506,-0.6716630458831787,0.4696057438850403,-0.5730088949203491,0.04153609275817871,0.03192013502120972,-0.01572096347808838,-0.885698747403647,0.24512028200531089,0.3916779160408598,-0.045190568802253854,-0.48884417209698855,-0.8644939425294663,-0.12716195036167757
1781551375972261888,2.446690082550049,0.07213130593299866,-0.07775822281837463,0.003992547281086445,-0.6719978451728821,0.46920132637023926,-0.5729476809501648,0.03585892915725708,0.028815031051635742,-0.013478100299835205,-0.8856689574493191,0.24477919573396817,0.39193024006071014,-0.045434952362218374,-0.488386162144521,-0.8647927708134856,-0.12647573616631938
1781551375982296064,2.456724166870117,0.040696144104003906,-0.11722174286842346,0.0037667113356292248,-0.6725342869758606,0.4688849449157715,-0.5725770592689514,0.02484452724456787,-0.008649379014968872,-0.012154936790466309,-0.8855515199994437,0.24450194997577607,0.39233948754139386,-0.045683390324866464,-0.4880279195767154,-0.8655061372849675,-0.1259419400998039
1781551375992331008,2.466759204864502,-0.02022393047809601,-0.16070556640625,-0.0030445894226431847,-0.6733186841011047,0.46880677342414856,-0.5717185735702515,0.024606525897979736,-0.05590394139289856,-0.018033623695373535,-0.8852989916321027,0.24440930201638172,0.3929437791233833,-0.045879548059706315,-0.48793943172803644,-0.8668218302472172,-0.12582010541110542
1781551376002364928,2.476793050765991,-0.05581121891736984,-0.20236912369728088,-0.0008014088962227106,-0.6743651628494263,0.4690006375312805,-0.5703244805335999,0.028826892375946045,-0.07732275128364563,-0.02135026454925537,-0.884898102484747,0.24452582164262265,0.39375737253213855,-0.04601787127419141,-0.48815889421451114,-0.8687919471987382,-0.12615605014371345
1781551376012398848,2.4868271350860596,-0.08373792469501495,-0.22369839251041412,-0.004206527024507523,-0.6755797863006592,0.46937257051467896,-0.5685783624649048,0.02888178825378418,-0.057644665241241455,-0.025598883628845215,-0.8843988162967896,0.24477468050117204,0.3947102334157299,-0.046129668434756105,-0.48858008871097897,-0.871190113163704,-0.1267674135643344
1781551376022433024,2.496861219406128,-0.10906484723091125,-0.24691715836524963,-0.006854774430394173,-0.67693030834198,0.4698747396469116,-0.5665537714958191,0.02078711986541748,-0.03675404191017151,-0.019933104515075684,-0.8838229261838658,0.24513386047171606,0.39576826130261133,-0.04619482975155656,-0.4891488799822411,-0.873930075673509,-0.12765135646274656
1781551376032466944,2.506895065307617,-0.12454287707805634,-0.2689743638038635,-0.013204015791416168,-0.678433358669281,0.47046545147895813,-0.5642610788345337,0.018673837184906006,-0.03110387921333313,-0.014428496360778809,-0.883172238802794,0.24557026078740565,0.39694420721050466,-0.04623292133059819,-0.48981817998028643,-0.8770157267528746,-0.1287435635144695
1781551376042500864,2.5169291496276855,-0.10037469863891602,-0.28593870997428894,-0.016002731397747993,-0.6800739765167236,0.47097048163414,-0.5618594288825989,0.022954285144805908,-0.033790916204452515,-0.024032235145568848,-0.8824895820833776,0.24595905083328481,0.39821403739254024,-0.0462789955655045,-0.49039059980110317,-0.8802981419268933,-0.12982921050217497
1781551376052536064,2.5269641876220703,-0.08201885223388672,-0.2851589322090149,-0.009055609814822674,-0.6817482709884644,0.4713841378688812,-0.5594785809516907,0.02005094289779663,-0.03228199481964111,-0.040283381938934326,-0.8818091918414946,0.24626598913114056,0.39951693382301434,-0.04638715624035113,-0.4908595626272821,-0.8835885058353421,-0.1307292004261272
1781551376062569984,2.5369980335235596,-0.06685854494571686,-0.27240079641342163,-0.009104612283408642,-0.6833451390266418,0.47172361612319946,-0.5572397112846375,0.010630965232849121,-0.01939210295677185,-0.03637290000915527,-0.8811656588774022,0.24649864632330137,0.40077245142168827,-0.046549290743892496,-0.4912445501779142,-0.8867002071733529,-0.13141841830634
1781551376072603904,2.547032117843628,-0.057997941970825195,-0.24910934269428253,-0.00479002483189106,-0.6848242878913879,0.47200387716293335,-0.555182933807373,0.0034888386726379395,-0.00975412130355835,-0.024864673614501953,-0.8805734370722748,0.246687776535562,0.401937384072623,-0.046711857137143126,-0.4915624224743248,-0.8895685602148066,-0.13200749383332228
1781551376082638080,2.5570662021636963,-0.06113780662417412,-0.23557515442371368,-0.007940012030303478,-0.686201810836792,0.47228145599365234,-0.553242564201355,0.002180755138397217,-0.011389732360839844,-0.02135765552520752,-0.8800147476634693,0.24687925466633126,0.403025259982572,-0.046854004118253106,-0.49187730341255553,-0.8922627580376319,-0.1325942269226634
1781551376092671744,2.5671000480651855,-0.06954434514045715,-0.2118578404188156,-0.004572710953652859,-0.6874542832374573,0.4725942015647888,-0.5514174699783325,0.0038453340530395508,-0.020094871520996094,-0.026844799518585205,-0.8794894496402065,0.24709414982918493,0.4040244266374045,-0.04697837142655353,-0.49223215166107004,-0.8947669935496739,-0.13318909459652176
1781551376102706944,2.5771350860595703,-0.08722986280918121,-0.18605473637580872,-0.004102929495275021,-0.6885677576065063,0.47298502922058105,-0.5496904253959656,0.0023494362831115723,-0.026467114686965942,-0.03308844566345215,-0.878994777805891,0.24737644696263075,0.40491934037218213,-0.047046193693984606,-0.49267567594685036,-0.8970867777465644,-0.13390593587143218
1781551376112741120,2.5871691703796387,-0.09469470381736755,-0.16088692843914032,-0.006714691407978535,-0.6895344853401184,0.473451167345047,-0.5480749011039734,0.0010579824447631836,-0.032914698123931885,-0.03046208620071411,-0.8785352866565367,0.24773050667733068,0.40569957777531956,-0.047043671136666604,-0.4932048131578285,-0.8992049380877548,-0.1347702037742293
1781551376122775040,2.597203254699707,-0.0923689603805542,-0.14013051986694336,-0.007203115150332451,-0.6903870701789856,0.4738861322402954,-0.546623945236206,0.0009033679962158203,-0.03009951114654541,-0.039511919021606445,-0.878123822107319,0.2480695452837414,0.40638592480843305,-0.04701760121810315,-0.49369868989925364,-0.9010972416153042,-0.13560860232659513
1781551376132808960,2.6072371006011963,-0.1175646036863327,-0.11093109101057053,-0.00500068161636591,-0.6911091208457947,0.4744078516960144,-0.5452572107315063,0.0010914206504821777,-0.024700820446014404,-0.04623448848724365,-0.8777399060207585,0.2484901304356747,0.4069693426243324,-0.04691810189576103,-0.49429126301051407,-0.9028236273045945,-0.1366182116649348
1781551376142843136,2.6172711849212646,-0.12553304433822632,-0.06691703200340271,0.0009855721145868301,-0.6915802955627441,0.47505661845207214,-0.544093668460846,-0.006799221038818359,-0.017903298139572144,-0.029880881309509277,-0.8774158887822558,0.24899437163119878,0.4073756927638397,-0.04677916221323644,-0.4950283781914558,-0.904193389510586,-0.1376904455002192
1781551376152878080,2.6273062229156494,-0.13868851959705353,-0.03037686087191105,-0.0047471486032009125,-0.691837728023529,0.47575193643569946,-0.5431579947471619,-0.011241495609283447,-0.02487000823020935,-0.02755117416381836,-0.8771608937382612,0.24955284143264306,0.4076081122854584,-0.046559370445978326,-0.49581872122805876,-0.9052104133275843,-0.1388750775340962
1781551376162912000,2.6373400688171387,-0.1402651071548462,-0.01011073961853981,-0.009044690988957882,-0.6919629573822021,0.47647371888160706,-0.5423652529716492,-0.0072863101959228516,-0.033678919076919556,-0.021889448165893555,-0.8769506907912805,0.2501564949027148,0.4077242858004508,-0.04626153734562483,-0.4966395064591656,-0.9060075639735523,-0.14019165613479723
1781551376172945920,2.647374153137207,-0.14235062897205353,-0.0008758283220231533,-0.012690559029579163,-0.6920328736305237,0.4771423041820526,-0.5416877865791321,0.000519871711730957,-0.0351715087890625,-0.03016585111618042,-0.876774551799566,0.2507359197708887,0.4077837801739454,-0.04593678682923633,-0.4974001074868833,-0.9066633985397885,-0.14150039726935645
1781551376182980096,2.6574082374572754,-0.1532549411058426,0.005173542536795139,-0.014392318204045296,-0.6920762658119202,0.4778434932231903,-0.5410138964653015,0.004087984561920166,-0.028990954160690308,-0.023378193378448486,-0.8766017611847021,0.2513560928494414,0.4078151124099915,-0.04556611065067605,-0.4981981447322831,-0.9072979072558467,-0.14292756143931123
1781551376193014016,2.6674420833587646,-0.1322316825389862,0.003945958334952593,-0.01659022457897663,-0.6921148300170898,0.4784998893737793,-0.5403839945793152,0.005835592746734619,-0.020644694566726685,-0.022192299365997314,-0.8764416093906172,0.2519510329390345,0.40783415038179055,-0.04518890077713722,-0.4989455342710013,-0.9078901752389922,-0.14433318417874794
1781551376203047936,2.677476167678833,-0.10884593427181244,-0.0010655778460204601,-0.01942169852554798,-0.6921829581260681,0.4790049195289612,-0.5398492217063904,0.011366307735443115,-0.017472296953201294,-0.031317830085754395,-0.8763060821055102,0.2524299775221118,0.4078657947936195,-0.044859189637330196,-0.4995207558863023,-0.9084180872903281,-0.145526294903422
1781551376213083136,2.6875112056732178,-0.08250194787979126,-0.010968409478664398,-0.022829744964838028,-0.6923043727874756,0.4793708920478821,-0.5393684506416321,0.014417409896850586,-0.01385575532913208,-0.028167009353637695,-0.8761833129795672,0.2528022771245617,0.40792988831941984,-0.04457704026523328,-0.4999377264733379,-0.9089351453739212,-0.1465288852635328
1781551376223116800,2.697545051574707,-0.06800423562526703,-0.014264604076743126,-0.025822872295975685,-0.6924933195114136,0.4795856773853302,-0.538934588432312,0.01228708028793335,-0.009523451328277588,-0.020940840244293213,-0.8760720793857861,0.2530681001726559,0.4080309308877059,-0.044327369491912835,-0.500182476896952,-0.9094575002976755,-0.14737277729462367
1781551376233150976,2.7075791358947754,-0.06540392339229584,-0.013880975544452667,-0.029665812849998474,-0.6926948428153992,0.47972372174263,-0.5385527610778809,0.01071852445602417,-0.008120328187942505,-0.02051401138305664,-0.8759755242558416,0.25328375102037476,0.40813107603811705,-0.04408261932712979,-0.5003397924978287,-0.9099420118163204,-0.1481507181354452
1781551376243185152,2.7176132202148438,-0.0688101053237915,-0.016981961205601692,-0.03372740373015404,-0.6929357051849365,0.4798392653465271,-0.5381397008895874,0.0071446895599365234,-0.011028259992599487,-0.026404917240142822,-0.8758708457190855,0.2534970450894021,0.40825162094140155,-0.04381846249427732,-0.5004714928702478,-0.910482136618143,-0.1489764859528033
1781551376253218816,2.727647066116333,-0.09776292741298676,-0.020966315641999245,-0.022348778322339058,-0.6931627988815308,0.480082631111145,-0.5376302003860474,0.009813129901885986,-0.018870383501052856,-0.029981553554534912,-0.8757389600189824,0.25379328044308164,0.40837958110978234,-0.043549306100758925,-0.5007488954811748,-0.9110996888846398,-0.14990975896461173
1781551376263254016,2.7376821041107178,-0.10978762805461884,-0.021943163126707077,-0.019578292965888977,-0.6933698058128357,0.4804886281490326,-0.5370000600814819,0.006037652492523193,-0.029866069555282593,-0.018938660621643066,-0.8755731374276086,0.254199564285603,0.4085126062353604,-0.04326427553115054,-0.5012117807215061,-0.9118121015949573,-0.151001041669801
1781551376273287936,2.747716188430786,-0.0964294821023941,-0.04137558490037918,-0.020206531509757042,-0.6936331987380981,0.48089179396629333,-0.5362985134124756,0.007079184055328369,-0.044826120138168335,-0.020982980728149414,-0.8753857641877193,0.25459896452812375,0.4086931910149629,-0.04299945097255665,-0.5016715415980966,-0.9126286563644921,-0.15207563216354505
1781551376283321856,2.7577500343322754,-0.1072017103433609,-0.0628473162651062,-0.016124971210956573,-0.6939958930015564,0.48128414154052734,-0.535476803779602,0.013652265071868896,-0.032385796308517456,-0.01995837688446045,-0.8751624251288328,0.2549825146531963,0.40895661724740023,-0.042769690762190976,-0.5021190793730937,-0.9136233383037732,-0.15311654114434534
1781551376293356032,2.7677841186523438,-0.10012462735176086,-0.09463227540254593,-0.021598832681775093,-0.694503664970398,0.48170578479766846,-0.5344382524490356,0.01976001262664795,-0.014222264289855957,-0.016495585441589355,-0.8748759641609933,0.25538707612280376,0.40933888019990355,-0.042558579073037124,-0.5026001835817139,-0.9149155986366794,-0.15421973736424566
1781551376303389952,2.777818202972412,-0.10176272690296173,-0.13404200971126556,-0.029867414385080338,-0.6952265501022339,0.4820549190044403,-0.5331820845603943,0.024007678031921387,-0.01830977201461792,-0.022909164428710938,-0.8745252630480633,0.25574289687904506,0.40988353680664713,-0.04238723705089749,-0.5029986128711083,-0.9165550015639715,-0.15529279662539805
1781551376313425152,2.787853240966797,-0.10835272073745728,-0.16447114944458008,-0.039962396025657654,-0.6961740255355835,0.48237571120262146,-0.5316534638404846,0.025229811668395996,-0.02665671706199646,-0.02591794729232788,-0.8740967847869067,0.25610163617756143,0.4105913092643979,-0.04220798946852735,-0.5033647908644152,-0.9185980014575231,-0.15648724023734992
1781551376323458816,2.797887086868286,-0.09884098172187805,-0.1947036236524582,-0.05357860401272774,-0.6973361968994141,0.48258447647094727,-0.5299381613731384,0.024347364902496338,-0.025965243577957153,-0.027251780033111572,-0.8736147626557297,0.25640613352360536,0.4114448011541686,-0.04202764831224969,-0.5036031505847272,-0.9209598562392288,-0.15771424788818914
1781551376333492992,2.8079211711883545,-0.10079999268054962,-0.2213890254497528,-0.05419991910457611,-0.69868004322052,0.4827354848384857,-0.5280270576477051,0.024989306926727295,-0.012490153312683105,-0.043643414974212646,-0.8730762838910986,0.2566882073710941,0.4124289549421452,-0.04184806632520924,-0.5037755618941185,-0.9236257450922989,-0.15899692286978914
1781551376343527168,2.817955255508423,-0.09973233938217163,-0.23688890039920807,-0.06029003858566284,-0.7001609802246094,0.48284977674484253,-0.5259568691253662,0.02209097146987915,-0.009873121976852417,-0.022001445293426514,-0.8724905012930901,0.2569451811425145,0.4135223673801689,-0.04169703013110141,-0.5039060672647453,-0.9265313781207246,-0.16026509268490122
1781551376353560832,2.827989101409912,-0.11602209508419037,-0.25147488713264465,-0.07667460292577744,-0.7017648220062256,0.48291411995887756,-0.5237558484077454,0.017637014389038086,-0.023212552070617676,-0.020891427993774414,-0.8718698163671011,0.2572100389322198,0.4146867274093511,-0.04148525557340826,-0.5039795406064497,-0.9296411299842939,-0.16170516252668377
1781551376363595008,2.8380231857299805,-0.1277754157781601,-0.26254087686538696,-0.07991167157888412,-0.703501284122467,0.4829763174057007,-0.5213634371757507,0.01757293939590454,-0.032567381858825684,-0.021544218063354492,-0.8711961883440325,0.25751236568850994,0.41593948583437695,-0.041218414248399456,-0.5040505807876109,-0.9330168339829366,-0.16335116707794545
1781551376373629952,2.8480582237243652,-0.1422337144613266,-0.2693822681903839,-0.07080472260713577,-0.7052512168884277,0.48312196135520935,-0.5188582539558411,0.019704341888427734,-0.03274354338645935,-0.020524680614471436,-0.870489849629599,0.25787491159957004,0.41721864683997906,-0.040946139834154696,-0.5042169333917702,-0.936505673720037,-0.16509542392792945
1781551376383663872,2.8580920696258545,-0.14236953854560852,-0.27720263600349426,-0.055441487580537796,-0.7069500684738159,0.48341724276542664,-0.5162648558616638,0.017023921012878418,-0.025668799877166748,-0.03108316659927368,-0.8697551900709386,0.25830917715706436,0.41850200831580936,-0.040723501811200775,-0.5045541886417381,-0.9400420479057354,-0.16683236102085364
1781551376393698048,2.868126153945923,-0.1107674092054367,-0.28737255930900574,-0.0930975154042244,-0.7088420391082764,0.48350343108177185,-0.5135828256607056,0.016077816486358643,-0.02290165424346924,-0.030240356922149658,-0.8689947715832025,0.2586320363570172,0.41990242806274847,-0.040489936155140314,-0.5046526504951425,-0.9437911688093693,-0.16853605470354666
1781551376403731968,2.878160238265991,-0.09389922022819519,-0.2623404562473297,-0.07563729584217072,-0.7106615900993347,0.4834004342556,-0.5111595392227173,0.003599822521209717,-0.016756147146224976,-0.033914923667907715,-0.8683076631361035,0.2588235520792035,0.42122512927222866,-0.040267639325187086,-0.5045349983996443,-0.947252393692225,-0.17001675083582501
1781551376413765888,2.8881940841674805,-0.09190371632575989,-0.22787462174892426,-0.06541235744953156,-0.7122215032577515,0.4833762049674988,-0.5090069770812988,-0.003095269203186035,-0.004418045282363892,-0.031077861785888672,-0.8676960525717683,0.259025273662027,0.4223770929682097,-0.04008951650505627,-0.5045073213277749,-0.9502890119424633,-0.17131827355658624
1781551376423800832,2.8982291221618652,-0.06801381707191467,-0.19928959012031555,-0.05973423644900322,-0.7136096358299255,0.48333683609962463,-0.507096529006958,-0.007856428623199463,-0.002425581216812134,-0.025740385055541992,-0.8671524755958604,0.2591923022723353,0.42340417958794374,-0.03993622697184972,-0.5044623398467022,-0.9529865242982567,-0.17245359439196845
1781551376433835008,2.9082632064819336,-0.06303903460502625,-0.16962449252605438,-0.04240584373474121,-0.714762270450592,0.48328739404678345,-0.5055177807807922,-0.006108701229095459,-0.01922181248664856,-0.02457249164581299,-0.8667025463505187,0.2593159837472962,0.4242597369182343,-0.039819638919536146,-0.5044058681225313,-0.9552191025924933,-0.17336012993105954
1781551376443868928,2.918297052383423,-0.05851832404732704,-0.13299910724163055,-0.04590151086449623,-0.7157452702522278,0.4832663834095001,-0.5041450262069702,-0.004011750221252441,-0.02057415246963501,-0.02113872766494751,-0.8663121155254967,0.2594479881932652,0.4249873102029797,-0.03969591500315663,-0.5043818871275716,-0.9571476347051773,-0.17421020400310613
1781551376453902848,2.928331136703491,-0.06657704710960388,-0.09834286570549011,-0.045014411211013794,-0.7165489792823792,0.4832404553890228,-0.5030269622802734,-0.008258700370788574,-0.017328619956970215,-0.026605546474456787,-0.8659974382352842,0.25958764553585173,0.4255593648374416,-0.03951971678228038,-0.5043522484102344,-0.9587203860402144,-0.17507242003892148
1781551376463937024,2.9383652210235596,-0.0733872801065445,-0.06604591012001038,-0.035578832030296326,-0.7171512246131897,0.4832957684993744,-0.5021148324012756,-0.009548604488372803,-0.02029833197593689,-0.027426183223724365,-0.8657438233453781,0.2597814983495874,0.4259767224114066,-0.03930651619627126,-0.5044154530300041,-0.9599684046714578,-0.1759730555885533
1781551376473972480,2.9484007358551025,-0.09651976823806763,-0.04996348172426224,-0.043035149574279785,-0.7176214456558228,0.4834184944629669,-0.5013241767883301,-0.0037682652473449707,-0.023762762546539307,-0.031039655208587646,-0.8655283740058136,0.2600436431607018,0.4262806679869795,-0.03902147450090357,-0.5045556441821576,-0.9610163430128013,-0.17702161428343308
1781551376484007424,2.958435535430908,-0.09484757483005524,-0.04712614789605141,-0.048690106719732285,-0.7180770635604858,0.4835539758205414,-0.5005404949188232,0.0028061270713806152,-0.026477009057998657,-0.03386801481246948,-0.8653173518052758,0.2603422136139171,0.42655795942186,-0.03867788558122202,-0.5047104229402146,-0.9620483987919192,-0.1782092580011318
1781551376494041344,2.9684696197509766,-0.11767005920410156,-0.044056590646505356,-0.05474613606929779,-0.7185623645782471,0.48368343710899353,-0.4997183382511139,0.008921921253204346,-0.026224970817565918,-0.04305204749107361,-0.8650975321256262,0.2606663129106946,0.42684177622032077,-0.03828101339422217,-0.5048583185958329,-0.9631360950824326,-0.17953380377182168
1781551376504075520,2.978503704071045,-0.11255599558353424,-0.038990724831819534,-0.05523988604545593,-0.7190367579460144,0.4838610589504242,-0.49886319041252136,0.00916743278503418,-0.01680484414100647,-0.027595549821853638,-0.8648694632636088,0.26104079154183896,0.42711368907567115,-0.037845470188825295,-0.5050612630980975,-0.9642477870679685,-0.18098568666903017
1781551376514109440,2.988537549972534,-0.09320174157619476,-0.03238421678543091,-0.05998803302645683,-0.7194822430610657,0.4839378893375397,-0.49814584851264954,0.005493044853210449,-0.01903313398361206,-0.03220382332801819,-0.8646803488871672,0.2613392536550921,0.42735099009377125,-0.03742596616631965,-0.5051490519938219,-0.9652114982668583,-0.18229440424999913
1781551376524143360,2.9985716342926025,-0.07540516555309296,-0.03882374241948128,-0.057418350130319595,-0.7199296951293945,0.4839300215244293,-0.49750691652297974,0.008244514465332031,-0.019391417503356934,-0.032522380352020264,-0.8645124156110711,0.26156696469402857,0.4275853926995688,-0.037038488154975596,-0.5051400571132642,-0.9661028240643562,-0.18345531770524906
1781551376534178560,3.0086066722869873,-0.06643590331077576,-0.04009699821472168,-0.055363453924655914,-0.7203981280326843,0.4838644862174988,-0.49689221382141113,0.01046764850616455,-0.005684554576873779,-0.026057004928588867,-0.864349776907899,0.26174294467900333,0.4278370354749831,-0.036684035421253695,-0.5050651873591999,-0.966984988706945,-0.18450184436837172
1781551376544212480,3.0186407566070557,-0.06091916188597679,-0.025576647371053696,-0.047967590391635895,-0.7208106517791748,0.4837937653064728,-0.4963623583316803,0.007996320724487305,0.001023709774017334,-0.026342719793319702,-0.8642095943228748,0.2618898344572854,0.4280566993666904,-0.03637175353718612,-0.5049843693578652,-0.9677509756819465,-0.1854127563453183
1781551376554246400,3.028674602508545,-0.05640536919236183,-0.013316384516656399,-0.03507602587342262,-0.7211188673973083,0.48377877473831177,-0.495929092168808,0.0022162795066833496,-0.006819546222686768,-0.02433454990386963,-0.864096646330703,0.2620554019754605,0.4282083777307526,-0.036076330685210004,-0.5049672316880887,-0.9683584325824757,-0.18627132917035358
1781551376564280576,3.0387086868286133,-0.06203875690698624,-0.011623146943747997,-0.027322765439748764,-0.7213326692581177,0.48382240533828735,-0.49557533860206604,3.457069396972656e-05,-0.02917158603668213,-0.02238425612449646,-0.864004999666326,0.2622325702137101,0.4283064485991617,-0.03581770841620264,-0.5050171099645804,-0.9688299584929718,-0.18704014020055315
1781551376574314240,3.0487425327301025,-0.07146582007408142,-0.009825114160776138,-0.025946708396077156,-0.7215011715888977,0.4839482605457306,-0.4952071011066437,0.0015305280685424805,-0.03523308038711548,-0.023637503385543823,-0.863908543275094,0.26245219210759163,0.4283868517561361,-0.03557400694474539,-0.5051609068234543,-0.9692858018307324,-0.18782087601349387
1781551376584349440,3.0587775707244873,-0.0878881961107254,-0.0054969447664916515,-0.0173694659024477,-0.7216309905052185,0.48416468501091003,-0.49480628967285156,0.003399789333343506,-0.030307263135910034,-0.022787094116210938,-0.8638031515052452,0.2627348206670634,0.4284475060110366,-0.035316280196598555,-0.5054082346542149,-0.9697474316737915,-0.18869243697428492
1781551376594383360,3.0688116550445557,-0.09859223663806915,0.0023440667428076267,-0.01080797053873539,-0.7216916084289551,0.48450714349746704,-0.4943825602531433,0.003384113311767578,-0.023050814867019653,-0.02572852373123169,-0.8636911254471581,0.26309489481036435,0.4284737947241686,-0.03505661036169226,-0.505799662008744,-0.9701861083156248,-0.18964031406563675
1781551376604417536,3.078845739364624,-0.11316132545471191,-0.0006535877473652363,-0.007939212955534458,-0.7217156291007996,0.48497700691223145,-0.4938863217830658,0.002462148666381836,-0.02277308702468872,-0.027887940406799316,-0.8635584558343751,0.26354283104484055,0.42848805566454257,-0.03478244449794005,-0.5063368726703913,-0.9706697787341289,-0.1907154541969789
1781551376614451456,3.0888795852661133,-0.1176769882440567,-0.0035878578200936317,-0.009185572154819965,-0.7217535376548767,0.4854825735092163,-0.4933341145515442,0.004529416561126709,-0.02945840358734131,-0.02370995283126831,-0.8634100191157535,0.26402005968333503,0.4285164526801175,-0.03449978807152233,-0.5069150821947676,-0.9712155218779992,-0.1918520834220106
1781551376624485376,3.0989136695861816,-0.11765886843204498,-0.012793607078492641,-0.011545931920409203,-0.7218388319015503,0.4859776198863983,-0.49272143840789795,0.010718286037445068,-0.029983967542648315,-0.02732861042022705,-0.8632442410101583,0.2645007089449651,0.4285774708398943,-0.034206397310463627,-0.5074814039124312,-0.9718493382028263,-0.19303487011899068
1781551376634520576,3.1089487075805664,-0.10264530777931213,-0.015393517911434174,-0.01797293871641159,-0.7219774127006531,0.4863978326320648,-0.49210354685783386,0.0110093355178833,-0.019143223762512207,-0.02495574951171875,-0.8630765895064073,0.2649331304562712,0.4286708031225459,-0.03392192597298149,-0.5079623008500843,-0.9725228234241499,-0.1941632216497506
1781551376644554496,3.1189825534820557,-0.09417405724525452,-0.011853910982608795,-0.018177470192313194,-0.7221278548240662,0.48675093054771423,-0.49153319001197815,0.010381698608398438,-0.008509963750839233,-0.03014954924583435,-0.8629223615255766,0.2653219689181242,0.4287629392724349,-0.033639099271720284,-0.5083664428379447,-0.9731593790501291,-0.19523526867358065
1781551376654588416,3.129016637802124,-0.07854503393173218,-0.006015861872583628,-0.02018602564930916,-0.7222570180892944,0.4870382845401764,-0.49105870723724365,0.005017578601837158,-0.009560227394104004,-0.029250741004943848,-0.8627948408967482,0.26565138149944295,0.42883561820186733,-0.033384572810147825,-0.5086954245270939,-0.973691673062511,-0.19616901941521506
1781551376664622592,3.1390507221221924,-0.07221895456314087,-0.010788513347506523,-0.02602420747280121,-0.7223905920982361,0.4872213900089264,-0.4906802475452423,0.004083156585693359,-0.02191990613937378,-0.02405974268913269,-0.8626949093790344,0.26591294204055405,0.42889414289163713,-0.03312929501322251,-0.508905120101087,-0.9741360681343101,-0.19701261031837047
1781551376674656512,3.1490845680236816,-0.08261486887931824,-0.015407366678118706,-0.02826792001724243,-0.7225816249847412,0.4873843491077423,-0.4902369976043701,0.006898641586303711,-0.02463105320930481,-0.022168397903442383,-0.8625765359908517,0.2661703639005105,0.42899281121555083,-0.03286735880378651,-0.5090917119951835,-0.9746789107509534,-0.19788955260771202
1781551376684690432,3.15911865234375,-0.10041756927967072,-0.01832805573940277,-0.028000272810459137,-0.7227928638458252,0.48761966824531555,-0.4896913170814514,0.008925676345825195,-0.020700722932815552,-0.022149503231048584,-0.8624298579729218,0.2664982499760698,0.4291072409799145,-0.03256477419412807,-0.5093612211254777,-0.9753319919679156,-0.1989406934052312
1781551376694725632,3.1691536903381348,-0.12707874178886414,-0.004156576003879309,-0.023057978600263596,-0.7229658961296082,0.48797738552093506,-0.48907917737960815,0.005070388317108154,-0.02615487575531006,-0.024272263050079346,-0.8622652869565346,0.266924257120382,0.4291990877605323,-0.03222086143990759,-0.509770994735346,-0.9760237775094799,-0.20017728943446852
1781551376704759296,3.179187536239624,-0.1441378891468048,0.010900670662522316,-0.01880837231874466,-0.7230404019355774,0.48848387598991394,-0.48846301436424255,0.0014827847480773926,-0.03819701075553894,-0.027802884578704834,-0.8621010510878391,0.26746087554465847,0.4292239181993852,-0.03183334968939869,-0.5103513712046942,-0.9766565160252447,-0.20159126866810098
1781551376714793472,3.1892216205596924,-0.16158825159072876,0.02509731613099575,-0.008753341622650623,-0.7230181694030762,0.48911240696907043,-0.48786666989326477,-0.0002484321594238281,-0.039069682359695435,-0.03616595268249512,-0.8619435397080996,0.26808490709210914,0.4291819492256591,-0.031413593250981135,-0.5110718321258159,-0.9772087849432312,-0.20313306681089446
1781551376724827648,3.1992557048797607,-0.16757529973983765,0.030470775440335274,-0.012960603460669518,-0.7229209542274475,0.48983997106552124,-0.4872802197933197,0.00043255090713500977,-0.02788013219833374,-0.03238832950592041,-0.8617890743398368,0.26877523812695575,0.42909178167306133,-0.030978028922769928,-0.5119061748249278,-0.977704008715783,-0.20475757571260975
1781551376734861312,3.20928955078125,-0.17890357971191406,0.034291479736566544,-0.008805273100733757,-0.7228068709373474,0.4905996322631836,-0.48668479919433594,0.002393662929534912,-0.02537447214126587,-0.030237138271331787,-0.8616329189766283,0.2695008359315705,0.42898355960472395,-0.030511711901678885,-0.512777753399976,-0.9781974171637443,-0.20647440463829944
1781551376744896512,3.2193245887756348,-0.17050397396087646,0.03732002526521683,-0.012272975407540798,-0.7226778268814087,0.4913591146469116,-0.48611000180244446,0.004797637462615967,-0.02650013566017151,-0.027348250150680542,-0.8614823592266606,0.2702220770862017,0.42886482061960457,-0.030051444395672505,-0.5136495570290314,-0.9786621333783638,-0.20816932448712713
1781551376754930432,3.229358673095703,-0.16132912039756775,0.040562957525253296,-0.01156377512961626,-0.7225448489189148,0.49207478761672974,-0.4855835437774658,0.00648045539855957,-0.021920979022979736,-0.03075861930847168,-0.8613457729188935,0.270917011468769,0.42873325904213755,-0.029585244707009756,-0.5144714672371428,-0.9790786742282173,-0.20983632312278966
1781551376764964608,3.2393927574157715,-0.1356796771287918,0.03997333347797394,-0.02024940960109234,-0.7224256992340088,0.492664635181427,-0.48516252636909485,0.006300210952758789,-0.014072716236114502,-0.02757859230041504,-0.8612386134810699,0.2715176219495725,0.42859879278079493,-0.02914348623804671,-0.5151491486766484,-0.9794038562076335,-0.21133897359781406
1781551376774998528,3.2494266033172607,-0.10863955318927765,0.0314130038022995,-0.03083760477602482,-0.7223751544952393,0.49306151270866394,-0.48483458161354065,0.009698152542114258,-0.01198241114616394,-0.02577030658721924,-0.8611578484225393,0.2719902564224381,0.4284903854284039,-0.028715275866578103,-0.515605277371683,-0.9796843784822513,-0.21267409958018513
1781551376785032448,3.259460687637329,-0.09406407177448273,0.024108484387397766,-0.0384792797267437,-0.7224041819572449,0.4932803213596344,-0.48456868529319763,0.013312935829162598,-0.0096072256565094,-0.02232825756072998,-0.8610939361406259,0.2723396663321177,0.42842357901203076,-0.028313398036683174,-0.5158567887076666,-0.9799567641866461,-0.21383271145914642
1781551376795067648,3.269495725631714,-0.10237579047679901,0.026165910065174103,-0.04211875796318054,-0.7224786877632141,0.4934585392475128,-0.4842758774757385,0.013402819633483887,-0.007298290729522705,-0.020851045846939087,-0.8610224111887755,0.2726739355438999,0.4283818268748456,-0.02789777815685852,-0.5160616772288799,-0.9802840933128741,-0.21501511935170836
1781551376805101312,3.279529571533203,-0.10520939528942108,0.03491545841097832,-0.0465417355298996,-0.7225446105003357,0.49361681938171387,-0.48401615023612976,0.007502496242523193,-0.014292538166046143,-0.02278923988342285,-0.8609614164448101,0.2730109591614055,0.4283187358052738,-0.027448025199116658,-0.5162436542641435,-0.9805743307143263,-0.21625262492548522
1781551376815135488,3.2895636558532715,-0.13180531561374664,0.034793220460414886,-0.04934391379356384,-0.7226120829582214,0.49382442235946655,-0.4837035834789276,0.0042282938957214355,-0.028019368648529053,-0.029022216796875,-0.860886730814864,0.27341018172586357,0.42824651179697903,-0.026940116669441284,-0.5164823858514602,-0.980916156194167,-0.21767328265896999
1781551376825169664,3.29959774017334,-0.17136098444461823,0.037184737622737885,-0.047978777438402176,-0.7226675748825073,0.49419230222702026,-0.4832448959350586,0.0031546354293823242,-0.036367565393447876,-0.031479835510253906,-0.8607717620588121,0.27395461693424256,0.4281663390972049,-0.02635364982951048,-0.5169054903245814,-0.9813901275716944,-0.2194211083964541
1781551376835203328,3.309631586074829,-0.2093038409948349,0.035198818892240524,-0.055607136338949203,-0.7227346897125244,0.4947219491004944,-0.48260223865509033,0.006410837173461914,-0.043077051639556885,-0.027148127555847168,-0.8606057519727688,0.2746572791514129,0.4280914219521386,-0.025670528740611404,-0.5175148384332908,-0.982047791069997,-0.22155632050371002
1781551376845238528,3.319666624069214,-0.24411161243915558,0.018609723076224327,-0.06147674098610878,-0.7228845357894897,0.49537181854248047,-0.4817102551460266,0.010405957698822021,-0.04629039764404297,-0.02781122922897339,-0.8603692071479728,0.2754940554075933,0.4280746448782558,-0.02490059028046891,-0.518262815389075,-0.982997540186386,-0.22406523106777448
1781551376855272448,3.3297007083892822,-0.24030701816082,-0.00010657403618097305,-0.06713782250881195,-0.7231417894363403,0.49608179926872253,-0.4805923104286194,0.014294743537902832,-0.038608044385910034,-0.027189671993255615,-0.8600673072445216,0.2764028111621084,0.42814171558066366,-0.024094528358945027,-0.5190802930013847,-0.984233264093317,-0.22679085965711884
1781551376865306368,3.3397345542907715,-0.2635476589202881,-0.010804225690662861,-0.07416084408760071,-0.7235190868377686,0.496756911277771,-0.47932538390159607,0.01587742567062378,-0.03079921007156372,-0.03196614980697632,-0.8597218461462078,0.27731685831205355,0.4282903954443448,-0.023262489532358675,-0.5198580253045819,-0.9856896339561785,-0.22962890831702457
1781551376875340544,3.34976863861084,-0.25670358538627625,-0.028730228543281555,-0.08498925715684891,-0.7239893674850464,0.49743688106536865,-0.4779079258441925,0.015249133110046387,-0.023331046104431152,-0.023602664470672607,-0.8593328914859086,0.27827122323661757,0.4284987317400496,-0.022382388037079395,-0.5206416590387928,-0.9873512121633874,-0.23265201980442513
1781551376885374464,3.359802722930908,-0.25400739908218384,-0.051295727491378784,-0.10016847401857376,-0.724614679813385,0.49795955419540405,-0.4764134883880615,0.01500469446182251,-0.025349080562591553,-0.027355432510375977,-0.8589204888760854,0.27914138297879426,0.42880455566701114,-0.02150052580169221,-0.5212442686097692,-0.9891866594351985,-0.23563822491365427
1781551376895408384,3.3698365688323975,-0.25786951184272766,-0.07991219311952591,-0.09261015802621841,-0.7254143357276917,0.49847501516342163,-0.4746543765068054,0.016292572021484375,-0.02203458547592163,-0.03880387544631958,-0.8584301965222131,0.2800347866009989,0.42924740706357617,-0.020610920952221536,-0.5218387535258849,-0.9913889712877386,-0.23876150839236898
1781551376905443328,3.3798716068267822,-0.22581037878990173,-0.08141022175550461,-0.08745560795068741,-0.7262507677078247,0.49895456433296204,-0.4728679060935974,0.013817965984344482,-0.015769779682159424,-0.0173664391040802,-0.8579282271786134,0.28085968935455474,0.42974862947790116,-0.019825137328921792,-0.5223920277954632,-0.9936423991179647,-0.24164119285272187
1781551376915477504,3.3899056911468506,-0.1663779467344284,-0.08023630082607269,-0.08296578377485275,-0.7270551323890686,0.4992592930793762,-0.47130781412124634,0.010471880435943604,-0.01538783311843872,-0.028142869472503662,-0.8574892174132803,0.28151521501579707,0.43022699754266164,-0.019137307608460326,-0.5227436948100262,-0.9956578034201395,-0.244104589068863
1781551376925511424,3.39993953704834,-0.14831718802452087,-0.08200836926698685,-0.0718633309006691,-0.7278317213058472,0.4993833899497986,-0.46997585892677307,0.006838679313659668,-0.003442227840423584,-0.02524811029434204,-0.8571132237369062,0.2819843427386663,0.4306935059965577,-0.018572801899177264,-0.5228869201072207,-0.9974354211051042,-0.24608691793194562
1781551376935545344,3.409973621368408,-0.11809270083904266,-0.07065131515264511,-0.053503237664699554,-0.7284921407699585,0.4995706081390381,-0.46875205636024475,0.0041574835777282715,0.010301798582077026,-0.020902514457702637,-0.8567655578139949,0.28241885715958503,0.43111896369206293,-0.018135508158572705,-0.5231030439159685,-0.9990357871096772,-0.2477573115030068
1781551376945579520,3.4200077056884766,-0.10136193037033081,-0.04447510093450546,-0.04695825278759003,-0.7290059328079224,0.49970582127571106,-0.46780821681022644,0.0006428956985473633,0.0034222304821014404,-0.018367350101470947,-0.8564981064734453,0.2827716376234253,0.4314349303705541,-0.017753628012506715,-0.5232591132128562,-1.0002731136169454,-0.2491458995709356
1781551376955614464,3.4300427436828613,-0.05921207740902901,-0.033483438193798065,-0.03977277874946594,-0.7293907403945923,0.4997578561306,-0.46715211868286133,-0.0023444294929504395,-0.010667949914932251,-0.024928539991378784,-0.8563126463293628,0.28301051125406695,0.43165842492299317,-0.017452340491624623,-0.5233191981360835,-1.0011505380521943,-0.2501736605158919
1781551376965648384,3.4400765895843506,-0.07531221210956573,-0.03116355836391449,-0.0320671871304512,-0.7297024726867676,0.4997999668121338,-0.46661999821662903,0.0014920830726623535,-0.012083321809768677,-0.03399035334587097,-0.8561625004035661,0.28321057762454926,0.4318353526742534,-0.01719569088473206,-0.5233678128227992,-1.0018619847799262,-0.2510360974617738
1781551376975682560,3.450110673904419,-0.07599052786827087,-0.035445522516965866,-0.027801601216197014,-0.730003833770752,0.49992606043815613,-0.4660133719444275,0.006584644317626953,-0.006990879774093628,-0.02437359094619751,-0.8559904179768947,0.28346277942681597,0.4320210302313934,-0.016947352970880077,-0.523513412844721,-1.0026395549571225,-0.2519567000987012
1781551376985716480,3.4601447582244873,-0.04863107204437256,-0.03963414207100868,-0.03137023746967316,-0.7303283214569092,0.4999885559082031,-0.4654373526573181,0.010311901569366455,-0.013797789812088013,-0.026460200548171997,-0.8558262022209598,0.2836549934946818,0.43222813870088356,-0.016738628059957274,-0.5235855702030505,-1.003401788745668,-0.25273824463457667
1781551376995750400,3.4701786041259766,-0.0314323753118515,-0.05247550457715988,-0.028288958594202995,-0.7306910157203674,0.49994030594825745,-0.4649198055267334,0.012383580207824707,-0.01753365993499756,-0.0318300724029541,-0.8556779394378884,0.2837458152872502,0.43246782137644174,-0.016591102131586346,-0.5235298467567293,-1.0041308312712498,-0.2532928038709116
1781551377005785344,3.4802136421203613,-0.020561618730425835,-0.07047155499458313,-0.036186832934617996,-0.7311217784881592,0.4998243451118469,-0.4643668234348297,0.013165175914764404,-0.006309330463409424,-0.0285378098487854,-0.8555182930651624,0.2837779629364342,0.4327662838804027,-0.01648680533932397,-0.5233959572567988,-1.0049364403778778,-0.25372716578341026
1781551377015819520,3.4902477264404297,0.00020757480524480343,-0.09665469080209732,-0.039547741413116455,-0.7316932082176208,0.49959731101989746,-0.4637105464935303,0.017322540283203125,0.00023481249809265137,-0.02876684069633484,-0.8553277595760702,0.28373477013326937,0.4331735299588214,-0.016419362284842576,-0.5231338594065307,-1.0059296259234052,-0.2540640774223742
1781551377025853440,3.500281572341919,0.03098146617412567,-0.11387202143669128,-0.03602837398648262,-0.7323834300041199,0.4992220997810364,-0.46302464604377747,0.020805060863494873,-0.002792656421661377,-0.03424406051635742,-0.8551268923885287,0.28356064694502436,0.433683111356287,-0.016442219644866352,-0.5227007616417354,-1.0070246989387666,-0.2541252212720035
1781551377035887360,3.5103156566619873,0.06221528723835945,-0.11727780848741531,-0.031044533476233482,-0.7330808639526367,0.4987506866455078,-0.46242862939834595,0.01567363739013672,-0.0059223175048828125,-0.029880940914154053,-0.8549502043078964,0.2832696424414298,0.4342165218217271,-0.0165675596328527,-0.52215680056195,-1.008035869964245,-0.2538546956020922
1781551377045921536,3.5203497409820557,0.09047168493270874,-0.11871272325515747,-0.02794860675930977,-0.7337721586227417,0.4981600046157837,-0.4619687795639038,0.009895145893096924,-0.0007845163345336914,-0.02474081516265869,-0.854811722341288,0.2828541965548344,0.43475178988334473,-0.016774899541690865,-0.5214754277566068,-1.0089098191291417,-0.25326714797779154
1781551377055956480,3.5303845405578613,0.10274860262870789,-0.11646061390638351,-0.01682298630475998,-0.7344271540641785,0.49753350019454956,-0.4616028964519501,0.008475005626678467,0.0037176907062530518,-0.02832627296447754,-0.8546992271307032,0.2823736704311057,0.4352742301668525,-0.01705177569221697,-0.520753055424088,-1.0096690406559172,-0.25245463077507885
1781551377065990400,3.5404186248779297,0.12303122878074646,-0.10628973692655563,-0.009892375208437443,-0.7350096702575684,0.4968907833099365,-0.4613678455352783,0.007424890995025635,-0.0005986690521240234,-0.025128096342086792,-0.8546231809908161,0.2818312434385068,0.43576052067513205,-0.0174083506206029,-0.5200122532376555,-1.0102555687304455,-0.251387329561273
1781551377076024576,3.550452709197998,0.10595797002315521,-0.11379798501729965,-0.0046744439750909805,-0.7355350852012634,0.49631285667419434,-0.4611526429653168,0.003952503204345703,-0.007680624723434448,-0.031599462032318115,-0.8545528392224653,0.28132129870529377,0.4362132589578791,-0.01777229269895868,-0.5193464269344945,-1.0107873046093248,-0.25032722043282374
