time,seconds_elapsed,rotationRateX,rotationRateY,rotationRateZ,gravityX,gravityY,gravityZ,accelerationX,accelerationY,accelerationZ,quaternionW,quaternionX,quaternionY,quaternionZ,pitch,roll,yaw
1781555839710344192,0.05679202079772949,-0.02413560263812542,-0.0038540870882570744,-0.0026989004109054804,0.2546611428260803,-0.34640827775001526,-0.9028560519218445,-0.0029063820838928223,-0.005978196859359741,0.007668673992156982,-0.45494218571372624,0.03265123574242217,-0.21795842360832732,-0.8628185046007879,0.3537395928728841,0.2749195257742961,2.1216958483652095
1781555839720379136,0.06682705879211426,-0.04334525018930435,0.005411849357187748,-0.0036533770617097616,0.2546767294406891,-0.3461107313632965,-0.9029657244682312,-0.0023421645164489746,-0.0016980767250061035,0.017513513565063477,-0.45495422908984895,0.03272876251722161,-0.21782093806903347,-0.8628438203755232,0.35342242204116847,0.27490378067755694,2.1217461239115716
1781555839730415104,0.07686305046081543,-0.05301465839147568,0.023963164538145065,0.00686371186748147,0.2547653317451477,-0.3456416428089142,-0.9031203985214233,-0.008137524127960205,-0.007584065198898315,0.01489102840423584,-0.4549310493055365,0.032890248269476,-0.2176189942400268,-0.8629008768776687,0.35292249535355796,0.2749498972879621,2.1219056956886644
1781555839740450048,0.0868980884552002,-0.03786979243159294,0.03854876384139061,0.007822716608643532,0.2550544738769531,-0.34513989090919495,-0.9032306671142578,-0.011936187744140625,-0.008421510457992554,0.011308670043945312,-0.45485753262582895,0.033162179735568925,-0.21745098592073983,-0.8629715721952796,0.352387844677174,0.2752145108251819,2.122134898180351
1781555839750485248,0.09693312644958496,0.0018360763788223267,0.030685381963849068,-0.001582503318786621,0.2553635835647583,-0.34502387046813965,-0.9031876921653748,-0.006416440010070801,-0.0061571598052978516,0.002964913845062256,-0.4548087340301651,0.03334144410669178,-0.2174730102460776,-0.8629848544738505,0.35226421474960784,0.27554388692182363,2.1221940799249386
1781555839760520192,0.10696816444396973,0.014052527956664562,0.02342107705771923,0.005293778609484434,0.2556053698062897,-0.3450726866722107,-0.9031006097793579,0.002329200506210327,0.0012616515159606934,-0.00505673885345459,-0.45477870713756335,0.03344513315262327,-0.21755713927080397,-0.862975483686269,0.35231622701006005,0.2758170232787161,2.1221826638410093
1781555839770555136,0.11700320243835449,0.04096643254160881,0.028817571699619293,0.008005942218005657,0.2558060884475708,-0.34535810351371765,-0.9029346704483032,0.0033034086227416992,0.02017804980278015,-0.0005687475204467773,-0.45471394207598154,0.03348073619001559,-0.2177422903193096,-0.862961450425874,0.35262032608216254,0.2760709685794214,2.1221969757697705
1781555839780590336,0.12703824043273926,0.024977348744869232,0.01255231723189354,0.0019453861750662327,0.25598275661468506,-0.34568142890930176,-0.9027608633041382,0.0005327463150024414,0.026391267776489258,-0.003992676734924316,-0.454684487216621,0.03348732452817427,-0.2179407290139483,-0.8629267676563538,0.3529649013923643,0.2763026061887004,2.122126071957581
1781555839790626304,0.13707423210144043,0.011652487330138683,0.016947997733950615,0.003066044533625245,0.2560957968235016,-0.3458629846572876,-0.9026592969894409,-0.003730684518814087,0.014030098915100098,-0.002995610237121582,-0.4546597175218283,0.03349930202004065,-0.2180554008478799,-0.8629103990065107,0.35315837069296024,0.2764480623049259,2.1221012068991594
1781555839800660992,0.1471090316772461,-0.0023293739650398493,0.019938461482524872,-0.002617673948407173,0.25626340508461,-0.3459279537200928,-0.902586817741394,-0.007392555475234985,-0.0030100345611572266,0.00027358531951904297,-0.45464382033320394,0.03356224484727231,-0.21812881576953524,-0.8628976342539849,0.3532276087810388,0.2766409881426538,2.122072591074336
1781555839810696192,0.15714406967163086,-0.010865604504942894,0.01575237140059471,0.004030108451843262,0.2564229965209961,-0.34587109088897705,-0.9025632739067078,-0.010741233825683594,-0.004943728446960449,-0.00028401613235473633,-0.4546251171910084,0.03365244246449387,-0.21814189220113642,-0.8629007219094614,0.35316702671678724,0.2768114704668997,2.122087269059148
1781555839820731136,0.16717910766601562,0.006527767051011324,0.013081220909953117,0.0034447459038347006,0.2565189003944397,-0.3458954095840454,-0.9025266766548157,-0.007510721683502197,0.01349794864654541,0.003631412982940674,-0.4545883751171616,0.03369863837745002,-0.21817666941425085,-0.862909496797276,0.3531929467519826,0.27692044563758955,2.122138801200935
1781555839830766080,0.1772141456604004,-0.007524935062974691,0.006724388338625431,0.00646929768845439,0.25657856464385986,-0.34593573212623596,-0.9024942517280579,-0.001024395227432251,0.01904672384262085,0.006223559379577637,-0.45455246670647936,0.033724451781367216,-0.21820981714046658,-0.8629190155752645,0.3532359134680232,0.27699105044993116,2.122194020769672
1781555839840802304,0.18725013732910156,-0.019421275705099106,0.005803201347589493,0.009441119618713856,0.2566002607345581,-0.3458111882209778,-0.9025358557701111,-0.006432384252548218,0.002488434314727783,0.007852017879486084,-0.45451378019767646,0.03377471335920684,-0.21815441210359263,-0.8629514228032185,0.3531031597036818,0.27700116470544967,2.122312400605129
1781555839850837248,0.19728517532348633,-0.02027987875044346,0.011562819592654705,0.0051566255278885365,0.25664880871772766,-0.3456173241138458,-0.9025962948799133,-0.008556157350540161,-0.013940781354904175,0.00518113374710083,-0.45448140389932123,0.033852522341763454,-0.2180730791033488,-0.8629859202221096,0.3528965550151167,0.27703334019816583,2.122427849179136
1781555839860872192,0.2073202133178711,-0.021341945976018906,0.012016089633107185,0.016522197052836418,0.25674185156822205,-0.3454093039035797,-0.902649462223053,-0.006894439458847046,-0.006488889455795288,0.008438646793365479,-0.4544195616354017,0.03396115465174262,-0.21799521602403657,-0.8630339292808019,0.35267490413804164,0.27711318441372246,2.1226033595043137
1781555839870907136,0.21735501289367676,-0.008731347508728504,0.008427612483501434,0.01535866316407919,0.2567652761936188,-0.3453120291233063,-0.902679979801178,-0.002355515956878662,0.009984910488128662,0.009918808937072754,-0.45432866779299835,0.034018612530348484,-0.21795121982442117,-0.8630906038133526,0.3525712549443765,0.2771282882979894,2.122834532915061
1781555839880942080,0.22739005088806152,-0.022435173392295837,0.005844613071531057,0.010580952279269695,0.2567797601222992,-0.34523218870162964,-0.9027064442634583,0.001139521598815918,0.012102335691452026,0.005504906177520752,-0.4542650751783597,0.03406087379602668,-0.2179143171916214,-0.8631317003078677,0.3524861634705941,0.27713545119415567,2.1230000613575917
1781555839890978048,0.2374260425567627,-0.006680712569504976,0.0032024909742176533,0.011462192982435226,0.25676876306533813,-0.34508851170539856,-0.9027644991874695,-0.0010772347450256348,0.0005450546741485596,0.006310641765594482,-0.45420858038138723,0.034105674943054554,-0.21784067970644894,-0.8631783152342364,0.35233309862852435,0.27710725382771645,2.1231743265864305
1781555839901013248,0.24746108055114746,-0.00449052918702364,0.01773402839899063,0.00714973546564579,0.25681272149086,-0.34507131576538086,-0.9027585387229919,-0.004127174615859985,-0.007071018218994141,0.0009946227073669434,-0.4541541196968228,0.034143340066068374,-0.2178415711177286,-0.8632052910675156,0.3523147677266302,0.27715401627268726,2.1232931228737657
1781555839911048192,0.2574961185455322,0.00043232410098426044,0.01634279452264309,0.009819022379815578,0.2569452226161957,-0.3450360596179962,-0.9027343392372131,-0.005022615194320679,0.008625566959381104,0.008233606815338135,-0.45409870222250426,0.034225331691895525,-0.21785653076124747,-0.8632273508593995,0.3522772195480443,0.27729686996907493,2.1233941161862435
1781555839921083136,0.267531156539917,0.014628835953772068,0.017841089516878128,0.013402838259935379,0.2570493221282959,-0.3451690077781677,-0.9026538729667664,-0.0032498836517333984,0.023254334926605225,0.0011188387870788574,-0.4540302587738096,0.03425641514393451,-0.21794394658212546,-0.863240118145863,0.35241886547203793,0.2774270113157902,2.123486635773484
1781555839931118336,0.27756619453430176,0.010686825029551983,0.013068970292806625,0.004838644061237574,0.2571459412574768,-0.34534260630607605,-0.9025599360466003,0.0017499327659606934,0.01843830943107605,-0.007809937000274658,-0.4539848604187052,0.03426830726778731,-0.21804978784274448,-0.8632367514177642,0.3526038156091213,0.2775534313372938,2.1235161683402124
1781555839941154304,0.28760218620300293,-0.009981701150536537,0.010755215771496296,0.0018375281943008304,0.2572360634803772,-0.3453972637653351,-0.902513325214386,0.0005764365196228027,0.001967698335647583,-0.007185161113739014,-0.45395482558336275,0.03430276783661684,-0.21809779833472084,-0.8632390712814082,0.3526620725123487,0.27765941968646163,2.123545299950171
1781555839951189248,0.2976372241973877,-0.04303472861647606,0.005391875747591257,0.0033464753068983555,0.2573016881942749,-0.34515470266342163,-0.9025874137878418,-0.0021289587020874023,-0.007460653781890869,-0.0004124641418457031,-0.4539319249198651,0.03439776028996255,-0.21799789023958083,-0.8632725569116964,0.35240361929616143,0.27770501498186845,2.1236477644506744
1781555839961224192,0.30767202377319336,-0.04382861405611038,0.0105424290522933,0.0022609708830714226,0.2573496997356415,-0.3447076082229614,-0.9027445912361145,-0.0060374438762664795,-0.0026892423629760742,0.007282555103302002,-0.45390447060978484,0.03453644261093394,-0.21779562728342058,-0.8633325174229278,0.35192727917632766,0.2777082853630429,2.123822872491566
1781555839971259136,0.3177070617675781,-0.02865285612642765,0.018262401223182678,0.002494796412065625,0.25745755434036255,-0.34440192580223083,-0.9028305411338806,-0.009090274572372437,0.009364724159240723,0.0023788809776306152,-0.45387385809182335,0.03466783130817013,-0.217676102937061,-0.8633735102062845,0.35160165443497754,0.2777936982689445,2.1239490384485564
1781555839981294080,0.3277420997619629,-0.025062914937734604,0.024692337960004807,0.011751411482691765,0.25761133432388306,-0.34417468309402466,-0.9028732776641846,-0.011273443698883057,0.017194092273712158,0.00419163703918457,-0.45381599596495353,0.03480728039194286,-0.21760470351771172,-0.8634162998127296,0.3513596355236862,0.27793870732655135,2.1241035060131925
1781555839991330048,0.33777809143066406,-0.020740071311593056,0.021114379167556763,0.011409462429583073,0.25777214765548706,-0.3439854383468628,-0.9028995037078857,-0.00925225019454956,0.007666468620300293,0.005362272262573242,-0.4537348224288799,0.03494638219721281,-0.21755227289699514,-0.863466525306876,0.3511580621458122,0.2780957320800783,2.124299376076258
1781555840001365248,0.34781312942504883,-0.018402615562081337,0.021229427307844162,0.016102749854326248,0.2579185962677002,-0.3438286781311035,-0.9029173851013184,-0.005919694900512695,-0.004254817962646484,-0.00011301040649414062,-0.45366461559134696,0.03506827492715269,-0.21751211021775824,-0.8635085853947154,0.3509911288425612,0.27824048465150175,2.1244648405334305
1781555840011400192,0.3578481674194336,-0.010907948948442936,0.01569005288183689,0.03428521752357483,0.2580028176307678,-0.34372448921203613,-0.9029330015182495,-0.0008311867713928223,0.0002491474151611328,-0.0011197328567504883,-0.45354118399385845,0.03516273639502368,-0.21747891182251206,-0.8635779320629596,0.3508801673120344,0.27832213665529654,2.1247562635530937
1781555840021435136,0.36788320541381836,-0.025315383449196815,0.013475634157657623,0.06310701370239258,0.2579987049102783,-0.3436976969242096,-0.9029443860054016,0.0033233165740966797,0.006447941064834595,-0.004190623760223389,-0.4533054261418068,0.03522685660223625,-0.21745546015451547,-0.8637049954235416,0.350851633144469,0.27831460253321466,2.1253108310719546
1781555840031470336,0.3779182434082031,-0.021269243210554123,-0.02047780528664589,0.015140816569328308,0.25776493549346924,-0.3436294198036194,-0.9030371308326721,0.011003375053405762,0.012345850467681885,-0.0015801787376403809,-0.45317231494097665,0.03517244203982931,-0.21735762661691516,-0.8638017252585592,0.3507789543122931,0.27804813793178257,2.1257033358970356
1781555840041505024,0.3879530429840088,-0.04111192375421524,-0.01286808867007494,0.06069125607609749,0.25749343633651733,-0.34344756603240967,-0.9031837582588196,0.003004610538482666,0.012041926383972168,-0.00729292631149292,-0.45299777587650936,0.0351394375313993,-0.21719423926091083,-0.8639357377056726,0.3505852925566856,0.2777272957230781,2.12623375482254
1781555840051540992,0.39798903465270996,-0.03379062935709953,-0.009082403965294361,0.0029592516366392374,0.2571643888950348,-0.34316104650497437,-0.9033864140510559,-0.00330391526222229,-0.0015044808387756348,-0.002207458019256592,-0.45290636908843873,0.035085406395762665,-0.21696961170009663,-0.8640422952468664,0.3502802301525746,0.27733123910414037,2.126616522454551
1781555840061576192,0.4080240726470947,-0.04546486213803291,-0.001736341044306755,0.029135728254914284,0.25701043009757996,-0.342801034450531,-0.9035668969154358,-0.014288902282714844,-0.003619253635406494,-0.008054196834564209,-0.45283783228118213,0.035122100949418006,-0.216755620178426,-0.8641304588507817,0.3498969836929749,0.27712102874136535,2.1269179048836286
1781555840071611136,0.4180591106414795,-0.04461318254470825,0.008471288718283176,0.05811890959739685,0.25687235593795776,-0.3425244987010956,-0.9037110209465027,0.012658894062042236,0.021662652492523193,-0.009390175342559814,-0.452651648585922,0.03517482408390014,-0.21658076089924533,-0.8642696797347681,0.3496026125861391,0.27693767328025615,2.127463711089505
1781555840081646080,0.42809414863586426,-0.05635372921824455,-0.11762166023254395,0.13390955328941345,0.25633054971694946,-0.3422594666481018,-0.9039652347564697,0.05594056844711304,0.03432184457778931,0.0011026859283447266,-0.4520371379993917,0.03515084420807615,-0.21629102253385923,-0.8646647475622455,0.3493205491541539,0.2763090437065343,2.1291088061073253
1781555840091681280,0.438129186630249,-0.024270623922348022,-0.12473030388355255,-0.15044841170310974,0.2549854516983032,-0.3419255316257477,-0.9044718742370605,0.10680043697357178,0.05400744080543518,0.009253978729248047,-0.45239784934574445,0.034539651504611676,-0.215803328608545,-0.8646225860041467,0.3489651732131292,0.27478488958398506,2.128738202810563
1781555840101717248,0.4481651782989502,0.02128700539469719,-0.052121352404356,0.03308519348502159,0.2543596029281616,-0.34165868163108826,-0.9047488570213318,-0.02527943253517151,0.03469762206077576,0.0014438033103942871,-0.45275675120578796,0.03423514939844785,-0.21553078687371574,-0.8645147023029419,0.34868121401740465,0.2740639962469759,2.1281535752959235
1781555840111752192,0.45820021629333496,-0.01722496561706066,0.03138113021850586,0.002586409216746688,0.2541692554950714,-0.34189003705978394,-0.9047150015830994,-0.05295160412788391,-0.004102975130081177,0.006552159786224365,-0.45261591106449395,0.034128168508429306,-0.21558706177897619,-0.8645786772768395,0.34892741066998145,0.27387873567074167,2.128468424592074
1781555840121787136,0.4682350158691406,-0.08309639245271683,-0.004314014688134193,-0.020996682345867157,0.25433412194252014,-0.3413398265838623,-0.9048764109611511,-0.04788270592689514,-0.026793718338012695,0.023147284984588623,-0.45266030482225694,0.034326034851016825,-0.2153683504619903,-0.8646021827563891,0.3483419660720753,0.2740011782588761,2.128471477699874
1781555840131822080,0.4782700538635254,-0.10701663792133331,-0.03914856165647507,-0.018985996022820473,0.25416067242622375,-0.3404375910758972,-0.9052649736404419,-0.0016124546527862549,-0.028703033924102783,0.034552693367004395,-0.4527383805219265,0.03445026168826556,-0.21489695646273357,-0.8646736928748457,0.347382235133571,0.27371175663022257,2.1285858099627264
1781555840141857024,0.48830509185791016,-0.11236399412155151,-0.04405064135789871,-0.03274361789226532,0.253856897354126,-0.33933836221694946,-0.9057627320289612,-0.007885217666625977,-0.013627946376800537,0.03311258554458618,-0.4528856145005989,0.03454724664088473,-0.21430145892631128,-0.8647404021462133,0.34621343034532387,0.2732577986300661,2.128628415198867
1781555840151893248,0.49834108352661133,-0.10198086500167847,-0.02278929576277733,-0.013498284853994846,0.2536000609397888,-0.3383183181285858,-0.9062161445617676,-0.04122823476791382,-0.005279093980789185,0.026882648468017578,-0.4530001467776712,0.03465398925277244,-0.21375459707251518,-0.8648114391278134,0.3451292591051561,0.27286496872304966,2.1287112289926227
1781555840161928192,0.5083761215209961,-0.13137231767177582,0.011404894292354584,0.00955457054078579,0.25356748700141907,-0.33726590871810913,-0.9066174626350403,-0.057843029499053955,-0.02088838815689087,0.014375030994415283,-0.45299152157359,0.034899539732539994,-0.21324464586056305,-0.8649321297395388,0.3440111187685881,0.2727167721144329,2.1290261505206427
1781555840171963136,0.5184111595153809,-0.1774926781654358,0.02334757335484028,0.020544903352856636,0.2536698579788208,-0.3358921706676483,-0.9070987105369568,-0.0501633882522583,-0.038070231676101685,0.007043778896331787,-0.4528723610307332,0.035311245488161384,-0.21261174639050576,-0.8651336123868109,0.3425522640046156,0.2726838121062405,2.1296456962485326
1781555840181998336,0.5284461975097656,-0.21536947786808014,0.03045555017888546,0.021798985078930855,0.2538570165634155,-0.3341521620750427,-0.9076887965202332,-0.020885825157165527,-0.042251646518707275,-0.0020249485969543457,-0.4527197498081363,0.0358583003622787,-0.21182489217652858,-0.8653838879372548,0.3407055567216593,0.2727064382659579,2.130416917462167
1781555840192033280,0.5384812355041504,-0.19327083230018616,0.008417625911533833,0.02127886936068535,0.25396186113357544,-0.3323069214820862,-0.9083366394042969,0.0061394572257995605,-0.01667684316635132,-0.007511138916015625,-0.452565554630014,0.03639390841913307,-0.21096719499114314,-0.8656515805842838,0.3387484353996838,0.27262848541565254,2.131240437980639
1781555840202069248,0.5485172271728516,-0.14952175319194794,0.011501566506922245,0.021994460374116898,0.25395792722702026,-0.33079054951667786,-0.9088910818099976,0.020608723163604736,0.021281272172927856,-0.01577627658843994,-0.45243391353291945,0.03679431872602606,-0.2102394970502416,-0.865880491189177,0.3371411752980244,0.272466278750848,2.131951261777324
1781555840212104192,0.5585520267486572,-0.0844372883439064,0.010683976113796234,0.022165969014167786,0.25398311018943787,-0.32976341247558594,-0.909257173538208,0.020385146141052246,0.055791884660720825,-0.020857512950897217,-0.45229757537724574,0.037089170946158656,-0.20975174798097868,-0.8660573884258745,0.33605296450436195,0.2723876131797773,2.1325332494164218
1781555840222139136,0.568587064743042,-0.004463631194084883,0.006793363951146603,0.016203949227929115,0.2539865970611572,-0.329405277967453,-0.9093860387802124,0.022289037704467773,0.0645889937877655,-0.021339058876037598,-0.4521974496097191,0.03720226020319376,-0.2095780656771472,-0.8661469756590572,0.3356736329502644,0.2723544356935148,2.132859168171803
1781555840232174080,0.5786221027374268,0.017233408987522125,0.0006968560628592968,0.030446268618106842,0.2539522349834442,-0.32956159114837646,-0.9093390107154846,0.025314122438430786,0.056383490562438965,-0.01305478811264038,-0.4521033494800516,0.0371715516896864,-0.2096396163385408,-0.8661825358818588,0.33583917861584067,0.27233280579776775,2.1330440392541345
1781555840242209280,0.5886571407318115,0.008349369280040264,-0.010733164846897125,0.03368920087814331,0.2537722885608673,-0.32976463437080383,-0.9093156456947327,0.025631427764892578,0.04473045468330383,-0.003343045711517334,-0.4519643627060626,0.0370750251527763,-0.2096845927431852,-0.8662482308130848,0.33605425338940365,0.272155864321714,2.1333585855741646
1781555840252245248,0.5986931324005127,-0.03520956262946129,-0.011400152929127216,0.024817412719130516,0.25358715653419495,-0.3297409117221832,-0.9093759059906006,0.022352784872055054,0.013212591409683228,-0.007356882095336914,-0.45185853252217106,0.03702340390098177,-0.20962186187841533,-0.8663209136850617,0.33602913776128757,0.27194983287384444,2.133658725021706
1781555840262280192,0.6087281703948975,-0.11481117457151413,-0.027602024376392365,0.031841766089200974,0.25331246852874756,-0.3291395306587219,-0.9096702337265015,0.01696646213531494,-0.002388179302215576,-0.005643486976623535,-0.4517400868026105,0.03707526407078169,-0.20926131903773526,-0.866467555049696,0.3353921773637388,0.27158590819253126,2.1341646915434414
1781555840272315136,0.6187632083892822,-0.1879330575466156,-0.026518918573856354,0.03127744421362877,0.2529371976852417,-0.3278185725212097,-0.9102514982223511,0.0110398530960083,-0.005997955799102783,0.008533358573913574,-0.4516062910585191,0.0372605307963368,-0.208532753597741,-0.8667050161957391,0.3339936401524232,0.2710381796177084,2.134922649631311
1781555840282350080,0.6287980079650879,-0.2613055408000946,-0.014029492624104023,0.03770871087908745,0.25263020396232605,-0.3258626163005829,-0.9110386967658997,-0.00310322642326355,-0.012745171785354614,0.017087280750274658,-0.45144506778743987,0.03763677806067175,-0.20751896257045677,-0.8670159181196037,0.3319239990491392,0.27050238894543044,2.13589033077615
1781555840292385024,0.6388330459594727,-0.3191097378730774,0.005182018969208002,0.04422706365585327,0.2524614632129669,-0.3232698142528534,-0.9120087027549744,-0.013249427080154419,-0.015139609575271606,0.026312291622161865,-0.4512147033956887,0.03824506562614059,-0.20623522349689583,-0.8674155428779585,0.3291827897890208,0.27005665947043844,2.1371445550711363
1781555840302420992,0.6488690376281738,-0.30125004053115845,0.014737706631422043,0.05999910086393356,0.2524009346961975,-0.3205202519893646,-0.9129953980445862,-0.01276165246963501,-0.019766002893447876,0.02096658945083618,-0.45092041051580484,0.03895343973923535,-0.20490227242230952,-0.8678528766041318,0.3262786636295833,0.26971719428840996,2.1385532384356174
1781555840312456192,0.6589040756225586,-0.24893729388713837,0.031331732869148254,0.06583648175001144,0.2523881494998932,-0.31817764043807983,-0.9138179421424866,-0.008918911218643188,-0.010450899600982666,0.006316721439361572,-0.45056989092721456,0.03959635494151799,-0.2037723334327932,-0.8682716819587424,0.3238066109176305,0.26947298991076574,2.1399686553971473
1781555840322490368,0.668938398361206,-0.22954441606998444,0.04243258386850357,0.08170359581708908,0.2525118887424469,-0.316140741109848,-0.9144904613494873,-0.0026492178440093994,0.020547479391098022,0.013458967208862305,-0.45016374006672333,0.040238325740777896,-0.20281927042491513,-0.8686758731092621,0.3216588257172876,0.2694099997333433,2.141395243026305
1781555840332525568,0.6789734363555908,-0.1368645578622818,0.050582654774188995,0.07595489919185638,0.252677321434021,-0.31467318534851074,-0.9149507880210876,0.004051804542541504,0.04147982597351074,0.020160138607025146,-0.44973122289264167,0.040766791202111484,-0.2021451817855376,-0.8690323224320805,0.3201123401388643,0.26944891177462627,2.1427239515312535
1781555840342560512,0.6890084743499756,-0.0862562283873558,0.06548596918582916,0.052192043513059616,0.25302085280418396,-0.3138085901737213,-0.9151527881622314,0.0013126134872436523,0.032756954431533813,0.021765947341918945,-0.4493738122133229,0.04121208182582669,-0.20180478181410896,-0.8692753694318572,0.3192016010644977,0.26974104560086165,2.143679883376011
1781555840352596480,0.6990444660186768,-0.02010331116616726,0.08810672909021378,0.05982280150055885,0.25353652238845825,-0.3134671747684479,-0.9151270389556885,-0.00568804144859314,0.018850505352020264,0.027797996997833252,-0.4490515131861853,0.041600620192181824,-0.2017569220210011,-0.8694344292668429,0.3188420531444397,0.27027165907512696,2.1443773760263634
1781555840362631680,0.7090795040130615,0.014436822384595871,0.09860225021839142,0.0707625299692154,0.2541936933994293,-0.3136247992515564,-0.9148907661437988,-0.010373502969741821,0.007991254329681396,0.03780031204223633,-0.4486649355595778,0.04194795554099272,-0.20197771649802143,-0.869566135667291,0.31900804934336857,0.2710050586066184,2.145059857276711
1781555840372666624,0.7191145420074463,0.03442118316888809,0.09768439084291458,0.06859978288412094,0.2548754811286926,-0.31401604413986206,-0.9145668148994446,-0.009758323431015015,0.001302480697631836,0.04664689302444458,-0.44827258883547305,0.04225191049113177,-0.20231505701416308,-0.869675274246174,0.3194201133254983,0.2717883069689659,2.1456887051760076
1781555840382701312,0.729149341583252,0.008695846423506737,0.0867965891957283,0.05222320184111595,0.255542516708374,-0.3144191801548004,-0.9142420887947083,-0.0054204463958740234,-0.002551645040512085,0.03806716203689575,-0.4479104218564473,0.04253965332362297,-0.20265571078259872,-0.8697684887600841,0.3198447567979837,0.2725570133512649,2.146248241886134
1781555840392736512,0.7391843795776367,-0.04617086425423622,0.05493439733982086,0.0269953440874815,0.25606831908226013,-0.3143479526042938,-0.9141194224357605,-0.0031996965408325195,0.001435995101928711,0.010127782821655273,-0.44767134135647274,0.04284899116791034,-0.20274181332942398,-0.8698563106135111,0.31976971836766743,0.2731252417497478,2.1466821960750653
1781555840402772480,0.7492203712463379,-0.13255049288272858,0.034240834414958954,0.0337858721613884,0.2563819885253906,-0.313652366399765,-0.9142704606056213,-0.009143829345703125,-0.008170753717422485,-0.012136399745941162,-0.44747901655073974,0.04320139632137563,-0.2024806444280199,-0.8699987437546318,0.3190370786749343,0.2734004375184286,2.147223319617464
1781555840412807424,0.7592554092407227,-0.25090351700782776,0.028556715697050095,0.04823165759444237,0.2565385401248932,-0.3119904398918152,-0.9147950410842896,-0.01853194832801819,-0.021139442920684814,-0.03300464153289795,-0.44723114879142567,0.04372672212655518,-0.20171877181018869,-0.8702768091804479,0.3172873193425948,0.27341000457390857,2.1481788998181095
1781555840422842624,0.7692904472351074,-0.3832623362541199,0.03500955551862717,0.057959653437137604,0.2566679120063782,-0.30921486020088196,-0.9157006740570068,-0.02287277579307556,-0.029942214488983154,-0.03318232297897339,-0.44689885383219446,0.04452414055840756,-0.200417703137442,-0.8707076360265789,0.31436733562482416,0.2732838322515076,2.1496174282461236
1781555840432877568,0.7793254852294922,-0.46881797909736633,0.03394775465130806,0.06183109059929848,0.2567986845970154,-0.30541008710861206,-0.9169400930404663,-0.01870054006576538,-0.03141242265701294,-0.01914083957672119,-0.4465059916348217,0.04557901090646989,-0.19862655730527,-0.8712649184502999,0.31036907648016343,0.2730647861564286,2.1514493928697536
1781555840442912512,0.789360523223877,-0.49905630946159363,0.038788314908742905,0.057968173176050186,0.25694742798805237,-0.301108181476593,-0.9183201789855957,-0.010579019784927368,-0.019066989421844482,-0.020217418670654297,-0.4460927925993263,0.04676130693959943,-0.19660443825431417,-0.8718723510216746,0.3058545586301578,0.27282469688262917,2.15343865392307
1781555840452948480,0.7993965148925781,-0.46043860912323,0.04607538878917694,0.051164597272872925,0.2571793496608734,-0.2967721223831177,-0.9196657538414001,-0.005592435598373413,0.009952664375305176,-0.019726336002349854,-0.4456971992623861,0.047981398167661074,-0.19458909020046372,-0.8724602157186484,0.30131071850212215,0.2726788968015489,2.155364629384336
1781555840462983680,0.8094315528869629,-0.3299730122089386,0.03591756150126457,0.051048483699560165,0.2574153542518616,-0.2931801974773407,-0.92075115442276,-0.0024715065956115723,0.0321938693523407,-0.02073138952255249,-0.4453426815056132,0.04901500196219083,-0.19292990500907495,-0.8729521190622771,0.2975515128020883,0.27261086619404795,2.157003237285463
1781555840473018368,0.8194663524627686,-0.15897278487682343,0.040938153862953186,0.05421551316976547,0.2576119303703308,-0.2910761833190918,-0.9213635325431824,0.006716042757034302,0.0464320182800293,-0.022850334644317627,-0.4450141555844583,0.04967211848550967,-0.19196594247844434,-0.8732949444905039,0.2953515358782924,0.2726364407407904,2.1582227212412093
1781555840483053568,0.8295013904571533,-0.058594778180122375,0.04564928263425827,0.058390017598867416,0.2578641474246979,-0.29022619128227234,-0.921561062335968,0.007043689489364624,0.05530187487602234,-0.004677951335906982,-0.44470404598909136,0.050054105574782834,-0.19160910652602595,-0.8735094359880471,0.2944632018173742,0.2728346739609336,2.1590797352181332
1781555840493088512,0.8395364284515381,0.03615782782435417,0.05219759792089462,0.057067759335041046,0.2581421136856079,-0.2902739346027374,-0.921468198299408,0.003683418035507202,0.050543129444122314,0.009419918060302734,-0.44439336044180294,0.05023643444657665,-0.1916825266631465,-0.8736409805285584,0.2945130963757907,0.2731405258703614,2.159713278186265
1781555840503124480,0.8495724201202393,0.07395581156015396,0.04723719507455826,0.03825652226805687,0.2584531009197235,-0.29094284772872925,-0.9211700558662415,-0.00036594271659851074,0.020709693431854248,0.005032360553741455,-0.444155926331593,0.05027165601402136,-0.19206181369835165,-0.8736764295735322,0.2952121732609224,0.2735376175017021,2.1600197009721773
1781555840513159424,0.859607458114624,0.07291744649410248,0.036234743893146515,0.03352568298578262,0.258743554353714,-0.2916918694972992,-0.9208515882492065,-0.005218774080276489,-0.009867578744888306,-0.003419041633605957,-0.4439783860141617,0.050265748821538475,-0.19247744806752876,-0.8736755742244477,0.2959951606731274,0.273919935275757,2.16017378928554
1781555840523194624,0.8696424961090088,0.20817698538303375,-0.006976110395044088,0.03584902361035347,0.2587985396385193,-0.2929306924343109,-0.9204427599906921,-0.013162583112716675,-0.0427931547164917,-0.003263235092163086,-0.44384364065523785,0.05002907854383104,-0.19306916575466,-0.8736270071100174,0.29729055995039094,0.2740909533360537,2.1601654381586988
1781555840533229568,0.8796775341033936,0.27720800042152405,-0.051559556275606155,0.10229542851448059,0.2583257257938385,-0.2955717146396637,-0.9197310209274292,-0.010370433330535889,-0.07515579462051392,-0.020011961460113525,-0.4436630970301971,0.049234587089804875,-0.19419174875809275,-0.8735150832499334,0.3000539057765062,0.2738161552104626,2.160043376473607
1781555840543264512,0.8897125720977783,0.2204456478357315,-0.05795540288090706,0.12145686894655228,0.25738874077796936,-0.29810312390327454,-0.9191765785217285,-0.00531354546546936,-0.061653345823287964,-0.037229061126708984,-0.44324568991446633,0.048309115112060215,-0.19513569790481788,-0.8735683184474351,0.3027047960388934,0.27302817078778036,2.1606013863295495
1781555840553300736,0.8997485637664795,0.14594291150569916,-0.032898254692554474,0.09258794039487839,0.25668877363204956,-0.30009904503822327,-0.9187226891517639,-0.03478020429611206,-0.06389936804771423,-0.06176126003265381,-0.4428924888739995,0.047602604018654515,-0.1958893418770642,-0.8736175353196126,0.3047964951911373,0.2724498627169767,2.1610864731482864
1781555840563335424,0.9097833633422852,0.08192505687475204,-0.028635600581765175,0.14170968532562256,0.25604164600372314,-0.30144572257995605,-0.9184623956680298,-0.037322163581848145,-0.045645952224731445,-0.039942145347595215,-0.4424395058968361,0.04709536182831194,-0.19634365379317506,-0.8737726095739229,0.30620853836000506,0.27186967143465035,2.161947921520749
1781555840573370368,0.9198184013366699,0.008623408153653145,-0.01539476215839386,0.17270222306251526,0.2553532123565674,-0.3022456765174866,-0.9183911085128784,-0.01943710446357727,-0.008758902549743652,-0.010975897312164307,-0.44177516036388725,0.04674573815482144,-0.19651787228599027,-0.8740881891953972,0.30704765137512735,0.27119406884551517,2.163438179469723
1781555840583405568,0.9298534393310547,-0.011585723608732224,-0.017465369775891304,0.1664896011352539,0.2546938955783844,-0.3026716709136963,-0.9184339046478271,-0.007593095302581787,0.013807564973831177,0.014655888080596924,-0.4410420164245307,0.04651263194621868,-0.196518731936225,-0.8744706483823761,0.3074945694914393,0.27051554802730104,2.1651714055056788
1781555840593440512,0.9398884773254395,-0.04261022061109543,-0.004748375620692968,0.152622789144516,0.2540926933288574,-0.3028373420238495,-0.9185458421707153,0.007320880889892578,0.024959534406661987,0.03216278553009033,-0.4403481203174105,0.046357877775315304,-0.19641289954826346,-0.8748522910491313,0.30766839301415555,0.26987628175378714,2.1668642547343007
1781555840603476480,0.9499244689941406,-0.03913745656609535,0.01701630838215351,0.13549812138080597,0.25370296835899353,-0.302808552980423,-0.9186630249023438,0.01254764199256897,0.043912678956985474,0.04697418212890625,-0.4397042468138827,0.046332812113966615,-0.196269582851051,-0.8752095711124055,0.307638200069676,0.2694493840090101,2.1684382316256796
1781555840613511680,0.9599595069885254,-0.03335706517100334,0.05494385212659836,0.11714974045753479,0.2536543905735016,-0.3028029203414917,-0.9186782836914062,0.0031204819679260254,0.05632773041725159,0.051521360874176025,-0.4391090979122077,0.0464455676602485,-0.19622348541289555,-0.875512593718554,0.3076322783985992,0.26939598162793865,2.169811034648742
1781555840623546624,0.9699945449829102,-0.06289391219615936,0.09643030166625977,0.10319504141807556,0.2540237009525299,-0.3026621341705322,-0.9186226725578308,-0.005610615015029907,0.05493569374084473,0.05250328779220581,-0.4385350000891438,0.04677422287095961,-0.19621631060418435,-0.8757844659874633,0.3074845495539967,0.2697850388539015,2.171067015904108
1781555840633581312,0.9800293445587158,-0.10219178348779678,0.1288251280784607,0.08376115560531616,0.2547953128814697,-0.30213889479637146,-0.9185811877250671,-0.0047800540924072266,0.04496726393699646,0.05751246213912964,-0.43799636143676957,0.047366080787036836,-0.19612713755037808,-0.8760420655938403,0.3069356268867036,0.27057677099060085,2.172237471945781
1781555840643616512,0.9900643825531006,-0.16134299337863922,0.1488020271062851,0.06832148134708405,0.2558586001396179,-0.30115124583244324,-0.9186099767684937,-0.0026390254497528076,0.026264160871505737,0.05033910274505615,-0.4374854735548865,0.048191678406267126,-0.19588917738402153,-0.8763056024733282,0.3058997199816505,0.271643209836856,2.1733882838620344
1781555840653652480,1.0001003742218018,-0.2666054964065552,0.1614653617143631,0.05866805464029312,0.25708043575286865,-0.29936662316322327,-0.9188521504402161,-0.00643959641456604,0.011402755975723267,0.047804176807403564,-0.43700272042094496,0.04926730710044243,-0.19531167788430143,-0.8766155629251904,0.30402875899495047,0.2728087101954566,2.1746327680893907
1781555840663687424,1.0101354122161865,-0.38035258650779724,0.1748400330543518,0.042912792414426804,0.2584843635559082,-0.29650646448135376,-0.919385552406311,-0.01571705937385559,0.00460582971572876,0.045362114906311035,-0.4365357431517304,0.05066995070461887,-0.19426732016076909,-0.8770002047464863,0.3010325377474189,0.2740739028716313,2.1760614440970385
1781555840673722624,1.0201704502105713,-0.47858726978302,0.1831248551607132,0.023473048582673073,0.2600608170032501,-0.2926187813282013,-0.9201862215995789,-0.019917994737625122,-0.002486199140548706,0.03226202726364136,-0.4361058715259272,0.05237802306673439,-0.19277821443526202,-0.877442266692694,0.29696434772103025,0.27543433743667417,2.1776153152897986
1781555840683757568,1.030205488204956,-0.5396527051925659,0.1628779023885727,0.01114607509225607,0.2616184949874878,-0.287903368473053,-0.9212314486503601,-0.014563441276550293,-0.009398877620697021,0.016644656658172607,-0.43573185743768306,0.05425318106982234,-0.19089489266856433,-0.8779256564113196,0.2920367868922988,0.2767027417570499,2.1792452179002155
1781555840693792512,1.0402405261993408,-0.5183346271514893,0.1336306631565094,0.01037322636693716,0.26296788454055786,-0.28300389647483826,-0.9223647117614746,-0.007657825946807861,-0.009186625480651855,0.0017409920692443848,-0.4353973166379711,0.056064065813986964,-0.18887682049545682,-0.8784142453669299,0.28692459749647864,0.27773333085216995,2.1808746407798676
1781555840703828480,1.050276517868042,-0.44784054160118103,0.12101447582244873,-0.0010991395683959126,0.26411426067352295,-0.2784978747367859,-0.9234081506729126,-0.006667971611022949,-0.005727559328079224,-0.004814505577087402,-0.4351264084654365,0.05767564215393923,-0.18700122105617026,-0.8788452736693151,0.28222976601001065,0.2785833566799791,2.1823062683009655
1781555840713863680,1.0603115558624268,-0.35274413228034973,0.11865158379077911,-0.0014261757023632526,0.2652362585067749,-0.27476194500923157,-0.9242053627967834,-0.00927010178565979,0.004360973834991455,-0.0022166967391967773,-0.4349129656079483,0.059085311157013445,-0.18548917071355656,-0.8791776988607479,0.27834211358468564,0.2794772579753312,2.1834251595766343
1781555840723898368,1.0703463554382324,-0.2567414343357086,0.11205573379993439,0.007980375550687313,0.26630786061286926,-0.2719375789165497,-0.9247324466705322,-0.010417968034744263,0.007167071104049683,-0.0027577877044677734,-0.43469636705351217,0.06026296123297243,-0.18439673832575312,-0.8794346690669471,0.27540592649608286,0.28039652724097625,2.184344258898909
1781555840733933568,1.0803813934326172,-0.1883341372013092,0.11730869114398956,0.014630022458732128,0.2673463523387909,-0.26991358399391174,-0.9250257015228271,-0.01858234405517578,-0.004515707492828369,-0.004509150981903076,-0.4344762886229517,0.06124279033402049,-0.1836748796492175,-0.8796267559797722,0.273303296406322,0.281348640900599,2.1850887209265304
1781555840743969536,1.0904173851013184,-0.14492647349834442,0.11425351351499557,0.025125006213784218,0.26837629079818726,-0.26843488216400146,-0.9251577854156494,-0.028248727321624756,-0.024228692054748535,-0.001981496810913086,-0.43423182932522036,0.0620990445026124,-0.18320705753020314,-0.8797849826717146,0.27176790305533016,0.2823377152200462,2.1857618901239593
1781555840754004480,1.1004524230957031,-0.1401037573814392,0.1113734319806099,0.048816487193107605,0.26931172609329224,-0.2672397792339325,-0.92523193359375,-0.028131306171417236,-0.041048794984817505,-0.0021209716796875,-0.43391759479971553,0.06286193176835514,-0.1828453479905251,-0.879961037242627,0.2705274781736187,0.28324859274197595,2.186548134457012
1781555840764039424,1.110487461090088,-0.16599448025226593,0.1023716852068901,0.04818212240934372,0.2701650559902191,-0.26595157384872437,-0.9253543019294739,-0.023094743490219116,-0.04454949498176575,-0.006377816200256348,-0.43355463532154614,0.06361836961757768,-0.18241587752319713,-0.8801746480607795,0.26919092187375093,0.284063038617631,2.1874857209683425
1781555840774074624,1.1205224990844727,-0.16577209532260895,0.08985242992639542,0.03854067996144295,0.2709266245365143,-0.2645156979560852,-0.9255431890487671,-0.015006214380264282,-0.031031787395477295,-0.01131594181060791,-0.43321825747689374,0.06436061014878043,-0.1818958687368626,-0.8803940616386677,0.26770170317460334,0.28476619058376934,2.188418831046363
1781555840784109568,1.1305575370788574,-0.137019544839859,0.072837233543396,0.01961146481335163,0.2716091573238373,-0.263161301612854,-0.9257292151451111,-0.00821194052696228,0.001824021339416504,-0.018072664737701416,-0.4329665819308525,0.0650304227287603,-0.18140129436796995,-0.8805706323618171,0.266297552272278,0.28539100472017304,2.1891573833955236
1781555840794145536,1.1405935287475586,-0.0870562419295311,0.06037084013223648,0.02104104869067669,0.27217110991477966,-0.26216790080070496,-0.9258460402488708,-0.004882901906967163,0.041022300720214844,-0.02273184061050415,-0.432784898697536,0.06554879918737552,-0.18105342076047437,-0.8806930426053695,0.2652680120662696,0.28591570245078446,2.189678758359121
1781555840804180736,1.1506285667419434,-0.041132163256406784,0.058700770139694214,0.024866946041584015,0.2726529538631439,-0.2616432309150696,-0.9258526563644409,0.0012880563735961914,0.06433185935020447,-0.025258123874664307,-0.4326036417632924,0.06592433102254944,-0.1809078340414125,-0.8807839441998214,0.26472433900731307,0.2863927282908933,2.1901067803673127
1781555840814215424,1.160663366317749,-0.02003460004925728,0.05259920284152031,0.003829838940873742,0.27312830090522766,-0.2614113986492157,-0.9257780313491821,0.003956019878387451,0.055005788803100586,-0.023440659046173096,-0.43248481950881756,0.06621777196900787,-0.18090378151108322,-0.8808211476246678,0.2644841502134702,0.2868869790210984,2.190325779514781
1781555840824250368,1.1706984043121338,-0.03828364610671997,0.040846407413482666,-0.004882958717644215,0.2735767662525177,-0.26114708185195923,-0.92572021484375,0.0083751380443573,0.03931480646133423,-0.0162353515625,-0.4324383860796104,0.06649145294739779,-0.1808833003695742,-0.8808275418651299,0.26421032014150503,0.28734952686241294,2.1903939997443436
1781555840834285568,1.1807334423065186,-0.06153304502367973,0.04089181125164032,-0.003044844837859273,0.27395471930503845,-0.26066794991493225,-0.9257435202598572,0.013917624950408936,0.02285972237586975,-0.004722177982330322,-0.4323971067780159,0.06678051401588435,-0.18074459615044203,-0.8808544395336553,0.2637140153498404,0.2877181125091139,2.1905168797393575
1781555840844321536,1.1907694339752197,-0.08273047208786011,0.04405830800533295,-0.007032928988337517,0.2743460536003113,-0.2599766254425049,-0.9258220195770264,0.008811324834823608,0.011487245559692383,-0.0004169940948486328,-0.4323605343007267,0.06712267387317354,-0.1805090940153039,-0.8808947609766589,0.2629980111716991,0.2880836490197091,2.1906763013529376
1781555840854356480,1.2008044719696045,-0.09334849566221237,0.05253315344452858,-0.01027186494320631,0.2748129963874817,-0.2591160237789154,-0.9259247779846191,0.0048653483390808105,0.006201595067977905,0.0034546852111816406,-0.43232529448578244,0.06753725080610662,-0.18021188787467723,-0.8809411759775412,0.26210685271999995,0.2885169736253325,2.1908555519174797
1781555840864391680,1.2108395099639893,-0.08125001937150955,0.05175231769680977,-0.0031252724584192038,0.27530503273010254,-0.2582825720310211,-0.9260115027427673,0.006219625473022461,0.002423197031021118,0.008012175559997559,-0.4322797858649532,0.0679591556359204,-0.17993280718720134,-0.880988094670827,0.261244043122502,0.28897971186612786,2.1910463315701167
1781555840874426624,1.220874547958374,-0.058291710913181305,0.05353463813662529,0.0035882904194295406,0.27578073740005493,-0.2576555013656616,-0.9260446429252625,0.011099755764007568,0.005763441324234009,0.006229579448699951,-0.4321998027912554,0.06833397114253255,-0.17974471049906873,-0.8810366648964062,0.2605949942555487,0.2894418267612998,2.1912703689015136
1781555840884461312,1.2309093475341797,-0.031393785029649734,0.05252769589424133,0.013144245371222496,0.27624595165252686,-0.25724169611930847,-0.9260209798812866,0.010100483894348145,0.007684201002120972,0.007106184959411621,-0.43209908048142753,0.06866005877190591,-0.1796532771383493,-0.8810793931712237,0.2601667607995841,0.28991021197683836,2.1914939643250384
1781555840894497280,1.2409453392028809,0.016277600079774857,0.05477673560380936,0.018117165192961693,0.27673718333244324,-0.2571999728679657,-0.9258859157562256,0.011745482683181763,0.0035073459148406982,0.006345510482788086,-0.43197710594267247,0.06891834935112555,-0.17974234123134333,-0.8811009081208547,0.2601235857670541,0.29043729758107134,2.1916725510703166
1781555840904532480,1.2509803771972656,0.07406899333000183,0.06042982637882233,0.01594109646975994,0.2772022485733032,-0.2576812207698822,-0.9256129264831543,0.016346335411071777,0.011328071355819702,0.002608776092529297,-0.43187324772706853,0.0690430411083486,-0.18007385143723462,-0.8810743250783698,0.26062159922189376,0.29097936320251333,2.1916921142129837
1781555840914567424,1.2610154151916504,0.10327641665935516,0.05527687445282936,0.025485333055257797,0.27769041061401367,-0.2585645616054535,-0.9252201914787292,0.023350238800048828,0.02806529402732849,0.004275977611541748,-0.4317636602912092,0.06908875778622739,-0.18060078555222425,-0.8810166420664758,0.2615359403098525,0.2915800864653741,2.1916241158294456
1781555840924602624,1.2710504531860352,0.11139532923698425,0.048079416155815125,0.026673369109630585,0.27809464931488037,-0.2596736252307892,-0.9247880578041077,0.03059062361717224,0.032424479722976685,0.003264009952545166,-0.43163564577463315,0.06904914134186253,-0.18121309093087376,-0.8809566681988498,0.26268421406335635,0.29210967302987556,2.191561628912569
1781555840934638592,1.2810864448547363,0.08335250616073608,0.036864712834358215,0.023612597957253456,0.27841565012931824,-0.26066043972969055,-0.924413800239563,0.025630980730056763,0.018732339143753052,0.0029965639114379883,-0.4315218297974285,0.06899629157658611,-0.1817487638629933,-0.8809063013284876,0.26370623946169625,0.2925397124912307,2.1915138111259975
1781555840944673536,1.291121482849121,0.020487524569034576,0.03544631600379944,0.03025851584970951,0.27867335081100464,-0.2612426280975342,-0.9241717457771301,0.01875096559524536,-0.0038940608501434326,0.004066765308380127,-0.43138891664153844,0.06900991158265046,-0.18207624093294297,-0.8809025790023356,0.2643093228922995,0.2928676638469281,2.19161874042107
1781555840954708480,1.3011565208435059,-0.04419293627142906,0.029701875522732735,0.032518476247787476,0.2788811922073364,-0.26121217012405396,-0.9241176843643188,0.010639101266860962,-0.020343005657196045,0.010512948036193848,-0.43121366444864995,0.06914783370191782,-0.18209816083544492,-0.8809730344795219,0.2642777451211902,0.2930899656943629,2.1919774146916433
1781555840964743680,1.3111915588378906,-0.0890490859746933,0.02533668838441372,0.03481891378760338,0.27902987599372864,-0.2606797218322754,-0.9242231249809265,0.006935089826583862,-0.02264547348022461,0.015028178691864014,-0.43101454368382763,0.06937688634587225,-0.1818660951634875,-0.8811005134690177,0.26372620462944557,0.29320586065801496,2.192523656914786
1781555840974778368,1.3212263584136963,-0.09265873581171036,0.03077792562544346,0.03598138317465782,0.27920031547546387,-0.2599090039730072,-0.9243887066841125,0.002354860305786133,-0.009545952081680298,0.01650601625442505,-0.4308024252556589,0.0696720899709731,-0.1815253281571567,-0.8812511450789099,0.26292795881251546,0.2933252746965821,2.193150760705135
1781555840984814336,1.3312623500823975,-0.0765676498413086,0.03634126856923103,0.034071099013090134,0.279410719871521,-0.2592250406742096,-0.9245171546936035,-0.002112776041030884,0.004189670085906982,0.011782228946685791,-0.43058836491743535,0.06996618950241244,-0.18123504098938542,-0.8813921873604837,0.2622197326093106,0.2934953395548518,2.1937526270770342
1781555840994849536,1.3412973880767822,-0.06161586940288544,0.039720289409160614,0.03213497996330261,0.279684454202652,-0.25867801904678345,-0.924587607383728,-0.0030120909214019775,0.012462198734283447,0.011791586875915527,-0.4303783551095683,0.07025741566987322,-0.18102508049390137,-0.8815147656452577,0.26165339158873535,0.29374551433141294,2.194298602911056
1781555841004884480,1.351332426071167,-0.04730723798274994,0.031421877443790436,0.030698470771312714,0.27991896867752075,-0.2582569122314453,-0.9246343970298767,0.001483619213104248,0.010789871215820312,0.011838376522064209,-0.4301855528559518,0.07049877680872536,-0.1808666027977014,-0.8816222040971459,0.2612174737019288,0.293963859498937,2.1947843360542727
1781555841014919424,1.3613674640655518,0.003756215563043952,0.02223770134150982,0.02887793257832527,0.2800740897655487,-0.25808048248291016,-0.9246366620063782,0.003403693437576294,0.0027093887329101562,0.005218327045440674,-0.43001520777106983,0.07064420767688981,-0.18080669988245618,-0.8817058366504811,0.2610348450035913,0.29411683691390217,2.1951780287382934
1781555841024954624,1.3714025020599365,0.04248763248324394,0.020419295877218246,0.018910786136984825,0.2801933288574219,-0.2584090828895569,-0.9245087504386902,-0.002880096435546875,-0.0034164786338806152,-0.0073149800300598145,-0.42990805676733757,0.07064682995325497,-0.18098245719102557,-0.88172184520617,0.261374994589143,0.2942733721650952,2.19531648137411
1781555841034990592,1.3814384937286377,0.032508499920368195,0.02131158672273159,0.019039949402213097,0.2803518772125244,-0.2587979733943939,-0.9243519306182861,-0.010591745376586914,0.012658447027206421,0.009419679641723633,-0.4298101231904556,0.07065199338264243,-0.181196976892691,-0.8817251606156862,0.26177758292372194,0.2944775369007938,2.1954108626027713
1781555841045025536,1.3914735317230225,0.052798591554164886,-0.00462440587580204,0.0048959022387862206,0.28039151430130005,-0.259231299161911,-0.924218475818634,-0.0018575787544250488,0.02406284213066101,0.0017483830451965332,-0.4297609025198712,0.07058287529818727,-0.18140791904580245,-0.881711319965908,0.262226221415763,0.29455690975860915,2.1954103595372665
1781555841055060736,1.4015085697174072,0.04062048718333244,-0.026719722896814346,-0.003047774313017726,0.280244916677475,-0.259679913520813,-0.9241369962692261,0.0016612112522125244,0.005041241645812988,0.0023535490036010742,-0.42979528618211155,0.07040805511075326,-0.18158805526497315,-0.881671498417967,0.2626907429887301,0.29443616451293936,2.1952580391725807
1781555841065095424,1.411543369293213,0.0019370100926607847,-0.029164236038923264,0.0015957130817696452,0.2799844443798065,-0.25988978147506714,-0.924156904220581,-0.007813453674316406,-0.016050130128860474,0.00611191987991333,-0.42984275983775017,0.0702321326776706,-0.18162870939515116,-0.8816539118789333,0.2629080557395908,0.29417201734861603,2.1951580537436928
1781555841075131392,1.421579360961914,-0.051255904138088226,-0.020663294941186905,0.0015333951450884342,0.2797512710094452,-0.2596476376056671,-0.9242956042289734,-0.023556172847747803,-0.036021918058395386,0.005182445049285889,-0.42985407970182304,0.07017771167790822,-0.18145879288093833,-0.8816877239404534,0.26265729950849415,0.29389929132671927,2.1952421217216522
1781555841085166336,1.4316143989562988,-0.08842510730028152,-0.0071480171754956245,-0.00213138060644269,0.2796315848827362,-0.25900083780288696,-0.9245132207870483,-0.026823967695236206,-0.03390687704086304,0.00483548641204834,-0.42984765312653117,0.07026969765822076,-0.18112301855454238,-0.8817525627619844,0.2619876028780305,0.29371541986384747,2.195437379054578
1781555841095201536,1.4416494369506836,-0.10935515910387039,0.0023211180232465267,0.005739058833569288,0.2796037197113037,-0.258066862821579,-0.9247828125953674,-0.013719320297241211,-0.01379898190498352,0.009469091892242432,-0.42980589292345767,0.07047533631631588,-0.18067048391809984,-0.8818493249657487,0.2610207484461547,0.29360705237732426,2.1957602886564014
1781555841105236480,1.4516844749450684,-0.0945674255490303,-0.006062779575586319,0.012794571928679943,0.27956706285476685,-0.25711140036582947,-0.925059974193573,-0.0012162327766418457,0.005677074193954468,0.004756629467010498,-0.4297337508404981,0.07068787591881111,-0.18020331200672945,-0.8819630337100354,0.26003190803758636,0.29348773814667783,2.196158620111506
1781555841115271680,1.4617195129394531,-0.07984387129545212,-0.00020409142598509789,0.015950417146086693,0.27949026226997375,-0.25635838508605957,-0.9252921342849731,0.0017902255058288574,0.010783463716506958,0.00099104642868042,-0.4296450601175119,0.07083987707502716,-0.1798211327732699,-0.8820720544733529,0.25925279167603765,0.2933421925509914,2.196554958326345
1781555841125307648,1.4717555046081543,-0.06398101896047592,0.02925819158554077,0.02820734865963459,0.27958256006240845,-0.25574323534965515,-0.9254344701766968,-0.0022540688514709473,0.01775190234184265,0.0016216039657592773,-0.4295126123497888,0.07104700521468765,-0.17954130227336276,-0.882176931121709,0.25861641179766,0.29339100526022155,2.1969804324532354
1781555841135342592,1.481790542602539,-0.05951783061027527,0.028540870174765587,0.023715129122138023,0.27980807423591614,-0.25524044036865234,-0.9255051612854004,-0.00331878662109375,0.022421836853027344,0.0028367042541503906,-0.4293451791516406,0.07129680990703133,-0.17934377571160623,-0.8822785267228195,0.2580963730349281,0.2935931229175531,2.1974293629151793
1781555841145377280,1.4918253421783447,-0.045905083417892456,0.02813127636909485,0.02634313702583313,0.2800237834453583,-0.25480231642723083,-0.9255605936050415,-0.0006659030914306641,0.022609353065490723,0.0013510584831237793,-0.4291922214272445,0.07152463890699089,-0.17917567716058938,-0.8823685456543148,0.2576432764269664,0.29379008129888584,2.1978318454067036
1781555841155412480,1.5018603801727295,-0.03390887379646301,0.026686910539865494,0.022409647703170776,0.2802145481109619,-0.25450214743614197,-0.9255854487419128,0.003019094467163086,0.021653026342391968,-0.0017673969268798828,-0.42904662249165904,0.07170859984387598,-0.1790674162726717,-0.8824464185513988,0.25733285173929,0.29397141568821844,2.198190901163815
1781555841165447424,1.5118954181671143,-0.028935151174664497,0.025622710585594177,0.010730355978012085,0.28041303157806396,-0.2542632520198822,-0.925590991973877,-0.0030998289585113525,0.02239072322845459,-0.0024790167808532715,-0.4289439643822365,0.07187363391909378,-0.17899350217928559,-0.8824979271263415,0.2570858576758636,0.29416619277688566,2.198436493039845
1781555841175483392,1.5219314098358154,-0.021353930234909058,0.017909664660692215,0.005306561477482319,0.2806016504764557,-0.25404343008995056,-0.9255942106246948,-0.0069505274295806885,0.01985153555870056,0.0016897916793823242,-0.4288792103206198,0.07202219072303281,-0.17892930303745097,-0.8825302986728595,0.2568585493516883,0.29435187000768487,2.1985937628274637
1781555841185518592,1.5319664478302002,-0.03652862459421158,0.014787108637392521,0.013208161108195782,0.28073543310165405,-0.253811776638031,-0.9256172180175781,-0.010303914546966553,0.009579598903656006,0.000904083251953125,-0.4288152782685961,0.07214814164456533,-0.17884642223949174,-0.8825678881401762,0.2566190447091267,0.2944773305761158,2.198764021476808
1781555841195553536,1.542001485824585,-0.05874817445874214,0.011134317144751549,0.011684300377964973,0.2808234393596649,-0.2533997893333435,-0.9257034063339233,-0.009049147367477417,-0.004809468984603882,0.00210416316986084,-0.4287279011431547,0.07229823871145068,-0.1786652406912968,-0.882634808740165,0.25619312988486403,0.29453853364216936,2.1990400541376336
1781555841205588480,1.5520365238189697,-0.10090654343366623,0.004049776121973991,0.01676933839917183,0.28085747361183167,-0.2527131140232086,-0.9258807301521301,-0.0032696127891540527,-0.020205557346343994,0.0029376745223999023,-0.4286333551960179,0.07248646121703696,-0.17834051673749154,-0.8827308676347205,0.2554833797540706,0.2945189783356599,2.1994083359580068
1781555841215624448,1.562072515487671,-0.13590767979621887,0.000881279818713665,0.025650182738900185,0.28081953525543213,-0.2516588270664215,-0.9261793494224548,0.0026124417781829834,-0.024616777896881104,0.00996541976928711,-0.42848670954186796,0.07273432870953109,-0.17782024128629614,-0.8828865589041098,0.2543938523585674,0.2943919216165339,2.199996481478898
1781555841225659648,1.5721075534820557,-0.11684183776378632,0.0014029932208359241,0.027085626497864723,0.28075286746025085,-0.2505265474319458,-0.9265064597129822,0.003747224807739258,-0.02259048819541931,0.007790088653564453,-0.42831414611548313,0.07299139410939876,-0.17725410202045966,-0.8830629057407315,0.2532241133902779,0.2942279661906503,2.200667266638175
1781555841235694336,1.5821423530578613,-0.08862031996250153,0.010124978609383106,0.022087937220931053,0.2807214558124542,-0.24964547157287598,-0.9267538189888,-0.0006158649921417236,-0.0062291622161865234,0.002300083637237549,-0.4281670268599894,0.07320314563949049,-0.17681741115963945,-0.8832043587103426,0.2523141154452914,0.29412284440714437,2.201213537026549
1781555841245729536,1.592177391052246,-0.04401343688368797,0.022000547498464584,0.029487531632184982,0.2808149755001068,-0.24907153844833374,-0.9268798828125,-0.0025404393672943115,0.02543872594833374,0.012420654296875,-0.4280139814485507,0.07340454857839906,-0.17655543927630346,-0.8833143028900818,0.2517214677624797,0.29417752014904996,2.2016740950072213
1781555841255765504,1.6022133827209473,0.005176213104277849,0.025735098868608475,0.02615325339138508,0.28096553683280945,-0.2489805370569229,-0.9268587231636047,-0.004842489957809448,0.03543378412723541,0.013620197772979736,-0.4278629394863536,0.0735239025511375,-0.17653577382496158,-0.8833814045303344,0.25162749758206965,0.294332638528407,2.2020046544128817
1781555841265800448,1.612248420715332,0.016331663355231285,0.03636537119746208,0.02494817227125168,0.2811887860298157,-0.2491685003042221,-0.9267404675483704,-0.011291325092315674,0.022285550832748413,0.011091053485870361,-0.427731184224794,0.07361049808753567,-0.17666705398779006,-0.8834117569606008,0.2518215746085183,0.29458865681410884,2.2022109168811905
1781555841275835392,1.6222834587097168,-3.133225254714489e-05,0.049015384167432785,0.027810271829366684,0.2815263867378235,-0.24933260679244995,-0.9265938401222229,-0.018464863300323486,0.004352748394012451,0.0076027512550354,-0.42757909843702274,0.07375884271900844,-0.17681263913737613,-0.8834438853504151,0.2519910398659937,0.2949662152286872,2.2024439933821807
1781555841285870592,1.6323184967041016,-0.0385315865278244,0.05110170692205429,0.0332186184823513,0.2819162905216217,-0.24925696849822998,-0.9264956712722778,-0.020304352045059204,-0.006953373551368713,0.004071354866027832,-0.42739105002678823,0.07399177807071994,-0.17685415300609225,-0.8835071263728106,0.2519129242925623,0.2953809273914764,2.2028032574107823
1781555841295905536,1.6423535346984863,-0.057212598621845245,0.04643465206027031,0.03675103560090065,0.28227698802948,-0.24889959394931793,-0.9264819025993347,-0.01103675365447998,-0.006715640425682068,0.0014330744743347168,-0.42717672038761895,0.07427931137144662,-0.1767530415235202,-0.8836067837443718,0.2515439207922249,0.29574133939048414,2.2032939031208727
1781555841305941504,1.6523895263671875,-0.0854458287358284,0.040516309440135956,0.034429825842380524,0.2825910449028015,-0.2483436018228531,-0.9265353679656982,-0.002027660608291626,-0.0006798356771469116,-0.0013515949249267578,-0.4269569137348611,0.07459070958396513,-0.17654616350691701,-0.8837281788840105,0.2509699102382551,0.2960353931339448,2.203853832577639
1781555841315976704,1.6624245643615723,-0.08677448332309723,0.03624046966433525,0.029620688408613205,0.2828628420829773,-0.24762572348117828,-0.9266445636749268,0.004505932331085205,0.011129751801490784,-0.006445646286010742,-0.4267416372247483,0.07491770656539623,-0.17625284553139042,-0.8838630033808796,0.25022889223145095,0.29627084987377933,2.2044502264992496
1781555841326012160,1.6724600791931152,-0.08908423781394958,0.03461247682571411,0.02333190105855465,0.2831200659275055,-0.2468719333410263,-0.926767110824585,0.006033986806869507,0.016494736075401306,-0.008444070816040039,-0.42655842627411206,0.07523945275326102,-0.17594167497168123,-0.883986067918333,0.24945094291741152,0.2964878059026051,2.204985477161678
1781555841336047104,1.6824951171875,-0.07684674859046936,0.02558276429772377,0.01973210647702217,0.28333809971809387,-0.24615035951137543,-0.9268923997879028,0.011431187391281128,0.015086501836776733,-0.008471369743347168,-0.42640310592977904,0.07553039318202036,-0.1756387003713951,-0.8840965745244332,0.24870639042782078,0.2966651736838004,2.20545882372783
1781555841346083072,1.6925311088562012,-0.06962425261735916,0.014761809259653091,0.022448796778917313,0.2834860384464264,-0.24549052119255066,-0.9270221590995789,0.01683741807937622,0.01450297236442566,-0.004633724689483643,-0.426261298664881,0.07577271277605332,-0.17534942228662467,-0.8842015633284834,0.24802566100309675,0.296772001534474,2.2059015415242498
1781555841356118016,1.7025659084320068,-0.034342702478170395,0.001399131491780281,0.014566106721758842,0.28350239992141724,-0.2450675517320633,-0.9271290302276611,0.016470104455947876,0.01844404637813568,-0.0003611445426940918,-0.4261553147277665,0.07589500690142148,-0.17514399509937656,-0.8842829011102001,0.2475893759572525,0.2967558876207507,2.206236323095981
1781555841366152960,1.7126009464263916,-0.0037515019066631794,-0.001345789059996605,0.017691591754555702,0.2834695279598236,-0.24491211771965027,-0.9271801710128784,0.010491043329238892,0.02611634135246277,0.001139521598815918,-0.426084456732307,0.07592844112379324,-0.17505652375953754,-0.8843314271172527,0.24742904466366097,0.29670805958626517,2.2064395965840697
1781555841376188160,1.7226359844207764,0.02592676505446434,-0.0016745557077229023,0.017467619851231575,0.2834119200706482,-0.2450849711894989,-0.9271520972251892,0.0017595887184143066,0.0240156352519989,0.000928342342376709,-0.4260101114556839,0.07587844397074793,-0.1751182478827151,-0.8843593871181142,0.24760732833968074,0.29665967862527715,2.2065800057564195
1781555841386223104,1.7326710224151611,0.020906707271933556,-0.001684409100562334,0.008682917803525925,0.28335779905319214,-0.245356485247612,-0.9270968437194824,-0.007829844951629639,0.009562402963638306,-0.003643512725830078,-0.4259642784832562,0.07580254120583158,-0.17522998208335577,-0.8843658780032744,0.24788740007000962,0.29662294657620725,2.2066321275684104
1781555841396259072,1.7427070140838623,0.002940755570307374,-0.008461089804768562,0.004970204550772905,0.28329354524612427,-0.2454821616411209,-0.9270831942558289,-0.017302364110946655,-0.006837174296379089,-0.0012615323066711426,-0.4259436558116815,0.07574934140538488,-0.1752724659170521,-0.8843718408804434,0.2480170444817388,0.29656370152235023,2.206662963114628
1781555841406294016,1.752742052078247,-0.01270398497581482,-0.011721065267920494,-0.0028605542611330748,0.2831878066062927,-0.2454419732093811,-0.9271261692047119,-0.024887025356292725,-0.015010297298431396,0.001390695571899414,-0.4259472684488609,0.07570906992250775,-0.17522859211951788,-0.8843822624003276,0.247975586670388,0.2964464165702176,2.2066868003153997
1781555841416329216,1.7627770900726318,-0.024219492450356483,-0.009687475860118866,-0.004587880801409483,0.2830887734889984,-0.24526625871658325,-0.9272028803825378,-0.029563993215560913,-0.015826880931854248,0.007097899913787842,-0.425966961363843,0.07569874022084408,-0.17512353929481614,-0.8843944674430285,0.24779432558736358,0.2963256089751636,2.2067042886767188
1781555841426363904,1.7728118896484375,-0.026139365509152412,-0.010179094970226288,-0.004488278646022081,0.28301429748535156,-0.24502278864383698,-0.9272900223731995,-0.030145645141601562,-0.007266029715538025,0.011243879795074463,-0.42598491876834177,0.07571501119012454,-0.17499210737915033,-0.8844104346177606,0.24754319457226392,0.2962258916867081,2.206736161272449
1781555841436399872,1.7828478813171387,-0.02805524319410324,-0.0011737481690943241,-0.009352275170385838,0.2829817533493042,-0.24475643038749695,-0.9273703098297119,-0.0278548002243042,-0.0015509426593780518,0.016176462173461914,-0.4260125323882767,0.07575366422008413,-0.17486063588108122,-0.8844198964520975,0.24726847419557746,0.2961696134803783,2.2067427079334605
1781555841446435072,1.7928829193115234,-0.03647749125957489,0.0034095521550625563,-0.013439428992569447,0.2830224931240082,-0.2444171905517578,-0.9274473190307617,-0.021181702613830566,0.0017566680908203125,0.01941204071044922,-0.42605223557081223,0.07583967513751995,-0.17471316442460705,-0.884422523047257,0.2469186066155844,0.29618663595983863,2.2067229425560844
1781555841456470016,1.8029179573059082,-0.03919311612844467,-0.00331652769818902,-0.021659541875123978,0.283060759305954,-0.2440134733915329,-0.9275419116020203,-0.009882688522338867,0.00028483569622039795,0.02136826515197754,-0.42612144545448605,0.07593301218191958,-0.1745371301691059,-0.8844159308523659,0.2465022785989744,0.2961958876575218,2.2066519634274138
1781555841466504960,1.812952995300293,-0.04880073666572571,0.0018643862567842007,-0.02148803509771824,0.28307366371154785,-0.2435315102338791,-0.9276646375656128,-0.0049211978912353516,-0.0007769614458084106,0.020926356315612793,-0.42620588986439817,0.0760290836875319,-0.17431938620036885,-0.8844099596462107,0.24600533606873845,0.2961716719712971,2.2065700588851453
1781555841476540160,1.8229880332946777,-0.034342169761657715,0.006850888952612877,-0.01915617100894451,0.2831099331378937,-0.2431197613477707,-0.9277615547180176,-0.012892067432403564,-0.0016464591026306152,0.015545427799224854,-0.4262784922929303,0.07612267177093618,-0.1741394540377697,-0.8844023450546005,0.2455808287905977,0.29617829461743783,2.2064934923892783
1781555841486576128,1.833024024963379,-0.03923998773097992,0.020030606538057327,-0.018749240785837173,0.28323790431022644,-0.2427581399679184,-0.9278172254562378,-0.01248595118522644,0.002279624342918396,0.007651209831237793,-0.4263348187976422,0.0762503694766909,-0.17400365665467338,-0.8843909269070593,0.24520802822031773,0.29628771531806103,2.206422701829835
1781555841496611072,1.8430590629577637,-0.018766669556498528,0.00996479019522667,-0.018762556836009026,0.28338736295700073,-0.24248608946800232,-0.9278427362442017,-0.005448520183563232,0.012047842144966125,0.0015579462051391602,-0.4263902170970555,0.07636825734939137,-0.1739152844136058,-0.8843714915908761,0.24492759701384595,0.29642738965196813,2.206328855015125
1781555841506646272,1.8530941009521484,-0.023192310705780983,0.00012627383694052696,-0.023085664957761765,0.28343966603279114,-0.24228478968143463,-0.9278793334960938,0.005989044904708862,0.013631820678710938,-0.00254058837890625,-0.42646438319339053,0.0764222634130835,-0.17383894790276783,-0.8843459243018795,0.24472010970375335,0.2964679311403454,2.206196251153953
1781555841516680960,1.863128900527954,-0.028146855533123016,-0.01109255850315094,-0.02046245150268078,0.2834121286869049,-0.24200023710727692,-0.9279619455337524,0.010746777057647705,0.00899854302406311,0.002058684825897217,-0.4265528864475252,0.07645534982964719,-0.17370547691351956,-0.8843265599600397,0.24442683207798882,0.2964159023173572,2.2060676266894865
1781555841526716928,1.8731648921966553,-0.03960723802447319,-0.014083554968237877,-0.02396956831216812,0.28331121802330017,-0.24164420366287231,-0.9280855655670166,0.011702179908752441,-0.0026184767484664917,0.002182304859161377,-0.42664847194619143,0.0764693085988141,-0.17352135049255502,-0.8843154584829472,0.24405990645772452,0.29627923421777375,2.205955260481109
1781555841536751872,1.88319993019104,-0.06288246065378189,-0.014865059405565262,-0.02077191136777401,0.28322044014930725,-0.2410966455936432,-0.9282556772232056,0.010801166296005249,-0.008231967687606812,0.0008875131607055664,-0.4267430157139247,0.07653062607399598,-0.173249037974259,-0.8843179359549319,0.24349566876467774,0.2961386018650208,2.205887047490855
1781555841546787072,1.8932349681854248,-0.059064559638500214,-0.01618572138249874,-0.025568796321749687,0.2831226885318756,-0.24046476185321808,-0.9284493923187256,0.01303514838218689,-0.0015701502561569214,0.002515554428100586,-0.4268322680331743,0.07660852469763968,-0.17293480467664207,-0.884329618597054,0.24284463094733175,0.2959840329974044,2.205851463064752
1781555841556822016,1.9032700061798096,-0.05470283329486847,-0.02444804646074772,-0.02528437040746212,0.282989501953125,-0.2398741990327835,-0.928642749786377,0.017303466796875,0.0029509663581848145,0.002769947052001953,-0.4269347896061869,0.07665848483091678,-0.17263286995045293,-0.8843348987714876,0.24223626045421515,0.29579471476214725,2.205783822888035
1781555841566857984,1.9133059978485107,-0.05724775046110153,-0.031946707516908646,-0.024577833712100983,0.2827547490596771,-0.23932099342346191,-0.9288569688796997,0.010549694299697876,-0.002500295639038086,0.002389073371887207,-0.4270457838376994,0.07665204229660591,-0.17232525398936424,-0.88434182912857,0.24166646635102176,0.2954991374431637,2.2057091341927033
1781555841576893184,1.9233410358428955,-0.08190249651670456,-0.013149717822670937,-0.022188978269696236,0.2825957238674164,-0.23856239020824432,-0.9291004538536072,-0.003634542226791382,-0.006310656666755676,0.008324086666107178,-0.4271503132151265,0.07672715189412807,-0.17193813188574752,-0.8843600965618625,0.24088523124836647,0.29526944230834473,2.205679836297145
1781555841586928128,1.9333760738372803,-0.07614260911941528,-0.009835412725806236,-0.021416395902633667,0.2825612425804138,-0.2377561777830124,-0.9293175935745239,-0.01660051941871643,-0.00400407612323761,0.013012051582336426,-0.4272170806469734,0.07687724242067219,-0.17155494235162677,-0.8843893238456254,0.2400551308840793,0.2951704205695975,2.2057208640748756
1781555841596963072,1.943411111831665,-0.07119738310575485,-0.008028591983020306,-0.016293272376060486,0.282516747713089,-0.23698577284812927,-0.9295278191566467,-0.019333183765411377,-0.0011123567819595337,0.017525315284729004,-0.4272799593288905,0.07701558662928527,-0.17118608683228798,-0.8844182801132963,0.23926206300548786,0.2950636621046431,2.205763743047399
1781555841606998016,1.9534459114074707,-0.06798455119132996,-0.004769681021571159,-0.003989468328654766,0.2824706733226776,-0.23630291223526,-0.9297156929969788,-0.016555756330490112,-0.004862263798713684,0.01867443323135376,-0.42729621409678764,0.07714280442501428,-0.17085415528816558,-0.8844635977680145,0.23855922961379203,0.29496206944534953,2.2058925598037904
1781555841617033984,1.9634819030761719,-0.07330421358346939,0.007558224257081747,-0.010439909994602203,0.2825036346912384,-0.2356148660182953,-0.9298803210258484,-0.020159244537353516,-0.006420046091079712,0.012811779975891113,-0.4272897286270875,0.07731172584640833,-0.17053665645099766,-0.884513287664828,0.23785119629607557,0.29494527228915984,2.2060572190832017
1781555841627068928,1.9735169410705566,-0.06038921698927879,0.019707297906279564,-0.011216754093766212,0.2826758623123169,-0.2349303960800171,-0.9300011396408081,-0.019309163093566895,0.0018066167831420898,0.010369181632995605,-0.42730882590957475,0.077538687295217,-0.1702562569835291,-0.8845382194790297,0.23714696544446984,0.2950786922667545,2.206134130195027
1781555841637104128,1.9835519790649414,-0.03647642582654953,0.022804420441389084,-0.005075505468994379,0.2828889787197113,-0.2344437837600708,-0.9300590753555298,-0.013723939657211304,0.0135422945022583,0.006291985511779785,-0.42730467906412384,0.07774496286600505,-0.17007695723822594,-0.8845565082020841,0.23664636832024571,0.29527109957514935,2.2062098237860783
1781555841647139072,1.9935870170593262,-0.021222636103630066,0.03375187888741493,-0.007980214431881905,0.28317174315452576,-0.23415020108222961,-0.9300470352172852,-0.010314077138900757,0.022724419832229614,0.00031375885009765625,-0.4272939789398389,0.07794159205558635,-0.17000471991051008,-0.884558221053489,0.23634437558450208,0.29555297099102734,2.2062422308766823
1781555841657175040,2.0036230087280273,-0.009637354873120785,0.029598677530884743,-0.010654561221599579,0.2834874391555786,-0.23397196829319,-0.9299957156181335,-0.009882092475891113,0.024407759308815002,-0.003643810749053955,-0.4273105552531725,0.07812249893926454,-0.16999713270334765,-0.8845358284325315,0.23616105650100197,0.2958789740486226,2.2061803411538583
1781555841667209984,2.013658046722412,0.0017575130332261324,0.027924615889787674,-0.01355181448161602,0.28378450870513916,-0.2338753044605255,-0.9299294352531433,-0.00602877140045166,0.02499772608280182,-0.0012381672859191895,-0.4273398032221824,0.07827436633906122,-0.1700247501402851,-0.8845029992401232,0.23606162358822344,0.2961911223858725,2.2060748993778376
1781555841677245184,2.023693084716797,0.0034155971370637417,0.033977579325437546,-0.012835689820349216,0.2841196656227112,-0.2338763028383255,-0.9298267960548401,-0.0030222833156585693,0.022130087018013,-0.004621446132659912,-0.4273790107110954,0.078420111952826,-0.17010842888125016,-0.884455064396881,0.23606265708864094,0.29655163690264463,2.205916731976452
1781555841687279872,2.0337278842926025,-0.0012635767925530672,0.027645383030176163,-0.007527743931859732,0.2844417095184326,-0.23385104537010193,-0.9297347068786621,0.004513978958129883,0.01819857954978943,-0.0007920265197753906,-0.42739304463425937,0.07857050691535471,-0.17017441679820422,-0.8844220895236224,0.23603668396785368,0.29689608716557664,2.2058237442984785
1781555841697316096,2.043764114379883,-0.011769214645028114,0.021677104756236076,-0.004234212916344404,0.2846837043762207,-0.23377671837806702,-0.9296793341636658,0.015929698944091797,0.011974960565567017,-0.0019765496253967285,-0.42739595406339265,0.0786972658766057,-0.17019718537619422,-0.8844050407925453,0.23596022569918895,0.29715074116309736,2.205784061676963
1781555841707351040,2.0537989139556885,-0.029332760721445084,0.014514267444610596,-0.001483700005337596,0.2848512530326843,-0.23357436060905457,-0.9296788573265076,0.024474918842315674,0.005150303244590759,-0.0024347305297851562,-0.42738698555826665,0.07882059857334937,-0.17014077889651008,-0.8844092544608847,0.23575211559223774,0.2973156429730933,2.2058158685712703
1781555841717385984,2.0638339519500732,-0.031884871423244476,0.003030716907233,0.005093508865684271,0.28494977951049805,-0.2332710176706314,-0.9297248125076294,0.028709888458251953,0.004663839936256409,-0.0031059980392456055,-0.4273599291497383,0.07893818675933836,-0.17001867910945836,-0.884435321224595,0.23544014918963216,0.2973986843686689,2.2059258839178177
1781555841727420928,2.073868989944458,-0.009553198702633381,0.000838935375213623,0.001036182977259159,0.2849472761154175,-0.23310282826423645,-0.9297677874565125,0.02849876880645752,0.00631144642829895,-0.005229771137237549,-0.42733744019946374,0.07897863813126141,-0.16993672109876173,-0.8844582932961342,0.2352671933101891,0.2973832721132842,2.206015532739139
1781555841737457152,2.083904981613159,-0.00030111047090031207,0.00018526287749409676,0.0018010428175330162,0.28492963314056396,-0.2329869121313095,-0.9298022389411926,0.023755669593811035,0.01060532033443451,-0.006690680980682373,-0.4273334654670123,0.0789970090939345,-0.16987746631476086,-0.8844700140200256,0.23514800372924272,0.29735553842648915,2.2060547399557215
1781555841747492096,2.093940019607544,-0.003231919137760997,-0.002245403826236725,0.006455715745687485,0.2848944664001465,-0.2329338788986206,-0.9298263192176819,0.020967960357666016,0.012810587882995605,-0.004911839962005615,-0.42731523272899513,0.07899616094042242,-0.1698424511750062,-0.8844856094005202,0.23509346656003896,0.29731372603861317,2.206115284183841
1781555841757527040,2.1039750576019287,-0.0036982386372983456,-0.007953091524541378,-0.0020584100857377052,0.2848361134529114,-0.23286016285419464,-0.9298626184463501,0.013930946588516235,0.012584298849105835,-0.001823723316192627,-0.42731297337987667,0.07898620618777334,-0.1697935847970389,-0.8844969679610919,0.23501766055617845,0.2972454171696031,2.206149229725915
1781555841767562240,2.1140100955963135,-0.013864323496818542,-0.015010202303528786,-0.0014562694123014808,0.2847496569156647,-0.23273898661136627,-0.9299194812774658,0.006449073553085327,0.005871310830116272,0.0025360584259033203,-0.4273311728710189,0.0789699589566096,-0.1697174632806994,-0.88450427729511,0.23489307084209493,0.2971432978099396,2.206153629083156
1781555841777596928,2.124044895172119,-0.026257876306772232,-0.01609104685485363,-0.004109044559299946,0.28464779257774353,-0.2325081080198288,-0.9300084114074707,-0.0030926167964935303,0.00014725327491760254,0.004074573516845703,-0.42735210710790233,0.07897044745688094,-0.16958615606663813,-0.8845193581596781,0.23465566562116713,0.2970163625193523,2.2061800028707683
1781555841787632896,2.1340808868408203,-0.0372743085026741,-0.016173338517546654,-0.006520270369946957,0.28456664085388184,-0.23218896985054016,-0.9301129579544067,-0.010732412338256836,0.001186177134513855,0.0032635927200317383,-0.42737812334768555,0.07899901720288256,-0.1694186363778332,-0.8845363359923198,0.23432756095500404,0.29690513496804394,2.2062104772856195
1781555841797668096,2.144115924835205,-0.03437545895576477,-0.015045490115880966,-0.011729945428669453,0.28449565172195435,-0.2318050116300583,-0.930230438709259,-0.013636887073516846,0.006402179598808289,0.002679169178009033,-0.4274226090826057,0.07904307606072875,-0.16922463258673884,-0.8845479682322339,0.23393282924581446,0.2968000231106731,2.206211571452894
1781555841807703040,2.15415096282959,-0.01147067453712225,-0.022803809493780136,-0.022113878279924393,0.2844027280807495,-0.23153869807720184,-0.9303251504898071,-0.0167178213596344,0.010683000087738037,-0.0013306736946105957,-0.4275068129723886,0.07904343655598724,-0.16908446121451687,-0.8845340137156379,0.2336590659523522,0.29668020740681805,2.206100660706766
1781555841817737984,2.1641860008239746,0.0042843203991651535,-0.0193152017891407,-0.022413749247789383,0.284302294254303,-0.23142798244953156,-0.9303833842277527,-0.020157426595687866,0.014371722936630249,0.0008485317230224609,-0.4276287481573888,0.07899867940029197,-0.16901924381315497,-0.8844915642333498,0.23354525364362433,0.29656398279716684,2.2058707804195317
1781555841827773952,2.174221992492676,0.009431411512196064,-0.0196656733751297,-0.022531460970640182,0.28421205282211304,-0.23140065371990204,-0.9304177761077881,-0.023057907819747925,0.011124774813652039,0.003904104232788086,-0.4277504660212147,0.07894015171357001,-0.16899574047228713,-0.8844425016661371,0.23351717099456187,0.2964649458302576,2.2056204738665692
1781555841837809152,2.1842570304870605,0.0020222312305122614,-0.017367498949170113,-0.023762641474604607,0.284128874540329,-0.23137250542640686,-0.9304502010345459,-0.02320358157157898,-0.0010035932064056396,0.0054624080657958984,-0.42787564140301776,0.07888438543902711,-0.16897385958102393,-0.8843909828907458,0.23348822947704675,0.29637344010973843,2.2053605594462096
1781555841847844096,2.1942920684814453,-0.026285571977496147,-0.012018006294965744,-0.0178229920566082,0.28406238555908203,-0.23119834065437317,-0.9305137991905212,-0.02449515461921692,-0.007769539952278137,0.00763171911239624,-0.42797955729153675,0.0788727253047812,-0.16888519052177656,-0.8843586928025006,0.2333092188189786,0.2962889812368652,2.205178729394195
1781555841857879040,2.20432710647583,-0.03852919116616249,-0.00799623504281044,-0.00834293756633997,0.2839868664741516,-0.23085923492908478,-0.9306210279464722,-0.01924687623977661,-0.009680315852165222,0.011233210563659668,-0.42803782341483604,0.07890227617120492,-0.16871254860725532,-0.8843608615672476,0.23296067775277815,0.29618258061501196,2.2051394081518274
1781555841867915264,2.2143630981445312,-0.04991127550601959,0.0024481508880853653,-0.007729079108685255,0.2839387357234955,-0.23042966425418854,-0.9307421445846558,-0.009875655174255371,-0.0068292319774627686,0.009309709072113037,-0.42805791928415526,0.07897172181755331,-0.16850041137005853,-0.8843853982349447,0.23251920726428676,0.29609893926884234,2.2052010978614947
1781555841877949952,2.224397897720337,-0.034036170691251755,0.007884328253567219,-0.0026421749498695135,0.28396469354629517,-0.22998765110969543,-0.9308435916900635,-0.005705416202545166,0.00031235814094543457,0.008739709854125977,-0.4280582165221157,0.07908161189860802,-0.16829829127745233,-0.8844139572668076,0.23206499069401895,0.29609403708509774,2.205295164779841
1781555841887984896,2.2344329357147217,-0.016755716875195503,0.015103625133633614,-0.004129284527152777,0.2840419411659241,-0.2297281175851822,-0.930884063243866,-0.0034785866737365723,0.00714816153049469,0.006476104259490967,-0.4280579594210037,0.0791746021440406,-0.16819437011470809,-0.8844254194491198,0.2317983176402633,0.29615780612565107,2.20533833410745
1781555841898020096,2.2444679737091064,0.006058784667402506,0.024801526218652725,0.0034681817051023245,0.2841925024986267,-0.22965873777866364,-0.9308552742004395,-0.001523435115814209,0.014998093247413635,0.003380298614501953,-0.42803733679551614,0.0792628511996872,-0.1681956391172505,-0.8844273856270024,0.23172703565214164,0.29631440785125185,2.205370218145916
1781555841908056064,2.2545039653778076,0.01560781430453062,0.024752791970968246,0.0054586282931268215,0.2843729555606842,-0.22975978255271912,-0.9307751655578613,-0.0012614130973815918,0.01607571542263031,0.0017285943031311035,-0.42799955990418825,0.07933025623049396,-0.16828284922089642,-0.884422898308366,0.23183085350637714,0.29651577170786125,2.2053955762940993
1781555841918091008,2.2645390033721924,0.02314882166683674,0.025700341910123825,0.0018620291957631707,0.28455257415771484,-0.22997713088989258,-0.9306666254997253,0.004281044006347656,0.017864704132080078,-5.84721565246582e-05,-0.42796187552572373,0.0793714680719027,-0.16842465446350352,-0.8844104734735442,0.23205418508435288,0.2967248788439561,2.2053949508694544
1781555841928126208,2.274574041366577,0.02623116411268711,0.020292261615395546,0.00047319073928520083,0.284706175327301,-0.23024612665176392,-0.930553138256073,0.009879976511001587,0.019064486026763916,-0.002353966236114502,-0.4279451708847371,0.07938532513423398,-0.16858650373794823,-0.8843865257272918,0.23233060242616052,0.2969099279449079,2.2053404737432403
1781555841938161152,2.284609079360962,0.02509133145213127,0.01399654895067215,0.004364601336419582,0.28481316566467285,-0.2305215299129486,-0.9304522275924683,0.014121770858764648,0.02167448401451111,-0.004545331001281738,-0.4279248468500109,0.07937710729125191,-0.16873996441371178,-0.8843678432027593,0.23261360754036545,0.2970454076010686,2.2053021038063627
1781555841948197120,2.294645071029663,0.027574196457862854,0.009851871989667416,0.004231443628668785,0.28489962220191956,-0.2308037132024765,-0.9303557872772217,0.015332311391830444,0.0213005393743515,-0.00876164436340332,-0.4279030428269588,0.07935826718003536,-0.16889163904968466,-0.8843510653890883,0.23290361806511983,0.29715938544359904,2.2052694782836455
1781555841958232064,2.304680109024048,0.031366802752017975,0.006029436830431223,0.007437623105943203,0.28496479988098145,-0.23109489679336548,-0.9302635192871094,0.017647504806518555,0.02235466241836548,-0.011875152587890625,-0.4278771273301701,0.07932847138780079,-0.1690420992916744,-0.8843376035243982,0.23320288778906248,0.2972511885933501,2.205248763679404
1781555841968267008,2.3147149085998535,0.028676480054855347,-0.006514051929116249,6.119973841123283e-05,0.2849454879760742,-0.23136001825332642,-0.9302035570144653,0.02341938018798828,0.022268831729888916,-0.011050105094909668,-0.42787064450255907,0.079262048645259,-0.16916192802611857,-0.8843237697283224,0.233475399984483,0.29725025733633714,2.20520711844152
1781555841978301952,2.3247499465942383,0.028620818629860878,-0.021149586886167526,0.0003717243089340627,0.28480052947998047,-0.231584832072258,-0.9301919937133789,0.02512073516845703,0.016161248087882996,-0.0033102035522460938,-0.4278954516852055,0.07914104884804703,-0.16923563037405742,-0.884308524219988,0.23370648727680932,0.2971112654888543,2.2051297845060787
1781555841988337920,2.3347859382629395,0.028317751362919807,-0.023903561756014824,0.0013200759422034025,0.28456544876098633,-0.23181460797786713,-0.9302067160606384,0.01627686619758606,0.0060303062200546265,0.0027775168418884277,-0.4279265053074235,0.07897647470116187,-0.1692907875037647,-0.8842975769157058,0.2339426964857241,0.29687576610380867,2.205055503875044
1781555841998373120,2.344820976257324,0.021853992715477943,-0.010211184620857239,0.006967308931052685,0.2843932807445526,-0.23202013969421387,-0.9302080869674683,0.0035858154296875,-0.001988634467124939,0.002260148525238037,-0.42793800373857677,0.07884983978618204,-0.16934771194612736,-0.8842924939385941,0.23415397929476348,0.2967060977091605,2.2050184263269306
1781555842008408064,2.354856014251709,0.01654924266040325,0.0035722709726542234,0.012283777818083763,0.2843645215034485,-0.2321581244468689,-0.9301824569702148,-0.006273120641708374,-0.0032391995191574097,0.006751120090484619,-0.4279106119567956,0.07881129652791105,-0.16940349677293617,-0.8842984719657213,0.23429584440777626,0.29668552867794673,2.205054864631328
1781555842018443008,2.3648910522460938,0.03104056790471077,0.011718082241714,0.011700279079377651,0.2844477891921997,-0.2323532998561859,-0.9301083087921143,0.000525355339050293,0.0007553994655609131,0.007973909378051758,-0.42786906824957766,0.07881407534395711,-0.1695116512995336,-0.8842976439983963,0.23449650281319054,0.2967896911662209,2.2050874004682326
1781555842028478976,2.374927043914795,0.024389322847127914,-0.0014206231571733952,0.009702642448246479,0.2845040261745453,-0.2326139211654663,-0.9300259351730347,0.0004691183567047119,-0.005835175514221191,0.004900813102722168,-0.4278331782040773,0.07878887585122187,-0.1696447476552303,-0.8842917735465353,0.234764466375966,0.2968697342693526,2.2050977878919715
1781555842038514176,2.3849620819091797,0.008089710958302021,0.010200345888733864,0.009514623321592808,0.28454485535621643,-0.23270724713802338,-0.9299901127815247,-0.015974879264831543,-0.010288968682289124,0.011639893054962158,-0.42779574718052216,0.07879404780434447,-0.16969517751551416,-0.8842996190422515,0.23486042499716242,0.29692066605857276,2.2051524583162356
1781555842048548864,2.3949968814849854,-0.004862838890403509,0.027891192585229874,0.011873651295900345,0.28477567434310913,-0.23266173899173737,-0.9299308061599731,-0.03262421488761902,-0.011784061789512634,0.009886860847473145,-0.42773341013283583,0.07892182163594448,-0.1697231273984001,-0.8843129926618037,0.23481362964095695,0.29716547116735814,2.2052561125188728
1781555842058584064,2.40503191947937,-0.009494076482951641,0.0207415372133255,0.01666148193180561,0.28502872586250305,-0.23256802558898926,-0.9298767447471619,-0.039133310317993164,-0.005728468298912048,0.014547765254974365,-0.42765396289921326,0.07907373405135652,-0.16973209193174327,-0.8843360733332868,0.23471728512313972,0.2974305121732539,2.2054047857220684
1781555842068619008,2.415066957473755,-0.01698315143585205,0.024572759866714478,0.020599763840436935,0.2852303683757782,-0.2325085699558258,-0.9298297762870789,-0.0357796847820282,-0.0035754144191741943,0.013951480388641357,-0.427546968926872,0.07919981732019733,-0.1697424733073667,-0.8843745628864059,0.23465614475772967,0.29764289394068355,2.2056187652619195
1781555842078654976,2.425102949142456,-0.018110200762748718,0.030356083065271378,0.01810677908360958,0.28545379638671875,-0.23238426446914673,-0.9297922849655151,-0.03371429443359375,0.0002980828285217285,0.006437182426452637,-0.42741845473401036,0.0793543789961595,-0.16972550145736837,-0.8844260871135632,0.23452834685272536,0.2978738076587039,2.2058916226538345
1781555842088689920,2.435137987136841,-0.010760409757494926,0.033416055142879486,0.013963433913886547,0.28569743037223816,-0.2322876900434494,-0.9297415614128113,-0.02686259150505066,0.0014222115278244019,-0.0010140538215637207,-0.4273173354171355,0.07950680754185553,-0.16972884804182214,-0.8844605987418078,0.23442904208877355,0.2981285735799838,2.2060919803676273
1781555842098725120,2.4451730251312256,0.007888908497989178,0.03689108043909073,0.01990228146314621,0.2859753370285034,-0.23231758177280426,-0.9296486973762512,-0.014262109994888306,0.006045013666152954,-0.0030447840690612793,-0.42721727257320424,0.07964671176065335,-0.16980008103173838,-0.8844827237991449,0.23445977439113325,0.2984297443757809,2.206254168548967
1781555842108760064,2.4552080631256104,0.03818875551223755,0.03014715574681759,0.01695549488067627,0.286241739988327,-0.23261097073554993,-0.9294933080673218,0.0005319416522979736,0.014150887727737427,-0.006999611854553223,-0.4271080932067014,0.07972475918289497,-0.1699921028076808,-0.884491531007124,0.23476143478015116,0.29873853954295587,2.2063789534998133
1781555842118796032,2.4652440547943115,0.06176865100860596,0.02665548585355282,0.01370936818420887,0.28646352887153625,-0.23315425217151642,-0.9292888641357422,0.012044161558151245,0.02317805588245392,-0.0053272247314453125,-0.42702877967995373,0.07972130094299701,-0.17029414341850851,-0.8844720789452218,0.23532007428324717,0.2990183798483511,2.2063882022856776
1781555842128831232,2.4752790927886963,0.08646254986524582,0.014706680551171303,0.010828626342117786,0.2865554690361023,-0.23392492532730103,-0.9290667772293091,0.024052441120147705,0.033607542514801025,-0.001917719841003418,-0.42698463516783514,0.07960122047199818,-0.17067586566856444,-0.8844306109093117,0.2361126652992251,0.29917601238182884,2.206292275432689
1781555842138865920,2.485313892364502,0.0959969311952591,0.0076417140662670135,0.004610144998878241,0.2865431606769562,-0.2348269373178482,-0.9288430213928223,0.030717581510543823,0.029825106263160706,-0.0006918907165527344,-0.4269787326270145,0.07939689011549234,-0.17109831150662724,-0.8843702311426009,0.2370405253555882,0.2992317907875632,2.2061011249708136
1781555842148900864,2.4953489303588867,0.08195248246192932,-0.0021342169493436813,0.0018308702856302261,0.2864912152290344,-0.23569492995738983,-0.9286391735076904,0.027992427349090576,0.018363982439041138,0.0033614635467529297,-0.4269951825048305,0.07917754165526894,-0.17149732137526325,-0.8843047186921128,0.2379335751018528,0.2992425241396024,2.2058752229852177
1781555842158937088,2.505384922027588,0.0517871230840683,-0.00871369056403637,0.0027366115245968103,0.2863614559173584,-0.23633913695812225,-0.9285154342651367,0.0248262882232666,0.004497110843658447,0.006442070007324219,-0.4270162982623057,0.07897118799337743,-0.17177261685003786,-0.8842594303616022,0.2385965247102193,0.299152456759384,2.205705909934995
1781555842168972032,2.5154199600219727,0.03212420642375946,-0.017167095094919205,-0.003455504309386015,0.2861803472042084,-0.23670192062854767,-0.9284788370132446,0.02319157123565674,-0.0007248222827911377,0.007595717906951904,-0.4270483724691779,0.07880154934860156,-0.17190370844570882,-0.8842335934328824,0.23896989552243278,0.29898543603790284,2.2055876316275205
1781555842179006976,2.5254549980163574,0.017365502193570137,-0.021175019443035126,0.00045215178397484124,0.28596970438957214,-0.23689250648021698,-0.9284951686859131,0.017909079790115356,-0.00317402184009552,0.011213064193725586,-0.427081057983307,0.07865642857563757,-0.17194647345399047,-0.8842224058087421,0.23916606114731445,0.29877330854516637,2.2055138591957446
1781555842189042176,2.535490036010742,0.012220806442201138,-0.023156680166721344,0.0025818818248808384,0.28574931621551514,-0.23699519038200378,-0.9285368323326111,0.006792187690734863,-0.009220629930496216,0.014443814754486084,-0.42710352296234827,0.07852831425361527,-0.17194445721916715,-0.8842234120513311,0.23927175347330315,0.2985438713209497,2.205485737973387
1781555842199078144,2.5455260276794434,-0.0017754363361746073,-0.02178208716213703,0.0015640214551240206,0.2855628430843353,-0.23699672520160675,-0.9285938143730164,-0.0016578137874603271,-0.01384250819683075,0.016728579998016357,-0.4271170365204163,0.07843992326298913,-0.17190195377560694,-0.8842330450651015,0.23927332935936543,0.2983431784961427,2.2054939916548273
1781555842209113088,2.555561065673828,-0.01571309007704258,-0.020059555768966675,-0.0023596135433763266,0.2854328751564026,-0.23684349656105042,-0.9286728501319885,-0.005724012851715088,-0.018909066915512085,0.018028318881988525,-0.4271410546762917,0.0784096934025109,-0.17180077637276103,-0.8842436557403709,0.23911561293930808,0.29819139783861975,2.205501809030603
1781555842219148032,2.565596103668213,-0.026645099744200706,-0.022024303674697876,-0.008626031689345837,0.2853146195411682,-0.23654718697071075,-0.9287847280502319,-0.010564863681793213,-0.018991753458976746,0.018887877464294434,-0.427175090708864,0.0784146173111156,-0.17163565232871217,-0.8842589606024428,0.2388106363916654,0.2980412163217235,2.205518011376352
1781555842229182976,2.5756309032440186,-0.02467942051589489,-0.023283444344997406,-0.010699834674596786,0.28519222140312195,-0.23624198138713837,-0.9288999438285828,-0.014470815658569336,-0.01607733964920044,0.01717209815979004,-0.4272278440566959,0.07841600663599631,-0.1714670533383793,-0.884266048579719,0.23849653381480493,0.2978859897140351,2.205494365734348
1781555842239218944,2.5856668949127197,-0.02883954346179962,-0.017472561448812485,-0.012660720385611057,0.2851064205169678,-0.235940083861351,-0.9290030002593994,-0.023158788681030273,-0.008261576294898987,0.015444040298461914,-0.4272943236716576,0.07843077365545893,-0.1713099753842046,-0.8842629581604132,0.2381858489426812,0.29777045307538186,2.2054309645352412
1781555842249253888,2.5957019329071045,-0.03099058009684086,-0.015681585296988487,-0.012931031174957752,0.2850498855113983,-0.23565058410167694,-0.9290938377380371,-0.028259724378585815,-0.001165822148323059,0.01460409164428711,-0.42735408946432596,0.07845752369751574,-0.17116512760568497,-0.8842597616731196,0.2378879492465825,0.2976874377278711,2.205374010394163
1781555842259289088,2.6057369709014893,-0.045528244227170944,-0.004219206515699625,-0.013248213566839695,0.2850542366504669,-0.23528532683849335,-0.9291850924491882,-0.030644476413726807,-0.0007528811693191528,0.014054477214813232,-0.4274027007593539,0.07853113192370667,-0.1709980307806903,-0.8842621131685814,0.23751212346946002,0.2976641854015123,2.2053470253979532
1781555842269324032,2.615772008895874,-0.05832419916987419,0.0013292236253619194,-0.01403251476585865,0.2850944399833679,-0.2347981333732605,-0.9292959570884705,-0.028243273496627808,-0.002674385905265808,0.013097286224365234,-0.42744342997991724,0.0786497284548672,-0.17078123716480814,-0.8842738272879955,0.23701089437284148,0.29767023815793575,2.2053582666595624
1781555842279360000,2.625808000564575,-0.06624151021242142,0.00721773924306035,-0.015744129195809364,0.2851704955101013,-0.23419815301895142,-0.929423987865448,-0.023360222578048706,-0.002374112606048584,0.008601903915405273,-0.42747657214487217,0.07881125830302063,-0.17051913889957596,-0.8842939377663437,0.23639369623360657,0.2977064271307232,2.2054046525910023
1781555842289395200,2.63584303855896,-0.06350910663604736,0.012368558906018734,-0.020607594400644302,0.28530317544937134,-0.23357820510864258,-0.9295393228530884,-0.021631300449371338,0.002758502960205078,0.006245255470275879,-0.4275141544254993,0.07900227060422181,-0.17026153380167774,-0.8843083334133343,0.23575607078365954,0.29780207533989633,2.205433823724873
1781555842299430144,2.6458780765533447,-0.049626849591732025,0.010731913149356842,-0.020501866936683655,0.28545626997947693,-0.23304612934589386,-0.9296258687973022,-0.020578980445861816,0.00627000629901886,0.006743788719177246,-0.42755835020936445,0.07918190237599365,-0.17005088975871643,-0.8843114472808266,0.23520889084688154,0.2979264860898221,2.205423770836765
1781555842309465088,2.6559131145477295,-0.0423676036298275,0.01285738218575716,-0.015495655126869678,0.2855960726737976,-0.2326078861951828,-0.9296926856040955,-0.018994510173797607,0.005435049533843994,0.005177915096282959,-0.4276038066590671,0.07933438969711766,-0.16988148859691293,-0.8843084299726142,0.23475826798276583,0.298043727683417,2.20539229702967
1781555842319501056,2.6659491062164307,-0.05776520445942879,0.019139911979436874,-0.01608394831418991,0.2857537269592285,-0.2321472316980362,-0.9297593832015991,-0.017977237701416016,-0.00044248998165130615,0.007548689842224121,-0.42763496488761515,0.0795027821862135,-0.169704526203068,-0.884312211791525,0.2342846428405873,0.2981785339582844,2.2053943807267657
1781555842329536768,2.6759846210479736,-0.06480686366558075,0.015159551054239273,-0.008810854516923428,0.28590428829193115,-0.231536403298378,-0.9298653602600098,-0.01701393723487854,-0.009918659925460815,0.008799076080322266,-0.4276509461962983,0.0797041341231152,-0.16945371978220858,-0.8843343977749955,0.23365671275496327,0.29829445738347166,2.2054663465715967
1781555842339571712,2.6860196590423584,-0.07695620507001877,0.013181488960981369,-0.00882417056709528,0.28601551055908203,-0.23085910081863403,-0.929999589920044,-0.006337165832519531,-0.013586699962615967,0.005866289138793945,-0.4276449640248344,0.07990639310467798,-0.16916022683705648,-0.8843752409361019,0.2329605410038095,0.2983631709570588,2.2056113286095185
1781555842349606656,2.696054697036743,-0.07300300896167755,0.013799875043332577,-0.006398830097168684,0.2861308157444,-0.23015929758548737,-0.930137574672699,0.0009022653102874756,-0.006443485617637634,0.0005568861961364746,-0.4276409851156294,0.08011511024270654,-0.16885731315466054,-0.8844162481541686,0.23224136764425296,0.298434753721595,2.205756086499144
1781555842359642624,2.7060906887054443,-0.049265991896390915,0.01246536523103714,-0.004905595909804106,0.28625547885894775,-0.22955258190631866,-0.9302490949630737,0.008437484502792358,0.005263671278953552,-0.0005827546119689941,-0.4276249776328364,0.08030974004601811,-0.16859949966527155,-0.8844554403774851,0.23161797041487345,0.2985234743236068,2.205904439910596
1781555842369677568,2.71612548828125,-0.030050748959183693,0.012656047008931637,-0.005002801306545734,0.2863708734512329,-0.22916756570339203,-0.9303085207939148,0.01645505428314209,0.01810799539089203,-0.005986034870147705,-0.4276263302409154,0.08044766790695043,-0.16844556690448195,-0.884471613416922,0.23122239994646535,0.2986188217194817,2.2059652946563943
1781555842379712512,2.7261605262756348,-0.005918515846133232,0.01403290219604969,0.0013973076129332185,0.2865111529827118,-0.22898855805397034,-0.9303094148635864,0.020144730806350708,0.029662996530532837,-0.0019110441207885742,-0.427618695920269,0.08055305578971877,-0.16839387038895515,-0.8844755978955592,0.23103850008243823,0.29875628590016257,2.2059946046296233
1781555842389747712,2.7361955642700195,0.014625640586018562,0.020013296976685524,0.0004047475231345743,0.2866657078266144,-0.22903679311275482,-0.9302499294281006,0.02165338397026062,0.030016407370567322,-0.003313302993774414,-0.4276063848020468,0.08061552338493305,-0.16845230970566588,-0.8844646073094398,0.23108805080122216,0.2989260277909391,2.205979538176657
1781555842399783680,2.7462315559387207,0.011407476849853992,0.023312686011195183,0.005036517046391964,0.2868589162826538,-0.22918319702148438,-0.9301543235778809,0.02193319797515869,0.023250579833984375,-0.0025238990783691406,-0.42758790391454743,0.08067511497617873,-0.1685656380672888,-0.8844465714115666,0.2312384593783551,0.29914462807234177,2.205948612735032
1781555842409818624,2.7562665939331055,-0.0058487411588430405,0.024300985038280487,0.013182860799133778,0.28706255555152893,-0.22924011945724487,-0.9300774335861206,0.021302342414855957,0.017829596996307373,0.00011527538299560547,-0.42752875242921534,0.08076707593459294,-0.16863556436014673,-0.8844534432667428,0.2312969383022066,0.29936780454348977,2.2060276875124374
1781555842419853568,2.7663016319274902,-0.016475552693009377,0.021029958501458168,0.012455818243324757,0.28724929690361023,-0.22915992140769958,-0.9300395846366882,0.02316024899482727,0.007251366972923279,0.003464818000793457,-0.42744757101657255,0.08088588411293213,-0.16863480084032662,-0.8844819572426087,0.23121455658488288,0.299562599374526,2.2061911994020527
1781555842429889792,2.7763376235961914,-0.012430744245648384,0.025177031755447388,0.01564016006886959,0.2874356210231781,-0.22907654941082,-0.9300025105476379,0.0218752920627594,0.007305324077606201,0.002069830894470215,-0.4273526303218178,0.0810078327387213,-0.16863114623697661,-0.8845174302156945,0.23112890557478596,0.2997567137417635,2.206386812801186
1781555842439924736,2.786372661590576,-0.01009355392307043,0.016435472294688225,0.01641780138015747,0.2876220643520355,-0.2289983183145523,-0.9299641251564026,0.01645505428314209,0.019327297806739807,-0.0018138289451599121,-0.42725146081022053,0.08112990083742178,-0.16862938565649302,-0.8845553432424179,0.23104852432069045,0.29995137895193436,2.2065948871738823
1781555842449959680,2.796407699584961,0.0019958659540861845,0.0034616165794432163,0.012300821952521801,0.2877276837825775,-0.22895199060440063,-0.9299429059028625,0.020850807428359985,0.02974851429462433,-0.003528773784637451,-0.4271862121657211,0.0812009887317797,-0.16862668534509942,-0.8845808734383339,0.23100094493463524,0.30006146531587596,2.2067313809442584
1781555842459994624,2.8064424991607666,0.009937145747244358,-0.008224200457334518,0.012346894480288029,0.2877283990383148,-0.2289535254240036,-0.92994225025177,0.017371058464050293,0.0221053808927536,-0.0007827877998352051,-0.42714296807442886,0.08120923058908326,-0.16862360894418352,-0.8846015834258304,0.23100251027185464,0.30006236702367844,2.20682865005513
1781555842470029568,2.8164775371551514,-0.006137161515653133,-0.007328579667955637,0.011735699139535427,0.2876719534397125,-0.22894087433815002,-0.9299628734588623,0.0027638375759124756,-0.0032368600368499756,0.0012671947479248047,-0.4271100532566379,0.0811924242879015,-0.16860119292373826,-0.88462327618552,0.2309895239505336,0.3000007101297418,2.206917479927445
1781555842480065536,2.8265135288238525,-0.033322446048259735,0.003973209764808416,0.014241999946534634,0.28767555952072144,-0.22873885929584503,-0.9300114512443542,-0.011811912059783936,-0.020208284258842468,-0.00016433000564575195,-0.42705724901601105,0.08124885154274504,-0.16850191099897818,-0.8846625962818241,0.23078199301776608,0.29998950719437495,2.2070823503759174
1781555842490100736,2.8365485668182373,-0.03387158736586571,0.007292041089385748,0.01162917260080576,0.28774338960647583,-0.2284119427204132,-0.9300708174705505,-0.01523667573928833,-0.016506880521774292,-0.0001659989356994629,-0.42698548480256604,0.08136593544528681,-0.16835727635998243,-0.884714019583135,0.23044618750188914,0.3000380475883877,2.2073051252669886
1781555842500135680,2.846583604812622,-0.017293941229581833,0.00089592719450593,0.012745569460093975,0.287788987159729,-0.22819383442401886,-0.9301102757453918,-0.007088303565979004,-0.00648634135723114,-0.0025069117546081543,-0.42691620886163245,0.08144826288911362,-0.1682588909618948,-0.8847586091276934,0.23022217009212947,0.30007082693317055,2.2075020577083655
1781555842510171648,2.8566195964813232,-0.01442625094205141,-0.008063478395342827,0.010121556930243969,0.28778040409088135,-0.2280666083097458,-0.9301440715789795,-0.011993080377578735,-0.0026920437812805176,-0.0009624361991882324,-0.4268595507656738,0.08148323488939792,-0.16819165304308267,-0.8847953898618621,0.23009149108096513,0.30005212151100785,2.207660518803753
1781555842520206592,2.866654634475708,-0.01186455599963665,0.012921297922730446,0.012263004668056965,0.28781750798225403,-0.22794751822948456,-0.9301618337631226,-0.023932039737701416,-0.0005223304033279419,0.004594206809997559,-0.42680815499933367,0.08153634903198771,-0.16813956174938893,-0.8848252916418851,0.2299691811326288,0.3000831539193972,2.2077964360820332
1781555842530241792,2.8766896724700928,-0.013382824137806892,0.016022814437747,0.011301870457828045,0.2879955470561981,-0.22778044641017914,-0.930147647857666,-0.03099176287651062,0.0004702657461166382,0.005175113677978516,-0.42674640258528074,0.08166663294445124,-0.16809740341035112,-0.8848510492790193,0.22979759501733088,0.30026210934096564,2.207937577787935
1781555842540276480,2.8867244720458984,-0.001968515571206808,0.012278810143470764,0.01063767820596695,0.2881530523300171,-0.22766397893428802,-0.9301273822784424,-0.02615964412689209,0.001742348074913025,0.012082338333129883,-0.42668924320905866,0.08177546321615634,-0.16807465823724912,-0.8848728171304314,0.22967797995060854,0.3004228106270034,2.2080609143114605
1781555842550312448,2.8967604637145996,0.006894484627991915,0.018654683604836464,0.004832785110920668,0.28827205300331116,-0.22771188616752625,-0.9300787448883057,-0.019320636987686157,0.008580401539802551,0.010355234146118164,-0.4266328436483584,0.08183014575448029,-0.1681203266282151,-0.8848862661069355,0.2297271812594097,0.3005543016432187,2.2081531547571274
1781555842560347648,2.9067955017089844,0.014079959131777287,0.018162531778216362,-0.0030387197621166706,0.28843238949775696,-0.22784948348999023,-0.9299953579902649,-0.014659196138381958,0.017140880227088928,0.008395016193389893,-0.4266136087057748,0.08187691370416476,-0.16822157102117055,-0.8848719563462876,0.22986850576643436,0.3007369565121753,2.208132511498963
1781555842570382592,2.916830539703369,0.023840710520744324,0.013130223378539085,-0.004277888685464859,0.28855738043785095,-0.22807025909423828,-0.9299024939537048,-0.011122077703475952,0.01598834991455078,0.005662381649017334,-0.42662823066693767,0.08188265897488398,-0.16835675292539232,-0.884838780984035,0.23009524588283967,0.30088783518006146,2.2080239141743934
1781555842580417536,2.926865577697754,0.01211081724613905,0.008775422349572182,-0.0023508251179009676,0.2886395752429962,-0.22825120389461517,-0.9298325777053833,-0.008152514696121216,0.006144270300865173,0.0018388032913208008,-0.42663758116088596,0.08187857125930449,-0.1684625029825548,-0.8848145717930308,0.23028109132015062,0.30098973248135696,2.2079448434618194
1781555842590453504,2.936901569366455,-0.0071547552943229675,0.0029942321125417948,-0.006024922244250774,0.28867077827453613,-0.22826845943927765,-0.9298186302185059,-0.006505250930786133,-0.005450412631034851,0.0006651878356933594,-0.4266503205259045,0.08188664603069667,-0.16847926659741524,-0.8848043716375849,0.23029881110025854,0.30102459827798483,2.2079054255863535
1781555842600488704,2.94693660736084,-0.014605481177568436,-0.00986257754266262,-0.01237922441214323,0.2886076867580414,-0.2281235307455063,-0.9298737645149231,-0.0008574724197387695,-0.011531010270118713,0.003222823143005371,-0.4266872769483304,0.08188271068612796,-0.16839931254859028,-0.8848021504981864,0.23014995392310292,0.30094590066219273,2.207867882338619
1781555842610523648,2.9569716453552246,-0.019854038953781128,-0.013134004548192024,-0.011091852560639381,0.28844526410102844,-0.22793500125408173,-0.929970383644104,0.00293654203414917,-0.00590592622756958,0.004677474498748779,-0.42674654758817526,0.0818386329167861,-0.16827724801981409,-0.8848008814523313,0.22995633342322333,0.300757163467236,2.2078101184948746
1781555842620558848,2.9670066833496094,-0.027588924393057823,-0.008191710337996483,-3.0413008062168956e-05,0.28830963373184204,-0.22769761085510254,-0.9300706386566162,0.005467832088470459,-0.002572774887084961,0.007264852523803711,-0.42676821466763887,0.08182480643856696,-0.16813503877486494,-0.8848187373763287,0.22971252802390515,0.3005936364664604,2.2078428823249183
1781555842630594816,2.9770426750183105,-0.04906758666038513,-5.415547639131546e-05,0.002827158896252513,0.2882368862628937,-0.22734057903289795,-0.9301804900169373,0.005845755338668823,-0.004837170243263245,0.010228097438812256,-0.4267460703240464,0.08187459197025,-0.16794731921488168,-0.8848604861606256,0.2293458719376223,0.3004888961220643,2.207989033575138
1781555842640629504,2.987077474594116,-0.045180968940258026,0.007401098031550646,0.010660847648978233,0.2882224917411804,-0.22685769200325012,-0.9303028583526611,0.01095658540725708,-0.005640476942062378,0.012181520462036133,-0.4266889623514867,0.08198553869200766,-0.16771091178202588,-0.8849225728535263,0.228850038562675,0.3004375893154894,2.2082306917993657
1781555842650664448,2.997112512588501,-0.044452860951423645,0.015483525581657887,0.013888598419725895,0.2882789075374603,-0.22642725706100464,-0.9303902387619019,0.017003685235977173,-0.0007608532905578613,0.011597514152526855,-0.4266074094349821,0.08212195621407228,-0.1675138116810736,-0.8849865312173167,0.22840810869918027,0.30046637245965413,2.2085010950042987
1781555842660699648,3.0071475505828857,-0.02522510103881359,0.018721796572208405,0.01821836456656456,0.2883940041065216,-0.22613045573234558,-0.9304267168045044,0.018521279096603394,0.016566261649131775,0.01644057035446167,-0.4265080423426318,0.08225908410724692,-0.16739198295314864,-0.885044716653924,0.22810339944690006,0.3005681165466455,2.208769508459472
1781555842670735616,3.017183542251587,-0.006385368295013905,0.024216962978243828,0.018688146024942398,0.28854289650917053,-0.22607441246509552,-0.930394172668457,0.01707535982131958,0.022201746702194214,0.010808050632476807,-0.4264019826777165,0.08235981654150956,-0.1673910645978398,-0.885086630420381,0.22804585949673256,0.3007240329810538,2.2089916259320437
1781555842680770560,3.0272185802459717,-0.0013525263639166951,0.02544334903359413,0.02008231170475483,0.28874415159225464,-0.22611753642559052,-0.9303212761878967,0.013669788837432861,0.021039411425590515,0.0076070427894592285,-0.426296644787019,0.08246252460017749,-0.16744938989991573,-0.8851167664788473,0.22809012724515434,0.3009435290635087,2.2091789282163625
1781555842690805760,3.0372536182403564,-0.014754884876310825,0.02062755450606346,0.021928148344159126,0.2889103591442108,-0.22613753378391266,-0.9302648305892944,0.008895426988601685,0.011705771088600159,0.006055235862731934,-0.4261809079934463,0.08255624372998357,-0.16748747283868518,-0.8851567171671446,0.22811066262212695,0.30112365760513904,2.2094024959795595
1781555842700840704,3.047288656234741,-0.03528892248868942,0.007907630875706673,0.017545649781823158,0.2890215218067169,-0.22597919404506683,-0.9302687644958496,0.003077477216720581,-0.0014530569314956665,0.005723476409912109,-0.42607530855504805,0.08266215237398884,-0.16742936692512664,-0.8852085149120364,0.22794811991982414,0.30123144637348337,2.2096540630009414
1781555842710876672,3.0573246479034424,-0.05267350748181343,-0.0029503428377211094,0.011348742060363293,0.2890096604824066,-0.22561350464820862,-0.9303612112998962,-0.0014577805995941162,-0.007342427968978882,0.00429004430770874,-0.4259939872606707,0.0827527470680368,-0.16724646056080658,-0.8852738964210624,0.22757273328586697,0.3011916690267505,2.20992351877001
1781555842720911616,3.067359685897827,-0.06309285014867783,-0.00814763456583023,0.0061979214660823345,0.28897911310195923,-0.2251313477754593,-0.9304874539375305,-0.005562394857406616,-0.00793139636516571,0.002158045768737793,-0.4259317845613389,0.08285679328082103,-0.1670060349068593,-0.8853393361447957,0.22707783513809796,0.30112327836791125,2.2101791853670374
1781555842730946560,3.077394485473633,-0.0668223425745964,-0.01168937236070633,0.004890576004981995,0.28891780972480774,-0.22453030943870544,-0.9306517243385315,-0.01429012417793274,-0.006594553589820862,0.0015135407447814941,-0.4258864496831713,0.08296970721928938,-0.16670382228849204,-0.8854076021609795,0.2264610178008511,0.3010132128626638,2.2104302763986143
1781555842740981504,3.0874295234680176,-0.06931240111589432,-0.013770099729299545,-0.0011177817359566689,0.28886109590530396,-0.22387981414794922,-0.9308260083198547,-0.016049206256866455,-0.010571479797363281,0.0027101635932922363,-0.42586898677582136,0.08309033487268819,-0.16638203607984184,-0.8854652199612248,0.2257935286963413,0.3009046123472829,2.2106282489685634
1781555842751017472,3.0974655151367188,-0.06133677065372467,-0.023997170850634575,-0.005174841266125441,0.2887393832206726,-0.22321075201034546,-0.931024432182312,-0.019360721111297607,-0.011332094669342041,0.008691668510437012,-0.4258719886887257,0.08318135298743123,-0.16603805412310343,-0.8855198032596099,0.22510709210418356,0.30072502179175675,2.210797029942426
1781555842761052672,3.1075005531311035,-0.06977126002311707,-0.010884830728173256,-0.006736518815159798,0.2886332869529724,-0.2225555032491684,-0.9312142133712769,-0.020658433437347412,-0.006387367844581604,0.011978983879089355,-0.425893618047846,0.08327298029603197,-0.1657061131027645,-0.8855628910269685,0.22443493799742933,0.3005634198583362,2.210916973377292
1781555842771087616,3.1175355911254883,-0.05519738420844078,-0.005318026524037123,-0.001174507080577314,0.2885790169239044,-0.2219180166721344,-0.9313831329345703,-0.02441886067390442,-0.0030575692653656006,0.017427444458007812,-0.4258938517738289,0.08338847895919842,-0.1653928570746733,-0.8856104806213182,0.22378109399331184,0.30045898126096066,2.2110707718121456
1781555842781123584,3.1275715827941895,-0.04272713139653206,0.00807394552975893,-0.00044773033005185425,0.28859829902648926,-0.2214774787425995,-0.9314820170402527,-0.025109529495239258,-0.005069762468338013,0.013833701610565186,-0.4258805277508481,0.0834968387957072,-0.1651885776693378,-0.8856448597765839,0.22332931114312063,0.3004478384018318,2.21119612576746
1781555842791158784,3.137606620788574,-0.03148166835308075,0.016385670751333237,0.00811619684100151,0.2886962890625,-0.22114798426628113,-0.9315299391746521,-0.024688720703125,-0.003568202257156372,0.0141867995262146,-0.4258461946466047,0.08362076667405915,-0.16505331096661727,-0.8856748972737241,0.22299143687330963,0.3005292704597301,2.211328037093065
1781555842801193728,3.147641658782959,-0.042712751775979996,0.03306145220994949,0.01755603775382042,0.28889715671539307,-0.22085721790790558,-0.9315366744995117,-0.016787171363830566,-0.0015396475791931152,0.01663494110107422,-0.4257477478565217,0.08379531150988104,-0.16495459704559828,-0.8857241600864281,0.2226933005421965,0.3007239721368857,2.2115755400231567
1781555842811228672,3.1576766967773438,-0.05392865464091301,0.04345737025141716,0.025154301896691322,0.2891998291015625,-0.22041431069374084,-0.9315476417541504,-0.0074920654296875,-0.0024555623531341553,0.01191568374633789,-0.4255995382163968,0.08405928462430926,-0.16480357312388216,-0.885798432840564,0.22223920455346405,0.3010169967218897,2.2119489904828122
1781555842821264640,3.167712688446045,-0.06876272708177567,0.054739318788051605,0.02730293944478035,0.28959810733795166,-0.21995803713798523,-0.9315317273139954,-0.00314486026763916,-0.0060856640338897705,0.007993578910827637,-0.42541970541954766,0.08437592628414319,-0.16466579842800677,-0.8858803937581664,0.22177145818432864,0.30141175862562486,2.2123780516887734
1781555842831299584,3.1777474880218506,-0.06324758380651474,0.058646973222494125,0.02982868254184723,0.2900594174861908,-0.2193831354379654,-0.9315237998962402,0.003855377435684204,0.008094683289527893,0.0033316612243652344,-0.4252207913770888,0.08475107487222987,-0.16448513894892067,-0.8859735672537616,0.22118215500068264,0.30186570312843913,2.2128639557989143
1781555842841334528,3.1877825260162354,-0.04905107244849205,0.06355131417512894,0.02845475636422634,0.29055389761924744,-0.2189439833164215,-0.9314730167388916,0.009342342615127563,0.02263966202735901,-0.0007627010345458984,-0.4250154880404671,0.08511273590473122,-0.16437552231997032,-0.886057855189503,0.22073206358606562,0.3023650292943661,2.213327714062548
1781555842851369728,3.19781756401062,-0.03509211540222168,0.06208072230219841,0.029638266190886497,0.29108625650405884,-0.21861669421195984,-0.9313836693763733,0.014028489589691162,0.03561803698539734,-0.005582273006439209,-0.42481935225865547,0.08546550540484152,-0.16432839133369762,-0.8861265292425765,0.22039664714819138,0.3029131101101511,2.213737487644122
1781555842861405696,3.2078535556793213,-0.02817774936556816,0.056449733674526215,0.032203953713178635,0.29156190156936646,-0.21843859553337097,-0.9312766790390015,0.021609485149383545,0.03118273615837097,-0.003491997718811035,-0.4246175912767576,0.08576051071676541,-0.16433744647861145,-0.8861931481361859,0.2202141383328809,0.3034110216374899,2.2141384170490688
1781555842871440640,3.217888593673706,-0.04124055430293083,0.04088355600833893,0.020406950265169144,0.2919531464576721,-0.21819639205932617,-0.9312108755111694,0.02480405569076538,0.016795635223388672,-0.006289124488830566,-0.4244411557924111,0.08602613116688529,-0.1642987090388722,-0.886259115224337,0.219965952339081,0.3038137720628227,2.214513186824422
1781555842881475584,3.227923631668091,-0.055396854877471924,0.02525000274181366,0.010218496434390545,0.2922278046607971,-0.21778243780136108,-0.931221604347229,0.024437814950942993,0.006494000554084778,-0.006522476673126221,-0.4243253092747924,0.08626459518587233,-0.16415725648089652,-0.8863176202700468,0.21954179158616183,0.30407900797999843,2.2148130700201176
1781555842891510784,3.2379586696624756,-0.0504031628370285,0.007045965176075697,0.00949598103761673,0.2923518121242523,-0.2173105627298355,-0.9312929511070251,0.02503103017807007,0.00872291624546051,-0.0058255791664123535,-0.4242442224697577,0.08644002754734488,-0.16395625169869557,-0.8863764907335813,0.21905834676669736,0.3041783254789989,2.215077346664269
1781555842901546752,3.2479946613311768,-0.04096971079707146,-0.0030685868114233017,0.01063794456422329,0.2923412024974823,-0.21693213284015656,-0.9313845038414001,0.0151996910572052,0.010953739285469055,-0.0064969658851623535,-0.42418813285009943,0.08652846510381296,-0.16376989284607746,-0.8864291752654946,0.21867065474503802,0.3041398751591787,2.2152910774314654
1781555842911581696,3.2580296993255615,-0.02871197834610939,-0.005833747796714306,0.004628787282854319,0.2922908365726471,-0.21664252877235413,-0.9314677119255066,0.0038059651851654053,0.00686471164226532,-0.007298767566680908,-0.4241324238290197,0.08657906040572731,-0.16361606801262693,-0.8864792805552496,0.21837400921000158,0.30406513754247605,2.215491718984797
1781555842921616640,3.268064498901367,-0.028097053989768028,-0.019596830010414124,-0.0018099372973665595,0.29216769337654114,-0.21637944877147675,-0.9315674901008606,-0.0010452568531036377,0.0007117241621017456,-0.007366836071014404,-0.4241192788362795,0.08658251849538916,-0.16346171281059402,-0.886513652787113,0.21810453184263182,0.30391418958042754,2.2156046377712912
1781555842931651584,3.278099536895752,-0.033090218901634216,-0.02511676400899887,-0.006618274841457605,0.29195842146873474,-0.21607550978660583,-0.9317036271095276,-0.005795091390609741,-0.003376394510269165,-0.003049790859222412,-0.424140938724518,0.08654891996790211,-0.16327116443035553,-0.8865417093774826,0.21779323189165287,0.3036679466311895,2.2156653282565633
1781555842941687552,3.288135528564453,-0.033130962401628494,-0.02824810892343521,-0.010748570784926414,0.2917257249355316,-0.21575193107128143,-0.9318515062332153,-0.013756364583969116,-0.006110861897468567,0.002331852912902832,-0.4241880355862797,0.08650418797270479,-0.16306832883398925,-0.8865609381324389,0.2174618391028722,0.30339526635532393,2.2156776126914086
1781555842951722496,3.298170566558838,-0.03833584487438202,-0.0194610096514225,-0.011566960252821445,0.2915220856666565,-0.21538221836090088,-0.9320007562637329,-0.020098716020584106,-0.006007552146911621,0.01143801212310791,-0.42423953899704653,0.08648211129839453,-0.16285107405565064,-0.8865783911272309,0.21708322384232848,0.30315056910433796,2.215684248150063
1781555842961757696,3.3082056045532227,-0.03504684194922447,-0.010748744010925293,-0.011828215792775154,0.2914082407951355,-0.21498943865299225,-0.9321269989013672,-0.022044867277145386,-0.004554003477096558,0.011365950107574463,-0.42428365194281054,0.0865077564750899,-0.16264348033710754,-0.8865928414083228,0.21668101397512046,0.3030007443237585,2.2156947176374073
1781555842971793664,3.318241596221924,-0.028303716331720352,-0.005579815246164799,-0.009568789973855019,0.29135221242904663,-0.21465809643268585,-0.9322208762168884,-0.02044767141342163,0.00024159252643585205,0.005875051021575928,-0.4243200763529335,0.08654791318514107,-0.1624777378678718,-0.8866018534034096,0.216341748831374,0.30291729936975503,2.2156974004531644
1781555842981828608,3.3282766342163086,-0.020561907440423965,0.0026446920819580555,0.0038109305314719677,0.29134437441825867,-0.2144221067428589,-0.9322776794433594,-0.014443129301071167,0.008901476860046387,0.005214691162109375,-0.42432275062211594,0.08659551945088415,-0.16236498827685222,-0.8866166642407673,0.21610014081379825,0.30289230632891834,2.2157457077414993
1781555842991863808,3.3383116722106934,-0.032708052545785904,0.0034369826316833496,0.0034018689766526222,0.2913702428340912,-0.21419720351696014,-0.9323212504386902,-0.008563846349716187,0.00747111439704895,-0.0013030171394348145,-0.42428842443169196,0.08666295835998977,-0.1622618238230755,-0.886645330238166,0.21586987684546313,0.30290426177310464,2.2158680169045177
