time,seconds_elapsed,rotationRateX,rotationRateY,rotationRateZ,gravityX,gravityY,gravityZ,accelerationX,accelerationY,accelerationZ,quaternionW,quaternionX,quaternionY,quaternionZ,pitch,roll,yaw
1781116587908420864,0.050000905990600586,-0.03126981854438782,0.03997813165187836,0.06532405316829681,-0.6816922426223755,0.09382158517837524,-0.7255985140800476,0.012014508247375488,0.006443925201892853,-0.012057125568389893,-0.8570403513151291,-0.09489367337723402,0.35804460406780025,-0.35816347529976833,-0.0939597770956914,-0.754209139519705,0.7544588863027767
1781116587918455808,0.06003594398498535,-0.045087896287441254,0.09847819060087204,0.035590123385190964,-0.6813207864761353,0.0945010855793953,-0.7258591651916504,0.031326889991760254,-0.0010715201497077942,0.0010972023010253906,-0.8570434414182191,-0.09453360279822715,0.35795782710879154,-0.35833815479070436,-0.09464231054020883,-0.7537579247973587,0.7545572876913913
1781116587928490752,0.07007098197937012,0.04041821509599686,0.09295386075973511,-0.06473860889673233,-0.6798428297042847,0.09409446269273758,-0.7272962927818298,0.022189080715179443,-0.008279047906398773,0.01403951644897461,-0.8574807910473602,-0.09430898099637433,0.3570121463232326,-0.3582941673437131,-0.09423386468503651,-0.7516875809460983,0.7543814954308411
1781116587938524672,0.08010482788085938,0.06394031643867493,-0.0024999561719596386,0.05548793077468872,-0.6795107126235962,0.0938296690583229,-0.7276408672332764,-0.02152383327484131,0.014889203011989594,0.011683225631713867,-0.8575155056680098,-0.09441275462350546,0.3567433351038085,-0.35845164409344077,-0.09396789576683937,-0.7512075346878357,0.7547966857315812
1781116587948559872,0.09013986587524414,0.0661344975233078,0.0008299276232719421,-0.009570696391165257,-0.679511308670044,0.0934649184346199,-0.7276872396469116,0.023001909255981445,0.024531304836273193,-0.011387467384338379,-0.8574307405341558,-0.09468847660269279,0.35663772211674394,-0.3586868789095079,-0.09360153952700148,-0.7511761801885581,0.7554805861467282
1781116587958594816,0.1001749038696289,0.05314599350094795,-0.014837982133030891,-0.007809814065694809,-0.6795562505722046,0.09295377135276794,-0.7277107238769531,0.02052915096282959,-0.007382489740848541,0.008152008056640625,-0.8574246707600078,-0.09496256655380225,0.3565483889689818,-0.35871746541533106,-0.09308815691266077,-0.7511930676848108,0.7557480900491991
1781116587968628992,0.11020898818969727,0.06675074994564056,-0.004830621182918549,0.021950211375951767,-0.6796280741691589,0.092572882771492,-0.727692186832428,-0.0061629414558410645,-0.009061537683010101,0.008148789405822754,-0.8573549840278112,-0.09523174776659131,0.3564895620624525,-0.3588712540968007,-0.09270561867161704,-0.7512584872549629,0.7562589498073179
1781116587978663936,0.12024402618408203,0.057546067982912064,0.02529985085129738,0.020573090761899948,-0.6795198321342468,0.09226569533348083,-0.7278323173522949,-0.006454288959503174,-0.004008859395980835,0.018374919891357422,-0.8573070484293127,-0.09543993871950296,0.3563356075632285,-0.35908333431162104,-0.09239710490162135,-0.7510830116758428,0.7568510052668941
1781116587988698624,0.1302788257598877,0.012766347266733646,0.012784990482032299,0.023940658196806908,-0.6793324947357178,0.09214802831411362,-0.7280220985412598,-0.0066263675689697266,-0.0008241757750511169,0.021997928619384766,-0.8572896981411845,-0.09551805258422459,0.35618148812460504,-0.35925690030176527,-0.09227893944105425,-0.7508154027759587,0.7572708534477378
1781116587998732800,0.14031291007995605,-0.04405991733074188,-0.007951712235808372,0.013557792641222477,-0.679295539855957,0.09241396188735962,-0.7280228734016418,0.014607429504394531,-0.005728773772716522,0.028697311878204346,-0.8572642607344237,-0.0954038500440583,0.35621156191901315,-0.35931818657815073,-0.09254601221222475,-0.750787773068447,0.7573096959464377
1781116588008767744,0.15034794807434082,-0.08317429572343826,-0.02439393661916256,0.0029980926774442196,-0.6794120073318481,0.0929490327835083,-0.7278460264205933,0.02268904447555542,-0.015159718692302704,0.03389155864715576,-0.8572497884896443,-0.09513834761740843,0.3564066114866215,-0.35922970786482383,-0.09308339133318351,-0.7509944471542281,0.7569228881647981
1781116588018802944,0.16038298606872559,-0.08362463861703873,-0.02782435528934002,-0.005466498900204897,-0.6796186566352844,0.09355439245700836,-0.7275754809379578,0.019386112689971924,-0.017840281128883362,0.03537583351135254,-0.8572426999046586,-0.09482873225116505,0.35667879903773847,-0.35905816132651924,-0.09369140221013808,-0.7513315886013601,0.7563298636596516
1781116588028837888,0.17041802406311035,-0.061573661863803864,-0.017500877380371094,-0.0019575173500925303,-0.6797942519187927,0.09406629204750061,-0.7273454070091248,0.012695252895355225,-0.006831802427768707,0.028141915798187256,-0.8572424413272288,-0.09456102267711007,0.3569110740905807,-0.35889855650106106,-0.09420557377445903,-0.751618262590194,0.7557945021435083
1781116588038871808,0.1804518699645996,-0.009944558143615723,-0.007783800829201937,0.00302312639541924,-0.679897665977478,0.09432709217071533,-0.7272149324417114,0.007076621055603027,0.006792910397052765,0.018261075019836426,-0.8572329090280663,-0.09443393268122682,0.35703606981693176,-0.3588304705343048,-0.09446753606393331,-0.7517836200642388,0.7555546849581979
1781116588048906752,0.19048690795898438,0.017422351986169815,0.010311979800462723,0.008029602468013763,-0.6798911094665527,0.0943053588271141,-0.7272239327430725,0.006856441497802734,0.010461494326591492,0.012014031410217285,-0.8572217958520255,-0.09445640639505405,0.35702382103187136,-0.3588633644278132,-0.09444570508742148,-0.7517726068129622,0.7556384961301573
1781116588058941952,0.20052194595336914,0.0027723023667931557,0.023499155417084694,0.01991795375943184,-0.6797552704811096,0.09431236237287521,-0.7273499369621277,0.004248678684234619,0.006594009697437286,0.0063111186027526855,-0.8572216303029918,-0.09445241936821874,0.3569366452893297,-0.3589511994899151,-0.09445273798303051,-0.7515865046514522,0.7558202043457322
1781116588068975872,0.2105560302734375,-0.003724212758243084,0.039125386625528336,0.021534493193030357,-0.6795079708099365,0.09446397423744202,-0.7275612354278564,-0.0004999041557312012,-0.0049559250473976135,0.007254898548126221,-0.8572356708872948,-0.09435817349410468,0.3568135487740667,-0.3590647778160478,-0.09460502869300187,-0.7512601226077171,0.7559916047699714
1781116588079010816,0.22059082984924316,-0.02696242183446884,0.06537403166294098,0.03579412028193474,-0.679097592830658,0.09473271667957306,-0.7279094457626343,-0.007669985294342041,-0.010244801640510559,0.004749655723571777,-0.8572879806245318,-0.09416392477068448,0.3566208545663431,-0.35918246646212043,-0.09487498283183068,-0.7507201078300139,0.7561047325294196
1781116588089045760,0.23062586784362793,-0.03814530372619629,0.06663783639669418,0.0406208336353302,-0.6785714030265808,0.0952407643198967,-0.7283338308334351,-0.00030738115310668945,-0.006297275424003601,0.0026258230209350586,-0.8573548708345088,-0.09382909970809059,0.35641155667426366,-0.3593183671304152,-0.09538534178467369,-0.7500427875795574,0.7561547529629663
1781116588099079936,0.2406599521636963,-0.021758873015642166,0.05950456112623215,0.03976675868034363,-0.678069531917572,0.09578422456979752,-0.728729784488678,0.0063623785972595215,0.003672569990158081,-0.011687695980072021,-0.8574099516823928,-0.09348717377489776,0.35622361152770354,-0.3594622575571439,-0.09593129282508546,-0.7494027439163737,0.7562144873650833
1781116588109114880,0.25069499015808105,0.03284045681357384,0.045965712517499924,0.03736165910959244,-0.6776493787765503,0.09601417183876038,-0.7290902733802795,0.009573817253112793,0.01587853580713272,-0.02608245611190796,-0.8574295867925549,-0.09334512683540179,0.3560077930587786,-0.359666168883811,-0.09616230765119615,-0.7488470020159669,0.7565425328609987
1781116588119149824,0.2607300281524658,0.07028184086084366,0.04389457404613495,0.024883417412638664,-0.6772936582565308,0.09584619104862213,-0.729442834854126,0.006105303764343262,0.02495764195919037,-0.03505301475524902,-0.857429476840738,-0.09343143189759882,0.3557374609686962,-0.3599113798821116,-0.09599355173953059,-0.7483440722326227,0.7571232581677511
1781116588129183744,0.2707638740539551,0.08518648892641068,0.04348604381084442,0.011686389334499836,-0.6769533753395081,0.09538652002811432,-0.7298188209533691,-0.0017270445823669434,0.026515953242778778,-0.03817129135131836,-0.8574366507673584,-0.09366320073507962,0.3554121301684169,-0.36015518455129814,-0.09553176296638095,-0.7478365503060873,0.7578102977818716
1781116588139218688,0.28079891204833984,0.07239026576280594,0.04124073311686516,0.001803664956241846,-0.6766385436058044,0.09482739865779877,-0.7301836013793945,-0.005948126316070557,0.012335069477558136,-0.03385442495346069,-0.8574650813338321,-0.09392600182093344,0.35508605580870606,-0.3603407217836417,-0.09497009426904254,-0.7473555065588168,0.7584016738954731
1781116588149253888,0.2908339500427246,0.012380454689264297,0.023147350177168846,0.006625051610171795,-0.6763995885848999,0.09452316164970398,-0.7304443717002869,-0.006950020790100098,-0.0067546069622039795,-0.023431360721588135,-0.8574931584577666,-0.09405591002410979,0.3548679980316023,-0.3604548170919364,-0.0946644837476413,-0.7470014068901363,0.7587438488921512
1781116588159287808,0.30086803436279297,-0.06729386746883392,-0.010910751298069954,0.011509289033710957,-0.6763509511947632,0.09481602907180786,-0.7304514646530151,-0.003870546817779541,-0.018293194472789764,-0.009554028511047363,-0.8574974361295644,-0.09389799423073981,0.3549048427137204,-0.360449586132564,-0.09495867382635349,-0.7469607676524967,0.7586166588199894
1781116588169322752,0.31090283393859863,-0.07964267581701279,-0.03824237361550331,0.00791801605373621,-0.6765158772468567,0.09545654058456421,-0.730215311050415,-0.0043312907218933105,-0.021069936454296112,-0.010186910629272461,-0.8574724705794636,-0.09358832495895845,0.35515290266756344,-0.3603453057750878,-0.09560210171438033,-0.7472435241803428,0.7581625990922204
1781116588179357696,0.3209378719329834,-0.05122275650501251,-0.06211814656853676,0.014902688562870026,-0.6768755912780762,0.09602604806423187,-0.7298071384429932,-0.003071308135986328,-0.0017419904470443726,-0.02286309003829956,-0.8573951966414466,-0.09336840766625817,0.35549791250024404,-0.3602458506010439,-0.09617423904904364,-0.747787251158604,0.7577747994538537
1781116588189391872,0.33097195625305176,0.009516225196421146,-0.07373019307851791,0.0033403087873011827,-0.6773646473884583,0.09622608125209808,-0.7293269038200378,-0.0022312402725219727,0.019176147878170013,-0.04147082567214966,-0.8572679114338873,-0.09339228542466436,0.35582922027718483,-0.3602156408035991,-0.0963752046962655,-0.7484756343284679,0.7577037262162567
1781116588199426816,0.3410069942474365,0.06606552004814148,-0.06839535385370255,-0.03268826752901077,-0.6779146194458008,0.09589052200317383,-0.7288598418235779,-0.0034207701683044434,0.023372165858745575,-0.043540000915527344,-0.8571393372745807,-0.09369841804968572,0.35607677893352835,-0.3601972011221697,-0.09603808189467918,-0.7491997751951214,0.7578666506362081
1781116588209462016,0.3510420322418213,0.09528625756502151,-0.08361704647541046,-0.042556874454021454,-0.6784577369689941,0.09497896581888199,-0.7284737825393677,0.000250399112701416,0.01738673448562622,-0.02959805727005005,-0.8570476948500096,-0.09426997088931634,0.35619698545038125,-0.36014719248092536,-0.09512234983597523,-0.7498634091340498,0.7581680671840867
1781116588219495680,0.36107587814331055,0.07076972723007202,-0.12282197922468185,0.010609406977891922,-0.67928546667099,0.09430304914712906,-0.7277899384498596,0.0029701590538024902,-0.0011786296963691711,-0.007256448268890381,-0.8568334064785385,-0.09484075935921009,0.3565252429316877,-0.36018278642902246,-0.09444338522876908,-0.7509399763991973,0.7586264850961659
1781116588229530880,0.3711109161376953,-0.0014698468148708344,-0.09253957122564316,-0.001508774934336543,-0.6800754070281982,0.09403367340564728,-0.7270867228507996,-0.021920382976531982,-0.03826279938220978,0.003988027572631836,-0.8566125026201857,-0.09520447426133628,0.35692118584163196,-0.36022008801031596,-0.09417280987319357,-0.752001982233362,0.758933754454406
1781116588239565824,0.3811459541320801,-0.07455603778362274,-0.0982147678732872,0.01364035066217184,-0.6807476878166199,0.09436419606208801,-0.7264145016670227,-0.017586052417755127,-0.040012381970882416,0.01401221752166748,-0.8564569029761907,-0.09518824736553205,0.3573960503393146,-0.36012353889760745,-0.09450480789681891,-0.7529564069397415,0.7586885463755957
1781116588249600000,0.39118003845214844,-0.11062216758728027,-0.10911348462104797,0.02418646775186062,-0.6814919114112854,0.09517988562583923,-0.7256098389625549,0.006198883056640625,-0.02253277599811554,0.009926855564117432,-0.856279019600096,-0.09493933419997326,0.35802457655606673,-0.35998786217976814,-0.09532418195072709,-0.7540546445282943,0.7581825778555108
1781116588259634688,0.4012148380279541,-0.10267316550016403,-0.11771416664123535,0.023984599858522415,-0.6822879910469055,0.09612987190485,-0.7247359752655029,0.023688137531280518,-0.013320408761501312,0.00427699089050293,-0.8560890722949721,-0.09463116406612741,0.35871571603680913,-0.35983268591598117,-0.09627854258041404,-0.7552386880042085,0.7575884211661695
1781116588269669888,0.41124987602233887,-0.08814002573490143,-0.12629100680351257,0.0386306531727314,-0.6831530928611755,0.09704285115003586,-0.7237986326217651,0.03126716613769531,-0.009610012173652649,-0.003389418125152588,-0.8558564674711076,-0.09438400635514488,0.35943335847756147,-0.3597345226693291,-0.09719581372001335,-0.7565171168014002,0.7571509861594887
1781116588279703808,0.4212839603424072,-0.054791390895843506,-0.12750861048698425,0.048904065042734146,-0.6840415596961975,0.09788364917039871,-0.7228456735610962,0.028859734535217285,-0.008024655282497406,-0.012139618396759033,-0.8555800681854623,-0.09421787991696887,0.3601390703267682,-0.3597298266889485,-0.09804063553818414,-0.7578236278913492,0.7569618791343498
1781116588289739008,0.431318998336792,-0.01134165283292532,-0.12982915341854095,0.0595838725566864,-0.6849289536476135,0.09849386662244797,-0.7219219207763672,0.023628294467926025,-0.007963471114635468,-0.020051956176757812,-0.8552630077698712,-0.09421324744426426,0.3607809619725955,-0.35984171255872816,-0.09865381576200503,-0.7591093308390947,0.7571308736843896
1781116588299773952,0.44135403633117676,0.030428964644670486,-0.11823001503944397,0.06612007319927216,-0.6857656836509705,0.09884835034608841,-0.721078634262085,0.017385005950927734,-0.0087452232837677,-0.020040690898895264,-0.8549176865806518,-0.09437154324019721,0.3613235375339096,-0.36007639761488797,-0.09901003911626699,-0.7603026245770508,0.7576751026021286
1781116588309808640,0.4513888359069824,0.027221454307436943,-0.1109035313129425,0.07024424523115158,-0.6865194439888,0.09908918291330338,-0.7203279733657837,0.012828648090362549,-0.013975672423839569,-0.012170135974884033,-0.8545754337839709,-0.0945866676650963,0.3617863795089653,-0.36036745196481673,-0.0992520610065175,-0.7613713690098074,0.75838151853857
1781116588319842816,0.4614229202270508,0.0033938842825591564,-0.10902626812458038,0.07471942156553268,-0.687247633934021,0.09946796298027039,-0.7195810079574585,0.011954665184020996,-0.022197462618350983,-0.005776047706604004,-0.8542367083705863,-0.09472557794565177,0.36226586862826543,-0.360652381150277,-0.09963271966151946,-0.7624190301567326,0.7590185032167017
1781116588329877760,0.47145795822143555,-0.019771620631217957,-0.11573410034179688,0.08360825479030609,-0.6879891753196716,0.100074902176857,-0.7187877893447876,0.016388893127441406,-0.03205122798681259,0.002067267894744873,-0.853893676487438,-0.09474822789780063,0.36280693621074644,-0.36091471615712567,-0.10024269826018459,-0.7635086062070855,0.7595192874630016
1781116588339912960,0.4814929962158203,-0.05330667644739151,-0.11680016666650772,0.09811289608478546,-0.6887269616127014,0.10096747428178787,-0.7179559469223022,0.015478670597076416,-0.037094198167324066,0.003051161766052246,-0.8535361733078898,-0.09463443244823323,0.36340936320271605,-0.361184004538066,-0.1011398182999669,-0.7646225132079967,0.7599285173293824
1781116588349946624,0.49152684211730957,-0.06774739921092987,-0.12605784833431244,0.10369274765253067,-0.6894833445549011,0.10211867094039917,-0.7170665264129639,0.0194089412689209,-0.04097671061754227,-0.006306827068328857,-0.8531633623310809,-0.09439894021499795,0.3640818153281876,-0.3614491277110364,-0.10229699882307386,-0.7657901510319747,0.7602334067663805
1781116588359981824,0.5015618801116943,-0.045703887939453125,-0.1523379236459732,0.10651809722185135,-0.6903733611106873,0.10327816009521484,-0.7160434126853943,0.03072071075439453,-0.031577132642269135,-0.024297714233398438,-0.852749258931108,-0.09419953355757753,0.3648352188409238,-0.36171854090620564,-0.10346264875141985,-0.7671480887404684,0.7605655439232518
1781116588370016768,0.5115969181060791,0.010854729451239109,-0.1780046671628952,0.11533768475055695,-0.6914466619491577,0.1041843444108963,-0.7148756384849548,0.036051154136657715,-0.010449610650539398,-0.042692720890045166,-0.8522555688119253,-0.09421314008189197,0.36563105731599116,-0.36207495026993236,-0.10437374985873236,-0.7687399506293466,0.7612255123706186
1781116588380050944,0.5216310024261475,0.06675741076469421,-0.19505955278873444,0.12094683945178986,-0.6926584839820862,0.10471311211585999,-0.713624119758606,0.029770970344543457,-0.0009075701236724854,-0.05667006969451904,-0.851678500149903,-0.09450972838119859,0.3664094117866195,-0.3625683641910385,-0.1049054254531131,-0.7704907449192594,0.7623717967652899
1781116588390085632,0.5316658020019531,0.08709384500980377,-0.21660864353179932,0.12851101160049438,-0.6940058469772339,0.10500552505254745,-0.7122707962989807,0.01985722780227661,-0.005777619779109955,-0.06594264507293701,-0.8510346420775916,-0.09499808248327712,0.36720560445600187,-0.36314647521462273,-0.1051994553711943,-0.7724106960473474,0.7638293774936415
1781116588400120832,0.5417008399963379,0.06946850568056107,-0.22957052290439606,0.13718439638614655,-0.6954658031463623,0.10535164922475815,-0.71079421043396,0.013443708419799805,-0.013066485524177551,-0.06686997413635254,-0.8503421806304381,-0.09550651613232952,0.3680779746015058,-0.3637518478139599,-0.10554751070516298,-0.7744984619364665,0.7653509164284923
1781116588410154752,0.5517349243164062,0.03605356067419052,-0.261160671710968,0.14823278784751892,-0.6970528960227966,0.10597599297761917,-0.7091448307037354,0.00866788625717163,-0.018955111503601074,-0.04428839683532715,-0.8496052808981392,-0.09591127130776084,0.3690916049509431,-0.3643396806158462,-0.10617536682433437,-0.7767993620817982,0.7667479574165794
1781116588420189952,0.561769962310791,-0.006304016802459955,-0.2878386080265045,0.14872227609157562,-0.6988463997840881,0.10691618919372559,-0.7072359919548035,-0.004034459590911865,-0.015485510230064392,-0.03826266527175903,-0.848814162410075,-0.09620139220648105,0.37030704608448556,-0.3648734179619703,-0.10712093631043698,-0.7794316024662499,0.7679321755044514
1781116588430224896,0.5718050003051758,-0.012559781782329082,-0.32364028692245483,0.14101481437683105,-0.7008578181266785,0.10801041126251221,-0.7050759792327881,-0.012719452381134033,-0.003152012825012207,-0.059938669204711914,-0.8479867417377388,-0.096443759533139,0.37169963553515406,-0.36531711005780965,-0.10822153749985867,-0.7823979403399345,0.7688820090603653
1781116588440258816,0.581838846206665,-0.016397928819060326,-0.34842151403427124,0.13337475061416626,-0.7030816674232483,0.10906604677438736,-0.702695369720459,-0.011762022972106934,0.0027656182646751404,-0.07937860488891602,-0.8471144093390891,-0.09674875887324616,0.37321842950029693,-0.3657115478324074,-0.10928344007703952,-0.7856729811932389,0.7697665997235805
1781116588450293760,0.5918738842010498,-0.0036278064362704754,-0.36621758341789246,0.12711206078529358,-0.7054557204246521,0.11006920784711838,-0.7001549005508423,-0.012485504150390625,0.011940062046051025,-0.09389716386795044,-0.8462087426345554,-0.09711204955885593,0.3748223467313731,-0.36607120934168363,-0.1102926816166982,-0.7891693376645978,0.7706159762750384
1781116588460328704,0.6019089221954346,0.007868261076509953,-0.3882405757904053,0.11753026396036148,-0.7079694271087646,0.11092275381088257,-0.6974779367446899,-0.013191461563110352,0.02103526145219803,-0.10081613063812256,-0.8452710794238386,-0.097584124164083,0.37648155364756397,-0.3664094938003129,-0.11115148672815654,-0.7928628936804388,0.7714986848648722
1781116588470362880,0.6119430065155029,0.029807116836309433,-0.420570433139801,0.1079665869474411,-0.7106652855873108,0.11160548031330109,-0.6946216225624084,-0.004270017147064209,0.03524511307477951,-0.10109370946884155,-0.8442877475966662,-0.09818913175409476,0.37821699088308425,-0.36672762891112787,-0.11183847607313169,-0.7968143207721932,0.7724343187310602
1781116588480397824,0.6219778060913086,0.018930234014987946,-0.449931263923645,0.11484313756227493,-0.7135725617408752,0.11217578500509262,-0.6915423274040222,0.009470999240875244,0.029379986226558685,-0.09095889329910278,-0.8432429356241128,-0.09891118170994857,0.3800597646132785,-0.367031876454423,-0.11241238783727713,-0.8010754760494104,0.7734217054275847
1781116588490432768,0.6320128440856934,-0.05456022918224335,-0.505416214466095,0.11663144826889038,-0.7167252898216248,0.11310126632452011,-0.6881228089332581,0.02365577220916748,0.0004393830895423889,-0.05430877208709717,-0.8421307174072411,-0.09950456498838212,0.382148441471343,-0.3672564601131939,-0.11334379494564155,-0.8057551682125679,0.7741277627783808
1781116588500467712,0.6420478820800781,-0.1552564799785614,-0.5520116686820984,0.11054372787475586,-0.7202618718147278,0.11464392393827438,-0.684163510799408,0.02028024196624756,-0.011402949690818787,-0.031122803688049316,-0.8409498800698291,-0.09982328541230083,0.3846473257245253,-0.3672671878402992,-0.11489655239334892,-0.8110958193665274,0.7741513924141521
1781116588510501888,0.6520819664001465,-0.23504772782325745,-0.5841215252876282,0.10839269310235977,-0.7240145206451416,0.11678346246480942,-0.6798268556594849,0.012649774551391602,-0.017738662660121918,-0.011152148246765137,-0.8397459651502303,-0.09982895632200874,0.38745417531320325,-0.3670697217912039,-0.11705056482610146,-0.8168640165122426,0.7734800221869863
1781116588520536832,0.6621170043945312,-0.3061402440071106,-0.6003718972206116,0.10731811076402664,-0.7279284000396729,0.11939438432455063,-0.6751779317855835,0.0026171207427978516,-0.03402145206928253,-0.006462693214416504,-0.8385244569499607,-0.09957934078934602,0.3905060548603749,-0.36669573346515333,-0.11967987984045782,-0.8229759352859317,0.7722241713584043
1781116588530571776,0.6721518039703369,-0.3593651354312897,-0.6024572849273682,0.10698787868022919,-0.7318658232688904,0.12243713438510895,-0.6703593730926514,0.00034421682357788086,-0.030670776963233948,-0.016392946243286133,-0.8373090148171212,-0.09906998415433228,0.3937073314892685,-0.3661876400331243,-0.1227451238803038,-0.8292335285358172,0.7704714798459998
1781116588540605696,0.6821858882904053,-0.38953500986099243,-0.6050704121589661,0.10036752372980118,-0.7357702255249023,0.1257268488407135,-0.6654584407806396,0.008124351501464844,-0.011850506067276001,-0.02294182777404785,-0.836108049301711,-0.0983906331534355,0.39697613453476066,-0.3655852722311063,-0.12606046674571095,-0.8355347537790483,0.7683777534370407
1781116588550640896,0.69222092628479,-0.3722122311592102,-0.6385789513587952,0.0852825790643692,-0.7397770285606384,0.12897680699825287,-0.6603748798370361,0.024628102779388428,0.0023861080408096313,-0.020151853561401367,-0.834887323898431,-0.09772620351137916,0.4003275708935316,-0.3648981094893032,-0.12933710275979066,-0.8420471867244584,0.766104832436536
1781116588560675840,0.7022559642791748,-0.3360600769519806,-0.6663098931312561,0.07901749759912491,-0.7439888715744019,0.13189466297626495,-0.655045211315155,0.03215116262435913,0.011583715677261353,-0.022887468338012695,-0.8335936071030651,-0.09728846206290526,0.40374786894850356,-0.3642034568333246,-0.1322800950760974,-0.8488877564613337,0.7639776531789882
1781116588570709760,0.7122898101806641,-0.28195396065711975,-0.6581530570983887,0.07276839017868042,-0.7482184767723083,0.13451942801475525,-0.6496719121932983,0.028308868408203125,0.020982876420021057,-0.00746309757232666,-0.8322622428864876,-0.09702925627548872,0.4071232991621731,-0.36355939227534584,-0.1349284639967417,-0.85577839095999,0.7620897373519997
1781116588580744704,0.7223248481750488,-0.20485758781433105,-0.6365447044372559,0.06850653141736984,-0.7523249983787537,0.13660696148872375,-0.6444730758666992,0.017370223999023438,0.004643633961677551,0.0016813874244689941,-0.8309248713320316,-0.09706226324084333,0.4102954952483353,-0.3630430485036797,-0.13703544662202005,-0.8624589821552153,0.7607082877021469
1781116588590779904,0.7323598861694336,-0.23780383169651031,-0.6195175051689148,0.0724104568362236,-0.7562616467475891,0.13852450251579285,-0.6394367814064026,0.01463860273361206,-0.01634734869003296,-0.0017985701560974121,-0.8296087706601654,-0.09716015025666606,0.4133297797410063,-0.36258495808860003,-0.13897139118962312,-0.8689069964780028,0.7595071119392725
1781116588600812800,0.7423930168151855,-0.3215639591217041,-0.6348312497138977,0.061480578035116196,-0.7601584792137146,0.14079202711582184,-0.6343002319335938,0.025615572929382324,-0.02354349195957184,-0.00037384033203125,-0.8283239159207971,-0.0970084556134031,0.4164603654958779,-0.3619802765935723,-0.14126136683732038,-0.8754102356800323,0.7577935282920297
1781116588610848000,0.7524280548095703,-0.41419854760169983,-0.6681521534919739,0.05209799483418465,-0.7642017006874084,0.14355391263961792,-0.6287989616394043,0.03564029932022095,-0.02596968412399292,0.00021314620971679688,-0.8270361416660486,-0.09654202356206705,0.4198573108931499,-0.36112435376733326,-0.14405159729541653,-0.8822959656546686,0.7552813132061041
1781116588620882688,0.762462854385376,-0.47118353843688965,-0.6905322670936584,0.05546662583947182,-0.7683915495872498,0.14677146077156067,-0.6229227185249329,0.036686837673187256,-0.024289146065711975,-0.004579782485961914,-0.8257153151384052,-0.09580796403736615,0.4235085450278737,-0.36007734003780495,-0.14730358402540786,-0.8895746428248562,0.7521254494372088
1781116588630916864,0.7724969387054443,-0.4653046131134033,-0.6851969361305237,0.061958879232406616,-0.7725898623466492,0.15015633404254913,-0.6168937087059021,0.02446669340133667,-0.023325279355049133,-0.005939483642578125,-0.8243597226780369,-0.0949805985830601,0.4272374267893733,-0.35899557621956546,-0.15072639627250486,-0.8969859329133107,0.7487994111212863
1781116588640951808,0.7825319766998291,-0.46270909905433655,-0.6698510050773621,0.06030186265707016,-0.7766677141189575,0.15347954630851746,-0.6109265685081482,0.01125633716583252,-0.017020195722579956,-0.008870184421539307,-0.82301424084663,-0.09415295738463411,0.43089666395536774,-0.35792571744447466,-0.15408858391117705,-0.9042798901057965,0.7454919197480909
1781116588650987008,0.7925670146942139,-0.4378410279750824,-0.6482343673706055,0.06375545263290405,-0.7805982232093811,0.1567201018333435,-0.6050662994384766,0.009159624576568604,-0.006039559841156006,-0.013433456420898438,-0.8216839042982272,-0.09333657862202395,0.43445957665674484,-0.3568875608699603,-0.15736884339667473,-0.9114040625675232,0.7422559877676506
1781116588661020672,0.8026008605957031,-0.3900245130062103,-0.6418265104293823,0.05680646374821663,-0.784386932849884,0.1596885621547699,-0.5993635654449463,0.012933075428009033,-0.0024162232875823975,-0.02250838279724121,-0.8203593053574821,-0.09265668660645315,0.43787321109764105,-0.3559387781106095,-0.16037515771768013,-0.9183212423473764,0.7393199049092098
1781116588671055872,0.8126358985900879,-0.3774549067020416,-0.6511070728302002,0.050517674535512924,-0.7881662249565125,0.16240474581718445,-0.5936485528945923,0.019062280654907227,-5.46872615814209e-06,-0.02138739824295044,-0.8190196518851233,-0.09211128703772425,0.44123829591933417,-0.3550084533548382,-0.16312726260606641,-0.9252489528297779,0.7365301629693167
1781116588681090816,0.8226709365844727,-0.35062649846076965,-0.6502194404602051,0.04517750442028046,-0.7919350862503052,0.1649487018585205,-0.5879037976264954,0.0218392014503479,0.007353559136390686,-0.02327173948287964,-0.8176575670091973,-0.09166431788628614,0.4445736731305879,-0.35410187395519366,-0.16570599380269627,-0.9322004263716074,0.7338657272168466
1781116588691125760,0.8327059745788574,-0.3355865776538849,-0.6449494957923889,0.026260271668434143,-0.7956678867340088,0.16725347936153412,-0.5821846127510071,0.014982461929321289,0.015226379036903381,-0.027083516120910645,-0.8163043939752552,-0.09132186812975661,0.44784819014423016,-0.35318482137452045,-0.16804324819538513,-0.9391150112504983,0.7312709898063213
1781116588701159936,0.8427400588989258,-0.3179737627506256,-0.6450504064559937,0.017008716240525246,-0.7993702292442322,0.169307678937912,-0.5764912962913513,0.010216176509857178,0.015399977564811707,-0.03012186288833618,-0.814965097882369,-0.0910855165450801,0.4510629539449292,-0.35224651991288936,-0.17012716315149354,-0.9459953815161605,0.728728457775409
1781116588711194880,0.8527748584747314,-0.320707231760025,-0.6530168652534485,0.00999421626329422,-0.8030774593353271,0.17124801874160767,-0.5707370638847351,0.009299993515014648,0.013596966862678528,-0.03242766857147217,-0.8136144367445421,-0.09089872698995348,0.454278443061288,-0.351283503572399,-0.17209625520165972,-0.9529335548319455,0.7261745928120471
1781116588721229824,0.8628098964691162,-0.3320253789424896,-0.6597415804862976,0.0009503880864940584,-0.8068064451217651,0.1731366366147995,-0.564877986907959,0.005948901176452637,0.0096941739320755,-0.025316715240478516,-0.8122547272042354,-0.09071641213606166,0.4575276513882554,-0.35025894470667085,-0.1740135154459011,-0.9599760069286728,0.7234937204340691
1781116588731264000,0.8728439807891846,-0.3436468839645386,-0.6566805839538574,-0.002808131044730544,-0.8105260133743286,0.17502009868621826,-0.5589415431022644,0.0022832155227661133,0.011076107621192932,-0.01922929286956787,-0.8108956741405972,-0.09050219861732889,0.4608021178869216,-0.349169166181488,-0.1759261830706515,-0.9670820745856675,0.7206483054822026
1781116588741298944,0.8828790187835693,-0.35844606161117554,-0.6535875797271729,-0.010724910534918308,-0.8141963481903076,0.17691583931446075,-0.5529782772064209,0.0025051236152648926,0.015512719750404358,-0.019455134868621826,-0.8095479850983274,-0.09023854106494623,0.4640774401835013,-0.3480245659088995,-0.17785197495995847,-0.9741870101626976,0.7176468570486538
1781116588751333888,0.8929140567779541,-0.39585602283477783,-0.6423189043998718,-0.020889397710561752,-0.8177964687347412,0.17885126173496246,-0.5470110774040222,0.0068985819816589355,0.019924983382225037,-0.016022920608520508,-0.8082308406121625,-0.08988725598563305,0.46734861619297585,-0.34679740194759634,-0.17981876834692045,-0.9812601031890142,0.7144021927511885
1781116588761367808,0.9029479026794434,-0.5093711614608765,-0.6375856995582581,-0.023722734302282333,-0.8213268518447876,0.18110832571983337,-0.5409455299377441,0.011664927005767822,0.015546947717666626,-0.01708364486694336,-0.8069712431769512,-0.08923107914010293,0.47070698339290984,-0.3453551394083633,-0.18211329291775527,-0.9883824585953673,0.7104455253324176
1781116588771402752,0.9129829406738281,-0.6481100916862488,-0.656577467918396,-0.02833239920437336,-0.8248546123504639,0.18400439620018005,-0.5345627069473267,0.019343137741088867,0.007554441690444946,-0.00260770320892334,-0.8057454844775636,-0.08807253482532806,0.4743014713951449,-0.3435921137361172,-0.18505886700819812,-0.9957797790170579,0.7053641088221524
1781116588781437952,0.9230179786682129,-0.7722917199134827,-0.6868957281112671,-0.03672268986701965,-0.8284938931465149,0.18753069639205933,-0.5276647210121155,0.019945979118347168,-0.0037844032049179077,0.0042882561683654785,-0.8045070902168304,-0.08642904338339388,0.4782234553751586,-0.3414682523176314,-0.18864763919500604,-1.0036880574850506,0.699073422871942
1781116588791471872,0.9330520629882812,-0.8896977305412292,-0.6994051337242126,-0.05126381292939186,-0.8322243690490723,0.1915237009525299,-0.5203087329864502,0.012751162052154541,-0.005397006869316101,-0.0016180872917175293,-0.8032676374713125,-0.08437258058803188,0.48241777864222607,-0.3389916820028167,-0.1927143523387015,-1.0120514558520657,0.6916579771363208
1781116588801506816,0.9430868625640869,-1.0116491317749023,-0.7137801647186279,-0.057905472815036774,-0.835995614528656,0.19599242508411407,-0.5125411152839661,0.004239022731781006,0.003211081027984619,-0.0069901347160339355,-0.8020374087299444,-0.08187471650537718,0.4868531362584478,-0.3361646104244188,-0.1972693950730064,-1.0208069019182515,0.6830953929836199
1781116588811541760,0.9531219005584717,-1.0969289541244507,-0.7334678769111633,-0.07175496965646744,-0.8398112654685974,0.2008516937494278,-0.5043566823005676,0.0018748641014099121,0.014098867774009705,-0.007468819618225098,-0.8008008470194257,-0.07898680601738578,0.4915106622362158,-0.3330111825487963,-0.20222725193627597,-1.0299654792298152,0.6734763784550998
1781116588821575936,0.96315598487854,-1.0763131380081177,-0.7543725967407227,-0.09613700956106186,-0.8437066674232483,0.20564775168895721,-0.4958508014678955,0.005419373512268066,0.014857009053230286,-0.011549711227416992,-0.7995221200852259,-0.07603324482703484,0.4962797097399208,-0.3296812885968233,-0.20712555476354863,-1.0394661887370902,0.6634068090017897
1781116588831610880,0.9731910228729248,-1.0480226278305054,-0.7741953134536743,-0.12210416048765182,-0.8477036952972412,0.20993974804878235,-0.48715874552726746,0.008577167987823486,0.020116999745368958,-0.021813422441482544,-0.7981883139219819,-0.07331980473244484,0.5010437456147648,-0.3263046106050254,-0.2115133319264718,-1.0492022345490044,0.6534458154371542
1781116588841646080,0.9832260608673096,-1.052679181098938,-0.7886794805526733,-0.16069044172763824,-0.8517837524414062,0.21382373571395874,-0.4782717227935791,0.00896453857421875,0.03686290979385376,-0.013580083847045898,-0.7968247830965935,-0.07074746415848598,0.5058250026699921,-0.32280966423623414,-0.21548755534042544,-1.059171151902634,0.6433652289009065
1781116588851679744,0.9932599067687988,-1.0989021062850952,-0.7833499312400818,-0.19453415274620056,-0.8559078574180603,0.21737264096736908,-0.46922364830970764,-0.0021854043006896973,0.05119729042053223,-0.01422053575515747,-0.7954859602300378,-0.0681915573811992,0.5106251864069677,-0.31908287087143056,-0.21912194540913274,-1.069322668223793,0.6328367049152523
1781116588861714944,1.0032949447631836,-1.1684720516204834,-0.7721851468086243,-0.22309362888336182,-0.8599877953529358,0.2208288162946701,-0.4600604474544525,-0.008313596248626709,0.051387980580329895,-0.013373970985412598,-0.7942064483943815,-0.06545543156738141,0.5154467659438305,-0.3150655805824139,-0.222664185624113,-1.0795721872126784,0.6215641563985402
1781116588871749888,1.0133299827575684,-1.2231204509735107,-0.7817045450210571,-0.2419232428073883,-0.8640434145927429,0.2242850363254547,-0.45069432258605957,-0.0047768354415893555,0.03425988554954529,-0.00619959831237793,-0.7929443911528593,-0.06251144583921706,0.5203317703461405,-0.3107836708474911,-0.22620931780289333,-1.090009949790276,0.6095604545780563
1781116588881784832,1.0233650207519531,-1.3400827646255493,-0.7975471615791321,-0.2450796216726303,-0.8681291937828064,0.22786936163902283,-0.4409389793872833,-0.0013318061828613281,0.017858147621154785,0.0003872215747833252,-0.7916444342887516,-0.05929735215716806,0.5253706704255848,-0.3062163708533736,-0.22988891509979964,-1.1008339140900045,0.5967029895183554
1781116588891818752,1.0333988666534424,-1.4807263612747192,-0.8145525455474854,-0.2462785691022873,-0.8722221851348877,0.231907919049263,-0.4306357800960541,0.0011742711067199707,0.00019350647926330566,0.014040321111679077,-0.7902849916755462,-0.055574319544827756,0.5306539476992019,-0.30127639388068383,-0.23403861176425003,-1.1121832628590627,0.5825662891831601
1781116588901853696,1.0434339046478271,-1.5619194507598877,-0.8435202836990356,-0.2489529252052307,-0.8763436079025269,0.23623882234096527,-0.4197774827480316,-0.0007163286209106445,-0.02104412019252777,0.015892624855041504,-0.7888487983007563,-0.051435306877673725,0.5361582440294574,-0.2959836833140692,-0.23849328099013742,-1.124081142165886,0.5672763212446081
1781116588911888896,1.053468942642212,-1.6322230100631714,-0.8725929260253906,-0.23342563211917877,-0.8804792165756226,0.24074819684028625,-0.40840739011764526,0.001420438289642334,-0.014170452952384949,0.007589548826217651,-0.7872825983695954,-0.04703295475634275,0.5418341093839006,-0.2904991023830906,-0.24313664156217948,-1.1364873060501368,0.5512865725077802
1781116588921922816,1.0635030269622803,-1.6483361721038818,-0.8924247026443481,-0.2185012698173523,-0.8845825791358948,0.24540425837039948,-0.3965985178947449,0.005706906318664551,0.006396278738975525,0.013404548168182373,-0.7855704652988111,-0.04242539920312969,0.5476320119977951,-0.2849180888579192,-0.24793667346676798,-1.149319226643646,0.5348356820322142
1781116588931958016,1.073538064956665,-1.583268165588379,-0.9661502838134766,-0.1867944747209549,-0.8887059092521667,0.2499413937330246,-0.3843582570552826,0.014499366283416748,0.020719021558761597,0.00850379467010498,-0.7836278635910616,-0.037931336566248,0.5535179148701143,-0.2794755960292903,-0.25261972746349953,-1.162596968371107,0.5186811990789599
1781116588941992704,1.0835728645324707,-1.6130266189575195,-0.8705159425735474,-0.24128887057304382,-0.8927261233329773,0.25414735078811646,-0.3720877766609192,0.013804614543914795,0.031466662883758545,0.0036337971687316895,-0.7816257164796758,-0.03353023296397725,0.5593137162497303,-0.2740532906551104,-0.2569659981396704,-1.1758920438902356,0.5026388879231072
1781116588952026880,1.093606948852539,-1.6172277927398682,-0.8056740760803223,-0.2978043556213379,-0.8964955806732178,0.257659375667572,-0.3604263365268707,-0.007633328437805176,0.0329747200012207,0.015989691019058228,-0.7798957949585277,-0.029084051390072658,0.5647485758853859,-0.26828261072063336,-0.26059901302535887,-1.188533287987369,0.48599243033868533
1781116588962061824,1.1036419868469238,-1.5543644428253174,-0.7810057401657104,-0.30034980177879333,-0.9000958204269409,0.26062414050102234,-0.3491457402706146,0.0019176006317138672,0.012523472309112549,0.015771716833114624,-0.778251315773883,-0.02477843672399782,0.5699238187511754,-0.26248406385834083,-0.26366862679035247,-1.20076568326327,0.46949594864763056
1781116588972097024,1.1136770248413086,-1.4957274198532104,-0.777130126953125,-0.3129079341888428,-0.9035767912864685,0.2631276249885559,-0.33810189366340637,0.010556161403656006,-0.010899871587753296,0.024899989366531372,-0.7765858626517995,-0.02072408705671897,0.574908308481844,-0.2568372084121121,-0.26626264061384186,-1.2127432544618617,0.4535754824959786
1781116588982130688,1.1237108707427979,-1.5254888534545898,-0.7669680714607239,-0.31163546442985535,-0.9069818258285522,0.2653047442436218,-0.3271048069000244,0.008925676345825195,-0.02589431405067444,0.031664103269577026,-0.7748930282819032,-0.016755584420137304,0.5797989728810259,-0.2511838949449036,-0.26851999307586816,-1.2246636784958302,0.43774891665094934
1781116588992165888,1.1337459087371826,-1.6061335802078247,-0.7539302706718445,-0.3047373592853546,-0.9102578163146973,0.26753124594688416,-0.3160029649734497,0.010187625885009766,-0.03149300813674927,0.03568375110626221,-0.7731759975362514,-0.012530416354384049,0.5846721391059676,-0.2453577373080808,-0.2708299557284758,-1.2366559096497904,0.4213240244312898
1781116589002200832,1.1437809467315674,-1.6752724647521973,-0.7358476519584656,-0.2895831763744354,-0.9133820533752441,0.269931823015213,-0.3047456443309784,0.010153353214263916,-0.0400734543800354,0.038296669721603394,-0.7714228870293627,-0.007947415255740149,0.5895456048893615,-0.2393313287751886,-0.27332223263993216,-1.2487650287566312,0.40412952370640515
1781116589012235008,1.1538150310516357,-1.6847224235534668,-0.7026093006134033,-0.28037822246551514,-0.9163188934326172,0.27237215638160706,-0.29355284571647644,0.0053386688232421875,-0.04411590099334717,0.04063838720321655,-0.7696680105481646,-0.0031387613047086853,0.59431786063103,-0.2332116983754263,-0.27585753153258125,-1.2607659255875368,0.38652781162948213
1781116589022269952,1.1638500690460205,-1.6618202924728394,-0.654822587966919,-0.276243656873703,-0.9190458655357361,0.27465274930000305,-0.2827027142047882,0.006173431873321533,-0.023645609617233276,0.03506782650947571,-0.7679619794127925,0.0017028841780223848,0.5988703923736329,-0.22712530791871594,-0.27822854059750374,-1.2723775429177349,0.3689947228610922
1781116589032304640,1.1738848686218262,-1.6038429737091064,-0.607518196105957,-0.28533488512039185,-0.9215763807296753,0.2766275703907013,-0.27234914898872375,0.013297021389007568,0.0037679076194763184,0.027399808168411255,-0.7663388753013082,0.006445332053182748,0.6031449935336685,-0.22113170564993992,-0.28028296170440004,-1.2834497871371382,0.35180817963763245
1781116589042338816,1.1839189529418945,-1.5221246480941772,-0.572468638420105,-0.3024558126926422,-0.9239780902862549,0.2780981957912445,-0.2625371813774109,0.022778809070587158,0.014489054679870605,0.024973124265670776,-0.7648023646870605,0.010910840391980847,0.6071345500434571,-0.21528088557499347,-0.28181363851251345,-1.293954697362537,0.3352710465064956
1781116589052373760,1.1939539909362793,-1.4459998607635498,-0.5496717095375061,-0.30801358819007874,-0.9262862205505371,0.27910152077674866,-0.25317245721817017,0.026444852352142334,0.0045899152755737305,0.03289654850959778,-0.7633130817062498,0.015062655773050175,0.6108902448216279,-0.2096174190315653,-0.28285831725369454,-1.3039927737970192,0.31949317742969197
1781116589062408960,1.203989028930664,-1.4092711210250854,-0.5213822722434998,-0.3051773011684418,-0.9284866452217102,0.27979776263237,-0.24418389797210693,0.020878612995147705,-0.015088289976119995,0.043301939964294434,-0.7618588899514177,0.019007026616850352,0.6144483563533789,-0.20411514299136205,-0.28358346217243696,-1.3136284314460298,0.30429797085173604
1781116589072443904,1.2140240669250488,-1.4216697216033936,-0.4847627580165863,-0.2998214364051819,-0.9305440783500671,0.2803988754749298,-0.23550797998905182,0.01449805498123169,-0.0334201455116272,0.05752947926521301,-0.7604611790892961,0.02298749203112847,0.6178329732310165,-0.19862704847012788,-0.2842096244294529,-1.3229150068349362,0.2891418998491943
1781116589082477824,1.224057912826538,-1.4167606830596924,-0.4477967321872711,-0.2858118712902069,-0.9324595332145691,0.28092464804649353,-0.22715793550014496,0.006769835948944092,-0.05294305086135864,0.05883818864822388,-0.7591208188673102,0.026999404412812466,0.6210411113276947,-0.1931699952054797,-0.2847574081916855,-1.3318392705837696,0.2740599077983088
1781116589092512768,1.2340929508209229,-1.4150501489639282,-0.41827666759490967,-0.264926552772522,-0.9342024922370911,0.28153008222579956,-0.21910373866558075,0.00384366512298584,-0.05548641085624695,0.04898352921009064,-0.7578248251019332,0.03112595716080643,0.6240827701236847,-0.18775877256161466,-0.28538830955023775,-1.3404245072718464,0.25896909621381786
1781116589102547968,1.2441279888153076,-1.3754096031188965,-0.39093533158302307,-0.2492125779390335,-0.9358078837394714,0.2821325659751892,-0.21134024858474731,-0.003980875015258789,-0.0469031035900116,0.03957207500934601,-0.7565582007330227,0.035256081472599655,0.626966411752583,-0.1824547668208055,-0.28601626454269835,-1.348685145036767,0.24410184066872295
1781116589112581888,1.254162073135376,-1.3026649951934814,-0.364197701215744,-0.23934529721736908,-0.9372814893722534,0.28264614939689636,-0.20399616658687592,-0.005345404148101807,-0.02593231201171875,0.031205683946609497,-0.7553369065554836,0.03923336181960043,0.6296528069455923,-0.17738135428314067,-0.2865516253010785,-1.3564918340130867,0.2298683132341931
1781116589122616832,1.2641968727111816,-1.2023708820343018,-0.32441914081573486,-0.24167662858963013,-0.938659131526947,0.2829085886478424,-0.1971844732761383,-0.003586292266845703,-0.006663471460342407,0.025217890739440918,-0.7541969437313932,0.04292375935191195,0.632111791147445,-0.1725665176029784,-0.28682524258769027,-1.3637367430781808,0.21649590886362452
1781116589132651776,1.2742319107055664,-1.044471263885498,-0.29570814967155457,-0.24412967264652252,-0.9399465918540955,0.2828197181224823,-0.19108569622039795,0.003514587879180908,-0.0038432180881500244,0.02148422598838806,-0.7531740465541643,0.046149111824189445,0.6342928446637988,-0.16814243294391878,-0.2867325713890471,-1.3702352751412739,0.20444714154956037
1781116589142685952,1.2842659950256348,-0.919390857219696,-0.2745381295681,-0.23880282044410706,-0.9411711096763611,0.28239360451698303,-0.18560947477817535,0.004708766937255859,-0.0018760263919830322,0.01439058780670166,-0.7522289225328989,0.04883493665721073,0.6362471321314116,-0.1641842407438692,-0.28628836093679705,-1.3760837556388794,0.19392280055011538
1781116589152720896,1.2943010330200195,-0.849973738193512,-0.25283804535865784,-0.2374592423439026,-0.9423320293426514,0.2817690074443817,-0.18060055375099182,0.005274593830108643,0.0063321590423583984,0.028287366032600403,-0.7513519901194886,0.05118866693120159,0.6380277761690256,-0.16053187795951504,-0.2856373221048728,-1.3814396747586932,0.18438385233044044
1781116589162755840,1.3043360710144043,-0.8070456981658936,-0.22475872933864594,-0.23281869292259216,-0.9434241056442261,0.28102269768714905,-0.17600426077842712,0.010928928852081299,0.00918424129486084,0.040109455585479736,-0.7505582621721343,0.05336669007065926,0.6396482375600698,-0.15704965265543228,-0.2848595743117622,-1.3863575723202388,0.17540870832355432
1781116589172789760,1.3143699169158936,-0.7999041676521301,-0.21660718321800232,-0.2289579063653946,-0.9444592595100403,0.2802213132381439,-0.17167693376541138,0.010132968425750732,-0.008599549531936646,0.03796415030956268,-0.7498178586622771,0.05546588550828921,0.6411591609586539,-0.15366128069608825,-0.28402463634278996,-1.3909868312575084,0.16673157847995326
1781116589182824960,1.3244049549102783,-0.8241309523582458,-0.20736654102802277,-0.22380442917346954,-0.9454606771469116,0.27944570779800415,-0.1673748940229416,0.009929001331329346,-0.038066864013671875,0.05742006003856659,-0.7490733903412842,0.057620695668882095,0.642644856605335,-0.15025518105914717,-0.2832167601714826,-1.3955816850740872,0.157968276250625
1781116589192859904,1.334439992904663,-0.8390030860900879,-0.17484335601329803,-0.2054629623889923,-0.9463796615600586,0.2787894010543823,-0.163223996758461,0.006926536560058594,-0.06599032878875732,0.0682990550994873,-0.7483679125981334,0.059906869977378,0.6440490395840551,-0.14682473158594678,-0.2825333127761621,-1.4000045770018321,0.14902980205041957
1781116589202894080,1.3444740772247314,-0.8516765236854553,-0.1548246443271637,-0.18202368915081024,-0.9471887946128845,0.27832138538360596,-0.15928153693675995,-0.0032353997230529785,-0.07438769936561584,0.03602105379104614,-0.7477121636939701,0.06233617519934711,0.6453475303968593,-0.14341293435709834,-0.2820460111477041,-1.404192699408583,0.13997551281206372
1781116589212928768,1.354508876800537,-0.846544623374939,-0.13323412835597992,-0.17317692935466766,-0.9479132890701294,0.2779713273048401,-0.1555389016866684,-0.0038841962814331055,-0.050218671560287476,0.021414175629615784,-0.7471024014136071,0.06485287476113466,0.6465482631666767,-0.14002655265943886,-0.28168155616470414,-1.4081600261247884,0.13088420361342584
1781116589222963712,1.3645439147949219,-0.7618457078933716,-0.11954522877931595,-0.1648915708065033,-0.9485760927200317,0.27761444449424744,-0.15209762752056122,0.004682660102844238,-0.021755069494247437,0.012632310390472412,-0.7465484920219482,0.0672577955728683,0.6476322843334252,-0.13679988321557227,-0.28131006219357274,-1.4118065517281508,0.12223584643227568
1781116589232998912,1.3745789527893066,-0.6413320899009705,-0.12201675772666931,-0.15820038318634033,-0.9492087364196777,0.27713364362716675,-0.14899620413780212,0.011769771575927734,-0.001361548900604248,-0.010275006294250488,-0.7460250628526234,0.06927296849175638,0.6486163391949425,-0.1339581620222548,-0.28080961900998774,-1.415097946011343,0.11474532663630485
1781116589243032832,1.384613037109375,-0.5609120726585388,-0.1258985847234726,-0.15409165620803833,-0.9498228430747986,0.27653297781944275,-0.14617152512073517,0.015222012996673584,0.013704448938369751,-0.021476805210113525,-0.7455207686297133,0.07092049622946184,0.6495263809278926,-0.13147085957522994,-0.2801845316003395,-1.418100784669227,0.10832679388167105
1781116589253068032,1.3946480751037598,-0.5301786661148071,-0.12450988590717316,-0.15146738290786743,-0.9504354000091553,0.2758494019508362,-0.14345553517341614,0.017650485038757324,0.01525774598121643,-0.001960739493370056,-0.7450156308576094,0.07238111270151704,0.6504100294194474,-0.12914874939600368,-0.2794732813935055,-1.4209904676991811,0.10242700976936803
1781116589263102720,1.4046828746795654,-0.48572227358818054,-0.1272963434457779,-0.14408136904239655,-0.9510219693183899,0.2751636505126953,-0.14086230099201202,0.015627682209014893,-0.0002002716064453125,0.016701579093933105,-0.7445168284396031,0.07371260923676023,0.6512567066779744,-0.12698762617888515,-0.278759911435522,-1.423748672648761,0.09696635968848397
1781116589273136896,1.4147169589996338,-0.4946126937866211,-0.11910966038703918,-0.13242018222808838,-0.9515808820724487,0.27451246976852417,-0.13833628594875336,0.01051020622253418,-0.026663899421691895,0.03257755935192108,-0.7440192326360353,0.07500104109640383,0.6520787555365671,-0.12491437572759491,-0.2780826430926601,-1.4264324262919623,0.09171100772374194
1781116589283171840,1.4247519969940186,-0.5143677592277527,-0.11969155073165894,-0.12416891008615494,-0.9521040916442871,0.2739558517932892,-0.13581587374210358,0.0033279061317443848,-0.04695087671279907,0.04395796358585358,-0.7435183060853262,0.07636756505194604,0.6528859462333755,-0.12283500383068677,-0.2775038594181436,-1.4291041055316835,0.08634817198976925
1781116589293207040,1.4347870349884033,-0.5569077730178833,-0.09830797463655472,-0.10019433498382568,-0.9525597095489502,0.2736126184463501,-0.13329002261161804,-0.006973981857299805,-0.0530773401260376,0.04300379753112793,-0.7430183769520068,0.07793608859968691,0.6536673094868819,-0.12070109217072719,-0.27714697094300744,-1.431770739539145,0.08063892769653896
1781116589303240704,1.4448208808898926,-0.5918987989425659,-0.0575815849006176,-0.09559106081724167,-0.9529300332069397,0.27344921231269836,-0.13095806539058685,-0.015301167964935303,-0.038418084383010864,0.02777808904647827,-0.7425905312889695,0.07971480905324141,0.6543443437527502,-0.1184837151970778,-0.2769771069637072,-1.4342250731391892,0.07455591215885561
1781116589313275904,1.4548559188842773,-0.56694096326828,-0.024291403591632843,-0.09053265303373337,-0.9532356858253479,0.2733207643032074,-0.1289868950843811,-0.0113944411277771,-0.01920086145401001,0.0009351372718811035,-0.7422811772902247,0.08155544742260197,0.654870416636843,-0.11624178002108626,-0.2768435493829098,-1.4362984471218305,0.06840774599569688
1781116589323310848,1.464890956878662,-0.5249649882316589,-0.028889354318380356,-0.07988400012254715,-0.9534984827041626,0.27321261167526245,-0.12726137042045593,0.001533210277557373,-0.006748408079147339,-0.01792602241039276,-0.7420265391521214,0.08330047058421668,0.655309351904278,-0.1141371579856763,-0.2767311315398702,-1.4381126559268336,0.0626327773335565
1781116589333345024,1.4749250411987305,-0.4783676862716675,-0.05028851702809334,-0.08394186198711395,-0.9537691473960876,0.27307456731796265,-0.1255178153514862,0.010638654232025146,0.0070462822914123535,-0.02118021249771118,-0.7417326540841874,0.08487088463357507,0.6557728485518696,-0.11221230469225385,-0.27658763956793514,-1.439946394505997,0.05736141638017318
1781116589343379968,1.4849600791931152,-0.4462243914604187,-0.06083330139517784,-0.08930253982543945,-0.9540761113166809,0.27281561493873596,-0.12373629212379456,0.011449038982391357,0.018581509590148926,-0.022015705704689026,-0.7414054002489279,0.08627010249790378,0.6562692466647834,-0.11039171279679431,-0.2763184521416636,-1.4418239575818854,0.05247076180388629
1781116589353414656,1.494994878768921,-0.4174982011318207,-0.06735165417194366,-0.09366106986999512,-0.954407811164856,0.27246493101119995,-0.12193755060434341,0.006882786750793457,0.018627017736434937,-0.023204028606414795,-0.7410541946501314,0.08752973986107124,0.6567874625191088,-0.10866251730345114,-0.27595395104473813,-1.4437222424860265,0.047902748000407
1781116589363448832,1.5050289630889893,-0.4369312822818756,-0.06145195662975311,-0.0955766811966896,-0.9547410011291504,0.2720925211906433,-0.12014706432819366,0.0003037452697753906,0.01559668779373169,-0.0013739466667175293,-0.7406992377840997,0.08876492568232737,0.657303015395645,-0.10694937321799791,-0.2755669254339014,-1.4456118013821568,0.043394045351582415
1781116589373483776,1.515064001083374,-0.47110337018966675,-0.04180368781089783,-0.10114108771085739,-0.9550750255584717,0.2716841399669647,-0.11840405315160751,-0.00705265998840332,0.008741885423660278,0.018748879432678223,-0.7403752425804679,0.09009908208916584,0.6577842580594724,-0.1051027581403161,-0.27514256161089284,-1.4474521099311932,0.03855897814891285
1781116589383518976,1.5250990390777588,-0.47465258836746216,-0.02947511337697506,-0.09195531159639359,-0.9553847908973694,0.27130213379859924,-0.11676990985870361,-0.009046971797943115,-0.008667856454849243,0.018808484077453613,-0.7400915913958285,0.0915105444089006,0.6582103516885097,-0.10319631015997456,-0.2747456424808414,-1.449176629071461,0.03354734230922531
1781116589393553920,1.5351340770721436,-0.49943169951438904,-0.008369695395231247,-0.08164887875318527,-0.9556452035903931,0.2710232436656952,-0.11527600139379501,-0.008878052234649658,-0.015072345733642578,0.003474898636341095,-0.7398514867602581,0.09300727125833462,0.6585678762236916,-0.10128044528781659,-0.27445588973113527,-1.4507499814670533,0.028429496293490966
1781116589403587840,1.5451679229736328,-0.5291538834571838,-0.013113319873809814,-0.08143822103738785,-0.9558781981468201,0.2708342969417572,-0.11377855390310287,-0.0037012100219726562,-0.0007232427597045898,-0.011602930724620819,-0.7396174577957777,0.09465096431457032,0.6589020553283432,-0.09927370544923285,-0.2742596263390942,-1.4523233608190373,0.022978444837571856
1781116589413622784,1.5552029609680176,-0.5082553029060364,-0.03792346268892288,-0.08542551100254059,-0.9561274647712708,0.2706426978111267,-0.11212743073701859,0.006252706050872803,0.010881930589675903,-0.029733523726463318,-0.7393282832234762,0.09631249801346808,0.6592876365385258,-0.09724858886704281,-0.2740605763141736,-1.454057074910144,0.01745423362689827
1781116589423657984,1.5652379989624023,-0.4742933213710785,-0.0648173913359642,-0.09803637862205505,-0.956437349319458,0.27030616998672485,-0.11028152704238892,0.011155486106872559,0.01803913712501526,-0.04010908305644989,-0.7389555890217796,0.09779464317698254,0.659769235430979,-0.095316946199071,-0.273711029196172,-1.455998788433834,0.012283753711164754
1781116589433691648,1.5752718448638916,-0.4814617335796356,-0.07738284766674042,-0.10071391612291336,-0.9567860960960388,0.26987576484680176,-0.10829304903745651,0.006346702575683594,0.022177398204803467,-0.034376613795757294,-0.7385271440927669,0.09920084757817045,0.6603125527173548,-0.09340329799070853,-0.2732640198272183,-1.4580917895591874,0.007222668557501021
1781116589443726848,1.5853068828582764,-0.49443188309669495,-0.07226158678531647,-0.10566873103380203,-0.9571475386619568,0.2694045603275299,-0.10625339299440384,0.0004367232322692871,0.016590923070907593,-0.023751497268676758,-0.7380822302133531,0.10062884562117583,0.6608684736062731,-0.09144016284785353,-0.27277468515928055,-1.460238524373459,0.0020517146852836966
1781116589453761792,1.5953419208526611,-0.5666804909706116,-0.05975579097867012,-0.10692068189382553,-0.9575068354606628,0.2689298391342163,-0.1041998416185379,-0.000653684139251709,0.004431396722793579,-0.011400774121284485,-0.7376443587528504,0.10218723107353195,0.6614059647746181,-0.08933557471291902,-0.27228175868872445,-1.4623987709228377,-0.0035079639740042347
1781116589463795968,1.6053760051727295,-0.6650374531745911,-0.05699009820818901,-0.11332212388515472,-0.9578619003295898,0.2685146927833557,-0.10198332369327545,0.005988001823425293,-0.004995375871658325,-0.003866925835609436,-0.7371824816568938,0.1040800902703333,0.66194839093073,-0.08691211245265001,-0.2718507776256997,-1.464726158154416,-0.01001923506811021
1781116589473830912,1.6154110431671143,-0.7318241596221924,-0.0877341628074646,-0.10965308547019958,-0.95823734998703,0.2681359052658081,-0.09942083805799484,0.01217716932296753,-0.012383311986923218,-0.01650017499923706,-0.7366263525934449,0.10625430129776645,0.66257045207326,-0.08421478477913273,-0.271457545574934,-1.467412363001912,-0.017369141549291617
1781116589483865856,1.62544584274292,-0.7823885679244995,-0.12808291614055634,-0.11047733575105667,-0.9586382508277893,0.2678237557411194,-0.0963483601808548,0.014867007732391357,-0.0032516419887542725,-0.019236966967582703,-0.7359066124340743,0.10865286600929598,0.6633403153062812,-0.08133610023331457,-0.27113355651117194,-1.4706272609630275,-0.025365375326457374
1781116589493899776,1.6354799270629883,-0.8059285283088684,-0.1489892601966858,-0.11790488660335541,-0.9590803384780884,0.26747167110443115,-0.0928647369146347,0.010868668556213379,0.006820321083068848,-0.0218508243560791,-0.7350457566980831,0.11113115624386662,0.6642420485464496,-0.07835901194372849,-0.2707681420733231,-1.474270378225635,-0.03367407775774922
1781116589503934976,1.645514965057373,-0.8995756506919861,-0.13901039958000183,-0.1356561928987503,-0.9595520496368408,0.2670244574546814,-0.08920688927173615,0.0004913806915283203,0.015080004930496216,-0.019832365214824677,-0.7341379731326166,0.1137884618664846,0.6651682055634929,-0.07513257842191784,-0.2703040576388004,-1.478095558528443,-0.04262161239264143
1781116589513969920,1.6555500030517578,-0.9420783519744873,-0.13102450966835022,-0.1454574167728424,-0.9600483179092407,0.26647883653640747,-0.08541890978813171,-0.011204183101654053,0.006149977445602417,-0.02148420363664627,-0.7331997388628567,0.11666942212968964,0.6660921781583141,-0.07160785476308211,-0.2697379211697509,-1.4820564436316366,-0.052334870056813754
1781116589524004864,1.6655850410461426,-1.0218045711517334,-0.11823893338441849,-0.1294393092393875,-0.9605205655097961,0.26596924662590027,-0.08161312341690063,-0.017949283123016357,-0.012673348188400269,-0.018347203731536865,-0.7322528064092874,0.11974998864259863,0.6669732965995073,-0.06791480508540981,-0.2692092519017024,-1.4860323215348477,-0.06257156074258732
1781116589534038784,1.6756188869476318,-1.1274383068084717,-0.11669337749481201,-0.10958224534988403,-0.9609275460243225,0.26568660140037537,-0.07764657586812973,-0.01894611120223999,-0.023331254720687866,-0.003270745277404785,-0.7312556038904828,0.12326960482462296,0.667818326728451,-0.063942110323593,-0.2689160543044481,-1.4901677282478232,-0.07384610573220178
1781116589544073728,1.6856539249420166,-1.1746561527252197,-0.12431134283542633,-0.0819849744439125,-0.9612753391265869,0.26563286781311035,-0.07340888679027557,-0.01287621259689331,-0.02344539761543274,-0.0070354267954826355,-0.7301572831654837,0.12714621793203615,0.6686773492602995,-0.05978922648816161,-0.26886032391903364,-1.4945781223176802,-0.0859170138934446
1781116589554108928,1.6956889629364014,-1.1538676023483276,-0.10855076462030411,-0.08331388980150223,-0.9615763425827026,0.2656889855861664,-0.06914115697145462,0.002393484115600586,-0.0005217194557189941,-0.011867769062519073,-0.7290225215584767,0.13111678109911853,0.669505648221664,-0.055649139180101184,-0.2689185374179307,-1.4990158941118426,-0.09810557566446945
1781116589564142848,1.7057230472564697,-1.1106396913528442,-0.12761899828910828,-0.11490244418382645,-0.9619176983833313,0.26550158858299255,-0.06498736888170242,0.009891331195831299,0.023469358682632446,-0.026809513568878174,-0.7278978069854737,0.13489445470818315,0.670305751502474,-0.051560664741949154,-0.2687241323010919,-1.503338615141669,-0.10993828940385808
1781116589574177792,1.7157578468322754,-1.076524019241333,-0.13142450153827667,-0.1365712583065033,-0.9623401165008545,0.2649594247341156,-0.06081102788448334,0.008497953414916992,0.03949916362762451,-0.016932543367147446,-0.7267367203998758,0.13839827469935986,0.671148570980118,-0.047531359399806176,-0.26816184253927816,-1.5076894496908593,-0.12130833152232992
1781116589584212736,1.7257928848266602,-1.0876033306121826,-0.10569731146097183,-0.13398505747318268,-0.9627714157104492,0.2642897963523865,-0.056764472275972366,-0.0007143616676330566,0.032783567905426025,-0.005857586860656738,-0.725598481548094,0.1418692639475458,0.6719307077589955,-0.043463962576365,-0.2674674513860274,-1.5119050537679422,-0.13267019933695068
1781116589594246912,1.7358269691467285,-1.0346325635910034,-0.06899908185005188,-0.1388290822505951,-0.9631780982017517,0.263561487197876,-0.05313582345843315,-0.010790467262268066,0.005603581666946411,-0.01906878501176834,-0.7245766481232198,0.1452504960674279,0.6725580879477547,-0.03945477847900741,-0.26671238773187833,-1.515685007450606,-0.1437630664893576
1781116589604283392,1.745863437652588,-1.0227707624435425,-0.0514690987765789,-0.15023992955684662,-0.9635882377624512,0.2627035677433014,-0.049847204238176346,-0.007923722267150879,-0.0007100999355316162,-0.008960135281085968,-0.7236455598099075,0.1484872338854135,0.6730735020393527,-0.03550823449406045,-0.26582311190534885,-1.5191115848571248,-0.15451449632433698
1781116589614318336,1.7558984756469727,-0.9665961861610413,-0.04651535302400589,-0.1820974498987198,-0.9640498757362366,0.2615724205970764,-0.046773601323366165,0.0006099343299865723,0.008691251277923584,0.0074822306632995605,-0.7227655930045972,0.1515315114220119,0.673536487253634,-0.03157134804755865,-0.2646510002321906,-1.5223165191783323,-0.16495056953047835
1781116589624352512,1.765932559967041,-0.9325594305992126,-0.06903530657291412,-0.18988187611103058,-0.964562177658081,0.26020362973213196,-0.04375094547867775,0.004646897315979004,0.02188563346862793,0.008075889199972153,-0.7218765355268498,0.1543197668848136,0.6740251755935986,-0.027746733011801538,-0.2632330920045297,-1.525469049519118,-0.17485340648927572
1781116589634387200,1.7759673595428467,-0.9202519059181213,-0.07029551267623901,-0.19909001886844635,-0.9650934338569641,0.2587343752384186,-0.0406360924243927,0.004796743392944336,0.03789648413658142,0.03933906555175781,-0.7209329450190192,0.15703158753376278,0.6745539516233264,-0.023953516310214796,-0.26171172452551233,-1.5287153179279471,-0.1846123403667334
1781116589644422400,1.7860023975372314,-0.819860577583313,-0.04201380908489227,-0.22484225034713745,-0.9656667113304138,0.25701379776000977,-0.037837542593479156,-0.0023203492164611816,0.03322359919548035,0.05556821823120117,-0.7200749833425014,0.1594635248486334,0.675020454066806,-0.02026784600810041,-0.25993093880138324,-1.5316335444458578,-0.19377249022998438
1781116589654457344,1.7960374355316162,-0.7212498188018799,-0.011945389211177826,-0.21351183950901031,-0.9662471413612366,0.25514310598373413,-0.03561646491289139,-0.010406911373138428,0.02207854390144348,0.01980835199356079,-0.7193906292168926,0.16147334513087244,0.6753651794251798,-0.01689330081948379,-0.2579957161415828,-1.5339523892122673,-0.2018018283226415
1781116589664491520,1.8060715198516846,-0.6849302053451538,0.017987743020057678,-0.21196773648262024,-0.9667840003967285,0.25334233045578003,-0.0338582918047905,-0.012586116790771484,0.02697688341140747,0.015395164489746094,-0.71884627714732,0.16328793193587987,0.6755796812687361,-0.013754482420816498,-0.25613375734566063,-1.535789066744902,-0.20914823702527488
1781116589674526464,1.8161065578460693,-0.6393227577209473,0.02677537500858307,-0.2086196094751358,-0.9673138856887817,0.2515042722225189,-0.032394055277109146,-0.009477436542510986,0.010840088129043579,0.014068245887756348,-0.7183884266258909,0.16495738641924382,0.6757159410016323,-0.010727374397863778,-0.2542341712366141,-1.537320168116646,-0.21608539644882843
1781116589684561152,1.826141357421875,-0.6213045716285706,0.008413678035140038,-0.1805352419614792,-0.9678023457527161,0.24979573488235474,-0.03099960647523403,0.00019669532775878906,-0.013757511973381042,-0.014029085636138916,-0.7179399581968922,0.16654710434773087,0.6758418886612333,-0.007882084605441379,-0.2524692898361573,-1.5387763456322432,-0.22263566541341992
1781116589694595328,1.8361754417419434,-0.6311606764793396,-0.025561202317476273,-0.17221659421920776,-0.9682420492172241,0.24828611314296722,-0.02934717945754528,0.011592328548431396,-0.024210840463638306,-0.009227033704519272,-0.7173891498569769,0.1682131635241489,0.6760404885007003,-0.0051309941692883115,-0.2509105671194133,-1.5404958477211286,-0.22919129546867095
1781116589704630272,1.8462104797363281,-0.6177719235420227,-0.0595489963889122,-0.16486307978630066,-0.9686804413795471,0.24679721891880035,-0.02737334556877613,0.016074299812316895,-0.01913607120513916,-0.007386147975921631,-0.7167152969291363,0.16988736351770375,0.6763516917829622,-0.00242142374911223,-0.2493738357516857,-1.5425454601254445,-0.2357383477306406
1781116589714665472,1.856245517730713,-0.5555511713027954,-0.08270451426506042,-0.1553526669740677,-0.9690905213356018,0.24541202187538147,-0.02522955648601055,0.017277777194976807,-0.00923648476600647,-0.014016032218933105,-0.7159712100204911,0.17146014408745644,0.6767471026134367,8.056073408644503e-05,-0.24794468222760116,-1.544767944309548,-0.24186129636336257
1781116589724699136,1.8662793636322021,-0.5369742512702942,-0.08843857049942017,-0.16321004927158356,-0.9695042371749878,0.2439877986907959,-0.023049527779221535,0.012228965759277344,-0.0009763389825820923,-0.005606470629572868,-0.71520237606252,0.1736027382592972,0.6770061486822221,0.00320114134433392,-0.24647580850831977,-1.5470262544465467,-0.249693699940656
1781116589734734336,1.876314401626587,-0.4815821051597595,-0.08798276633024216,-0.1593700349330902,-0.9699175953865051,0.2425321638584137,-0.020932668820023537,0.0034563541412353516,-0.006783872842788696,0.004254817962646484,-0.7144485741683364,0.17489559412552536,0.6774549407377501,0.005443651585580658,-0.24497508977883983,-1.5492177717538151,-0.2550340615813543
1781116589744769280,1.8863494396209717,-0.404919296503067,-0.07355642318725586,-0.17798127233982086,-0.9703390598297119,0.2409946322441101,-0.019070275127887726,-0.0029885172843933105,-0.011700809001922607,0.012692095711827278,-0.7137782750959833,0.17590587121066867,0.6778805106773078,0.007465144491419951,-0.24339055303865792,-1.551145649072077,-0.2596159345310929
1781116589754803456,1.89638352394104,-0.40324631333351135,-0.06391391903162003,-0.17939701676368713,-0.970786452293396,0.23931166529655457,-0.01742352731525898,-0.0049825310707092285,-0.0009236037731170654,0.007947802543640137,-0.7131781927671228,0.17673222067766362,0.6782727760798258,0.009414697054597644,-0.2416568554887677,-1.552850406731996,-0.26379972738403573
1781116589764838400,1.9064185619354248,-0.36176836490631104,-0.05521043762564659,-0.17448480427265167,-0.971221387386322,0.23764650523662567,-0.01591976173222065,-0.004410445690155029,0.00228273868560791,-0.013453425839543343,-0.712623363856246,0.17751313196156912,0.6786230229978932,0.011312247738313833,-0.23994222495997536,-1.554406309105429,-0.2678233582675637
1781116589774873344,1.9164533615112305,-0.32731425762176514,-0.05287138372659683,-0.16007471084594727,-0.9716251492500305,0.23607532680034637,-0.014596243388950825,-0.0011226534843444824,-0.011450693011283875,-0.018866300582885742,-0.7121298153864096,0.1781570337850298,0.6789417867302059,0.013010351128539323,-0.23832502721724608,-1.555774952309107,-0.2713396822604475
1781116589784908288,1.9264883995056152,-0.37425434589385986,-0.05518833547830582,-0.1582871973514557,-0.9720034599304199,0.23459330201148987,-0.013243994675576687,0.006686687469482422,-0.0012406408786773682,-0.00958317518234253,-0.7116216530403737,0.17888006935457612,0.6792495294489371,0.014719597905013104,-0.23680017305210413,-1.5571717086815264,-0.2749881703129112
1781116589794942464,1.9365224838256836,-0.3703852891921997,-0.06704193353652954,-0.15850025415420532,-0.972383439540863,0.2330915331840515,-0.011781749315559864,0.015184402465820312,0.01008780300617218,0.002595961093902588,-0.7110684948746417,0.1796786173121023,0.679576868071313,0.01650738954317519,-0.23525557450328585,-1.5586805578392873,-0.2788694713754469
1781116589804977408,1.9465575218200684,-0.4059142470359802,-0.08103258162736893,-0.14426006376743317,-0.972743809223175,0.23165911436080933,-0.010166007094085217,0.0196799635887146,0.00051860511302948,0.010989964939653873,-0.7104564782270979,0.1805399146356828,0.679942891447464,0.018290063202349358,-0.23378283914963977,-1.5603458497911133,-0.28285095828478535
1781116589815012352,1.9565925598144531,-0.44523635506629944,-0.08228093385696411,-0.13619227707386017,-0.9730755090713501,0.2303348034620285,-0.008361614309251308,0.015998542308807373,-0.012256205081939697,0.0235440731048584,-0.70977046314623,0.18158947676297307,0.6803267264542547,0.02016596995562388,-0.23242171722325608,-1.562203562189284,-0.28725937596877515
1781116589825046272,1.9666264057159424,-0.4788318872451782,-0.07157662510871887,-0.12816046178340912,-0.9733840227127075,0.2290870100259781,-0.006546937860548496,0.007548391819000244,-0.0238104909658432,0.01995939016342163,-0.7090726061115094,0.18278073523087654,0.6806744698357586,0.02212703444034534,-0.2311396454054166,-1.5640704725078731,-0.29199479334687434
1781116589835081216,1.9766614437103271,-0.5897881984710693,-0.055149585008621216,-0.10315576940774918,-0.973655104637146,0.2279769480228424,-0.004717994015663862,0.0004801154136657715,-0.0332290381193161,0.018954455852508545,-0.7083558854433225,0.18428851705890897,0.6809396048799333,0.024309616729732288,-0.22999941068110788,-1.5659507126245282,-0.2975071226163147
1781116589845116416,1.986696481704712,-0.5873013734817505,-0.04848502576351166,-0.09346479177474976,-0.9738827347755432,0.22703464329242706,-0.0028386572375893593,-0.006723463535308838,-0.053328558802604675,0.0058751702308654785,-0.7076083699710277,0.18607125393618731,0.6811447421830683,0.026643754578934586,-0.22903173190285417,-1.5678815515073685,-0.3036418285770329
1781116589855150336,1.9967305660247803,-0.6085315346717834,-0.037717729806900024,-0.07422718405723572,-0.9740769863128662,0.22621488571166992,-0.0010775586124509573,-0.00779569149017334,-0.055682629346847534,0.00014680612366646528,-0.7068963764056206,0.18787961802638908,0.6812947011506074,0.02892137199601771,-0.22819007443027936,-1.5696900916540995,-0.3097206699588632
1781116589865185280,2.006765365600586,-0.6503293514251709,-0.032604195177555084,-0.054607145488262177,-0.9742230772972107,0.22558651864528656,0.0006921457825228572,0.0006816983222961426,-0.022553041577339172,0.000665903149638325,-0.7061697421552635,0.18990671677406368,0.6813820601024697,0.03127924380112395,-0.22754503628806919,-1.5715067859491083,-0.3162359260084071
1781116589875220224,2.0168004035949707,-0.6282591819763184,-0.04569922387599945,-0.0452599823474884,-0.9743374586105347,0.22507813572883606,0.0025170480366796255,0.004519343376159668,-0.023585841059684753,-0.028517961502075195,-0.7054152887662798,0.19202056533952122,0.681459189197244,0.03362662421803667,-0.22702323422521345,-1.5733796642853393,-0.32287182174370865
1781116589885255424,2.0268354415893555,-0.5895701050758362,-0.07178941369056702,-0.024526476860046387,-0.9744148850440979,0.2247130274772644,0.004453576635569334,0.0085487961769104,-0.03750292956829071,-0.03629863262176514,-0.7046231235390839,0.19405781577260814,0.6815925120389932,0.03577080573443595,-0.22664851598835928,-1.5753668086874568,-0.32912249796951915
1781116589895289344,2.036869525909424,-0.6060596108436584,-0.10294892638921738,-0.011257275938987732,-0.9744465351104736,0.22452160716056824,0.006640585605055094,0.012181520462036133,-0.028324097394943237,-0.02618706226348877,-0.7037416843848096,0.19612305507799374,0.6818035200885981,0.037780916856339906,-0.226452088822749,-1.5776109466406525,-0.33525578635250575
1781116589905324544,2.0469045639038086,-0.6018139719963074,-0.12639114260673523,-0.01660090871155262,-0.9744686484336853,0.2243373990058899,0.009140959940850735,0.013683795928955078,-0.005663692951202393,-0.00979709718376398,-0.7027415347536938,0.19824502417238485,0.6821065828938532,0.03979776385989396,-0.2262630439669402,-1.580176507239574,-0.3415204901882416
1781116589915359232,2.0569393634796143,-0.5467648506164551,-0.14493286609649658,-0.016827810555696487,-0.9744947552680969,0.22410151362419128,0.01177232339978218,0.011604070663452148,0.005573824048042297,-0.02300274185836315,-0.7016948778465678,0.2002364344325051,0.6824892175141378,0.041691681137661064,-0.22602100479348808,-1.5828761770051138,-0.34743600120093493
1781116589925393408,2.0669734477996826,-0.5155187845230103,-0.1539740264415741,-0.024988533928990364,-0.9745225310325623,0.22382447123527527,0.014440412633121014,3.522634506225586e-05,0.0069341957569122314,-0.028539538383483887,-0.7006386966807211,0.20205120027027063,0.6829315623085006,0.04341965535722604,-0.2257367418227704,-1.5856131783371121,-0.35286205552714706
1781116589935428352,2.0770084857940674,-0.547066867351532,-0.141985684633255,-0.009636476635932922,-0.9745400547981262,0.22356046736240387,0.017094919458031654,-0.009575426578521729,0.0022238194942474365,-0.009267212823033333,-0.6995810376958744,0.203888163904052,0.6833572100694044,0.04515363486175218,-0.22546586736687255,-1.5883360537080948,-0.35832980501643774
1781116589945463296,2.087043523788452,-0.5412997603416443,-0.1274014115333557,0.0059310318902134895,-0.9745200276374817,0.22343845665454865,0.019644657149910927,-0.012326836585998535,-0.01907750964164734,-0.010809779167175293,-0.6985548664315644,0.20582352517003416,0.6837097375352972,0.04689094811479345,-0.2253406929022175,-1.5909518866312553,-0.36393924625187407
1781116589955497216,2.0970773696899414,-0.569337785243988,-0.11231420934200287,0.006111860275268555,-0.9744871258735657,0.2233605533838272,0.022022364661097527,-0.009643733501434326,-0.030169010162353516,-0.008625149726867676,-0.6975832521394864,0.20779383908150384,0.683983115860117,0.04864627244153005,-0.22526076433747697,-1.5933914091321082,-0.36960946081624385
1781116589965532416,2.107112407684326,-0.5978783965110779,-0.10543126612901688,0.019343243911862373,-0.9744317531585693,0.2233518809080124,0.024431144818663597,0.003545522689819336,-0.01567976176738739,0.0036298036575317383,-0.6965873787727598,0.20992444392486398,0.6842129055792319,0.050502959695571135,-0.2252518763980835,-1.5958632717571861,-0.3756679634298317
1781116589975567360,2.117147445678711,-0.5924553871154785,-0.11719218641519547,0.02070518396794796,-0.9743622541427612,0.22337722778320312,0.026849372312426567,0.0075348615646362305,-0.004428848624229431,-0.00702822208404541,-0.695580859912113,0.21209892194145488,0.6844258421696917,0.05236993442464371,-0.2252778787423468,-1.5983451975311402,-0.3818112360529268
1781116589985602304,2.1271824836730957,-0.5636439919471741,-0.11940473318099976,0.0291303601115942,-0.9742708802223206,0.22346748411655426,0.02930249646306038,0.008725225925445557,8.903443813323975e-05,-0.0031031370162963867,-0.6945635287963353,0.21422938713988388,0.6846583219487672,0.05413236556732974,-0.22537048054336742,-1.6008635964746871,-0.38774997314922305
1781116589995636480,2.137216567993164,-0.5576542615890503,-0.11291048675775528,0.019551768898963928,-0.9741779565811157,0.22354759275913239,0.03168608248233795,0.006419658660888672,0.009774595499038696,0.0019137896597385406,-0.6935699590910098,0.2162944992880852,0.6848793544964666,0.055836940796386667,-0.22545266876840783,-1.603310832768329,-0.39350549381480854
1781116590005671168,2.1472513675689697,-0.5280840992927551,-0.10068178176879883,-0.0018342130351811647,-0.9741190075874329,0.22347122430801392,0.033952631056308746,0.0026529431343078613,0.012017682194709778,0.0017987489700317383,-0.6926120017027854,0.21825213401126978,0.6850856301425103,0.05755256901050791,-0.2253743070629025,-1.605636926458704,-0.39910444056001054
1781116590015706368,2.1572864055633545,-0.48011258244514465,-0.10881388187408447,-0.018494149670004845,-0.9741035103797913,0.2232021540403366,0.03609948605298996,0.0015846490859985352,0.012042596936225891,-0.004803657531738281,-0.6916983693945851,0.2199888205674445,0.6853135504063411,0.05919164012870364,-0.22509826668630398,-1.607838564584374,-0.4042518737275233
1781116590025740288,2.167320489883423,-0.48920780420303345,-0.09991785883903503,-0.03488324210047722,-0.9741227030754089,0.22276724874973297,0.03820570930838585,0.0005204677581787109,0.02608834207057953,0.0008872747421264648,-0.6907945726954993,0.2216066757528156,0.685560600346437,0.06082768802098511,-0.22465212806995533,-1.6099968688574078,-0.4092122224131184
1781116590035775488,2.1773555278778076,-0.4734075367450714,-0.07011228799819946,-0.05101028084754944,-0.974189817905426,0.22214005887508392,0.040104832500219345,0.0015487074851989746,0.040082260966300964,0.008311394602060318,-0.6899525910081372,0.2231565445698338,0.6857503716847286,0.06255542080095593,-0.22400883010200662,-1.611940463815602,-0.41417501666591394
1781116590045810432,2.1873905658721924,-0.48666155338287354,-0.06754367053508759,-0.05228753387928009,-0.9742763042449951,0.22144359350204468,0.04181841388344765,0.0014063119888305664,0.040427789092063904,0.020712140947580338,-0.6891718886641186,0.22464197081630202,0.6858900731765015,0.06428892038699072,-0.2232945726783587,-1.6136925384475698,-0.4190282684764517
1781116590055844352,2.1974244117736816,-0.5287179350852966,-0.0759696513414383,-0.0397120863199234,-0.9743523597717285,0.22075454890727997,0.0436469241976738,0.0030846595764160156,0.028650343418121338,0.038781046867370605,-0.6883336443293471,0.22626409979481013,0.6860233368513807,0.06613173805714434,-0.2225880425703273,-1.6155622296851904,-0.4242547920491092
1781116590065879296,2.2074594497680664,-0.5404739379882812,-0.08173193037509918,-0.024683069437742233,-0.9743890166282654,0.22019469738006592,0.04560790956020355,-0.0027837157249450684,-0.006342798471450806,0.029297467321157455,-0.6874394407246964,0.22802111444940698,0.6861561964387553,0.06799233444944301,-0.22201405635437058,-1.6175688622353714,-0.4297274524929118
1781116590075914496,2.217494487762451,-0.58204185962677,-0.07964414358139038,-0.022293681278824806,-0.974399983882904,0.21971847116947174,0.047627922147512436,-0.009349346160888672,-0.020408153533935547,0.021646976470947266,-0.6865121693346868,0.22990742511645026,0.6862627310565114,0.06990764343639781,-0.2215258788344641,-1.6196366837467704,-0.4354817490793541
1781116590085949440,2.227529525756836,-0.598469078540802,-0.07967530190944672,-0.028862368315458298,-0.9744197130203247,0.2191704362630844,0.0497051402926445,-0.009940028190612793,0.0005561262369155884,0.023796435445547104,-0.6855442298877455,0.23188473845249677,0.6863541636251219,0.0719483150260704,-0.22096415480995543,-1.6217621430294356,-0.44155728042834136
1781116590095983360,2.237563371658325,-0.5739389657974243,-0.07830271124839783,-0.030366787686944008,-0.9744420647621155,0.21859395503997803,0.051763638854026794,-0.008437573909759521,0.016833901405334473,-0.0027524232864379883,-0.6845771679990531,0.23383293541490327,0.6864429900295371,0.07397512907597135,-0.22037335068193578,-1.6238677569250104,-0.44756938571232996
1781116590106018304,2.24759840965271,-0.5221474170684814,-0.09859652817249298,-0.03472957760095596,-0.974467933177948,0.21797968447208405,0.053825341165065765,-0.007923483848571777,0.016380101442337036,-0.015586845576763153,-0.6836160868495866,0.23563127403570125,0.686578890387186,0.07587109236494173,-0.21974388932763989,-1.6259758737287107,-0.45317298691626934
1781116590116053248,2.2576334476470947,-0.5030344128608704,-0.09983609616756439,-0.040527015924453735,-0.974492073059082,0.21733476221561432,0.055950820446014404,-0.005228817462921143,0.019512131810188293,0.010302774608135223,-0.6826396415962033,0.23729543103346795,0.6867796502193512,0.07763754725385161,-0.21908313052042738,-1.6281487254330786,-0.4583997544318336
1781116590126087424,2.267667531967163,-0.4832601845264435,-0.06900734454393387,-0.03951527923345566,-0.9745308756828308,0.21665863692760468,0.057867515832185745,-0.0054495930671691895,0.01558011770248413,0.01667165756225586,-0.681736455479178,0.23888916569965468,0.6869248312412195,0.07938297374675546,-0.2183905003181177,-1.6301065520255105,-0.4634680579110098
1781116590136122368,2.277702569961548,-0.4468696713447571,-0.060157258063554764,-0.04556278511881828,-0.9745861291885376,0.21597036719322205,0.059488654136657715,-0.0004506111145019531,0.014910399913787842,-0.006388060748577118,-0.6809441171210127,0.24036347384675058,0.6870005297705282,0.08106093903248356,-0.21768554600817797,-1.6317606031267184,-0.4682288461242965
1781116590146157312,2.2877373695373535,-0.3968571126461029,-0.06529290229082108,-0.06742040812969208,-0.9746670722961426,0.21517476439476013,0.06102516129612923,0.014629840850830078,0.04256144165992737,-0.005650997161865234,-0.6801909922215904,0.2416429996359019,0.6871107920442097,0.08263006118035958,-0.21687078820000105,-1.633325988415011,-0.4725304348829408
1781116590156191232,2.297771453857422,-0.34123778343200684,-0.06333521008491516,-0.09043651074171066,-0.9747984409332275,0.21417027711868286,0.06244359910488129,0.02536606788635254,0.06657618284225464,0.0036116838455200195,-0.679490077462078,0.24265141336000426,0.6872714827277666,0.08409207560948262,-0.21584232518680235,-1.6347668829749205,-0.4762526015010238
1781116590166226432,2.3078064918518066,-0.3072667717933655,-0.07565179467201233,-0.1003304198384285,-0.9749621152877808,0.21302466094493866,0.06379202753305435,0.03149592876434326,0.054995983839035034,0.005696535110473633,-0.6788232644469706,0.24345436356739938,0.6874779912208923,0.08545750994173143,-0.21466963422695573,-1.6361334608411413,-0.4795157133750316
1781116590176261376,2.3178415298461914,-0.3026115596294403,-0.06729906052350998,-0.10541679710149765,-0.9751352667808533,0.21181556582450867,0.06515465676784515,0.030631601810455322,0.02870868146419525,0.023865096271038055,-0.6781559375610208,0.2441532152490553,0.6877256251852548,0.0867586863593849,-0.21343230070929692,-1.6375131808490966,-0.482529665656093
1781116590186296576,2.327876567840576,-0.3182712197303772,-0.04781963303685188,-0.11033724993467331,-0.9753255844116211,0.21054987609386444,0.06639862060546875,0.03002840280532837,0.013510182499885559,0.04575347900390625,-0.67751974579037,0.24487074903108214,0.6879226892046842,0.08813465523158028,-0.21213741210392265,-1.6387698581213292,-0.4856624365343451
1781116590196330240,2.3379104137420654,-0.28170815110206604,-0.003046569414436817,-0.10883363336324692,-0.9755372405052185,0.2092805653810501,0.06729579716920853,0.03017902374267578,0.007394224405288696,0.04171299189329147,-0.6770080993685887,0.2455285194362979,0.6880142754286951,0.08951052031632005,-0.21083917046862477,-1.6396705306422372,-0.48866616950321007
1781116590206365440,2.34794545173645,-0.24700051546096802,0.03486059978604317,-0.10961633175611496,-0.9757775664329529,0.20802699029445648,0.0676964670419693,0.031960487365722656,0.01371370255947113,0.027976147830486298,-0.6766861388703214,0.2460414960381129,0.6879766097473966,0.09081612959949828,-0.20955739084783395,-1.6400622863659333,-0.49129771531317107
1781116590216400384,2.357980489730835,-0.19293434917926788,0.07195056974887848,-0.11192768812179565,-0.9760425090789795,0.2068072259426117,0.06761430203914642,0.03660470247268677,0.025675669312477112,0.017682306468486786,-0.6765542638547447,0.2463881750910069,0.6878226652496577,0.09201696863885929,-0.2083105078914686,-1.639959765973025,-0.49347835785574845
1781116590226434560,2.3680145740509033,-0.13136740028858185,0.07886946201324463,-0.13283084332942963,-0.9763455986976624,0.20550677180290222,0.06720481067895889,0.0448879599571228,0.050184786319732666,0.004267342388629913,-0.6765581279658924,0.24649663547615738,0.6876349435816413,0.0930957832464493,-0.20698150902821874,-1.6395209414233398,-0.4950886927452129
1781116590236469248,2.378049373626709,-0.02762501686811447,0.08005949854850769,-0.16246676445007324,-0.9767040014266968,0.2040024697780609,0.06657600402832031,0.05229604244232178,0.07942953705787659,-0.0058765411376953125,-0.6766674519299442,0.2462305453782969,0.6875016516609755,0.09398517137812613,-0.2054446409246518,-1.638855000477915,-0.4958351738601745
1781116590246504192,2.3880844116210938,0.08488741517066956,0.048811834305524826,-0.20007938146591187,-0.9771141409873962,0.20225585997104645,0.06588463485240936,0.05386573076248169,0.10707035660743713,-0.022397153079509735,-0.6768412285448557,0.24547515704790152,0.6875203733641536,0.09457141536223679,-0.20366084581326163,-1.6381221938002608,-0.4953991749931428
1781116590256538368,2.398118495941162,0.2060689628124237,0.024604499340057373,-0.2508906424045563,-0.9775913953781128,0.20014646649360657,0.06524363905191422,0.04227322340011597,0.11389471590518951,-0.025524966418743134,-0.6770345439168722,0.24419348009247088,0.6877436759619909,0.09488155748257511,-0.20150740379094662,-1.6374366754244067,-0.49377252377516995
1781116590266573312,2.408153533935547,0.2819480299949646,0.009909975342452526,-0.3092591464519501,-0.9781652092933655,0.19754181802272797,0.06457708775997162,0.02540642023086548,0.09886018931865692,-0.009920120239257812,-0.6772633176029142,0.24236976503125915,0.6881463817257154,0.09500485064297809,-0.19884968454560578,-1.636719257337513,-0.4910482177523214
1781116590276608512,2.4181885719299316,0.3189060389995575,-0.02628890797495842,-0.34202906489372253,-0.9788016080856323,0.19453568756580353,0.06405926495790482,-0.0049479007720947266,0.06437547504901886,-0.024844162166118622,-0.6774459375820988,0.24022661112318372,0.6887095243992017,0.09506576853639691,-0.19578406772552637,-1.636149756186251,-0.4877618164605589
1781116590286643200,2.4282233715057373,0.33394917845726013,-0.09593376517295837,-0.3710407316684723,-0.9794512987136841,0.19124093651771545,0.06404834240674973,-0.04435241222381592,0.02166496217250824,-0.05754804611206055,-0.6774470924954598,0.23792635144009894,0.6895036069253238,0.09508586771811539,-0.19242625811571792,-1.6360954247163009,-0.4842283805671508
1781116590296677376,2.4382574558258057,0.38844382762908936,-0.13007695972919464,-0.3909268379211426,-0.9801017642021179,0.18773356080055237,0.06447361409664154,-0.07518094778060913,-0.0053299665451049805,-0.04764317721128464,-0.67730432689793,0.2354263706445873,0.6905151922977711,0.09498490826556052,-0.18885416316146514,-1.6364842554039571,-0.48026356260500647
1781116590306712320,2.4482924938201904,0.3972349464893341,-0.14640507102012634,-0.40309828519821167,-0.9807513356208801,0.18409284949302673,0.06509002298116684,-0.10465210676193237,0.0012556612491607666,-0.045818209648132324,-0.6771005728601155,0.23279144286697898,0.6916307931046248,0.09481474592758703,-0.18514885126755365,-1.6370666472566284,-0.4760158144123892
1781116590316747520,2.458327531814575,0.4351884424686432,-0.1973619908094406,-0.4178868234157562,-0.9813920855522156,0.18031534552574158,0.06600011140108109,-0.13875561952590942,0.013623863458633423,-0.060598500072956085,-0.6767999187626389,0.23002038156075091,0.6928857620274405,0.0945611958011134,-0.1813070354141792,-1.6379467360120543,-0.4714724101811324
1781116590326781184,2.4683613777160645,0.42694514989852905,-0.2577720880508423,-0.43221649527549744,-0.9819968938827515,0.17642362415790558,0.06750393658876419,-0.17672502994537354,0.023466497659683228,-0.04548550397157669,-0.6762902767505791,0.22718387184558264,0.6943626254672008,0.09423092370794127,-0.17735189155106232,-1.6394298520765764,-0.4667760854965957
1781116590336816384,2.478396415710449,0.4177737534046173,-0.25462859869003296,-0.4645525813102722,-0.9826021790504456,0.17229866981506348,0.06932446360588074,-0.22598528861999512,0.019366934895515442,-0.012302413582801819,-0.6756496733848008,0.2243249805087546,0.695945784089321,0.09399549261399417,-0.17316276023446167,-1.641231529693544,-0.4622029210232902
1781116590346851328,2.488431453704834,0.4564468562602997,-0.1885441243648529,-0.4997673034667969,-0.983265221118927,0.1678706556558609,0.07077286392450333,-0.27636295557022095,-0.004098102450370789,-0.004671819508075714,-0.6751346291694961,0.22126898711633952,0.6974428054141019,0.09384429221335695,-0.16866927590441405,-1.6426498000156255,-0.4574114093952486
1781116590356885504,2.4984655380249023,0.48939308524131775,-0.15503570437431335,-0.5632187128067017,-0.9840250611305237,0.16296829283237457,0.07166748493909836,-0.30618196725845337,-0.02098524570465088,-0.007336370646953583,-0.6748093873510478,0.21789077301026183,0.6988256964545134,0.09380105853251668,-0.16369842826593164,-1.643498918332598,-0.45223034994630157
1781116590366920448,2.508500576019287,0.5957831740379333,-0.1488361358642578,-0.6523587107658386,-0.9848900437355042,0.15737119317054749,0.0722912922501564,-0.31502145528793335,-0.024268776178359985,-0.009318232536315918,-0.6745794137579045,0.21400534864597506,0.7002480682822121,0.0937924792366519,-0.15802811600073774,-1.6440653025217795,-0.44630227909359926
1781116590376955392,2.5185353755950928,0.6458255648612976,-0.1729613095521927,-0.7804405093193054,-0.9858757257461548,0.1507832258939743,0.07289279252290726,-0.30845099687576294,-0.007152259349822998,-0.025529511272907257,-0.674350772664968,0.20945599107512533,0.7018365804568762,0.09383266728230857,-0.15136050541427182,-1.644599141343784,-0.4394302953717053
1781116590386990336,2.5285704135894775,0.6578558683395386,-0.2077411264181137,-0.9253191351890564,-0.9869915246963501,0.14282001554965973,0.07382412999868393,-0.30196404457092285,0.015474632382392883,-0.004228837788105011,-0.6739519206442169,0.20432853555956543,0.7036774225182684,0.09421590250959301,-0.1433100524435658,-1.6454544358193166,-0.4321790661701652
1781116590397024512,2.538604497909546,0.6847212910652161,-0.15727408230304718,-1.025158405303955,-0.9882058501243591,0.13365156948566437,0.07474210858345032,-0.2948446273803711,-0.0059812963008880615,0.024119488894939423,-0.6735065990526415,0.19870909609051557,0.7056101962279078,0.09496192724194713,-0.13405269683077076,-1.646286746156902,-0.4246851374403477
1781116590407059456,2.5486395359039307,0.6345622539520264,-0.041008733212947845,-1.0665957927703857,-0.9894851446151733,0.12374982982873917,0.07486674189567566,-0.2717910408973694,-0.05152998864650726,0.03170072287321091,-0.6733102932845779,0.19276397825786268,0.7073015065380513,0.09601995013012085,-0.12406787862303514,-1.6463147604543948,-0.41708905318014877
1781116590417094400,2.5586745738983154,0.3736763596534729,0.05090334638953209,-1.0548303127288818,-0.9907540082931519,0.11358795315027237,0.07419087737798691,-0.20066750049591064,-0.07914886623620987,0.08416485786437988,-0.673303417122567,0.18728077944073981,0.7085346475160731,0.0978114664338245,-0.11383363704781183,-1.6455400701564042,-0.4111789040304515
1781116590427128320,2.5687084197998047,0.15929372608661652,0.10733839124441147,-1.0405583381652832,-0.9919586777687073,0.10334588587284088,0.07306141406297684,-0.10313421487808228,-0.11158560961484909,0.10348284989595413,-0.673325451491619,0.182630494426423,0.7093495681051126,0.10051012840484949,-0.10353073979523865,-1.64431726000054,-0.4077809752154846
1781116590437163264,2.5787434577941895,0.01091891247779131,0.08864820003509521,-0.9940667748451233,-0.9930387735366821,0.09325692802667618,0.07195132970809937,-0.00534367561340332,-0.12655161321163177,0.07511293143033981,-0.6732456912871295,0.17867037928975757,0.7099665914392892,0.10375220660159419,-0.09339263049761333,-1.6431256415456152,-0.4062021468151859
1781116590447198464,2.588778495788574,-0.17095768451690674,0.019919732585549355,-0.9507341980934143,-0.9939393997192383,0.08351884037256241,0.07147716730833054,0.08242517709732056,-0.0897597000002861,0.07702136039733887,-0.6728562438779195,0.17544440626083727,0.7106038599589392,0.10735860965335194,-0.08361624580765782,-1.6425857497082967,-0.40628285259055663
1781116590457233408,2.598813533782959,-0.3023380637168884,-0.052642352879047394,-0.944767415523529,-0.994674801826477,0.07391619682312012,0.07182416319847107,0.13984686136245728,-0.027315840125083923,0.07002151012420654,-0.6720697707344123,0.1729035482343909,0.711348329525048,0.11140133002763693,-0.07398367016123078,-1.642879909381795,-0.40804296738422285
1781116590467267328,2.6088473796844482,-0.2982943058013916,-0.13353107869625092,-0.9407742619514465,-0.9952632188796997,0.0642557442188263,0.07295585423707962,0.16271305084228516,0.015807144343852997,0.028805024921894073,-0.6709368785717333,0.17062267152747862,0.7122961688242305,0.11561085620422587,-0.06430004428295658,-1.6439685324740922,-0.41045603522899105
1781116590477302272,2.618882417678833,-0.20516519248485565,-0.15743401646614075,-0.8959370255470276,-0.9957016706466675,0.05487876385450363,0.07461115717887878,0.17744892835617065,0.04029032588005066,-0.007213108241558075,-0.6696426223043846,0.16826069499897892,0.713438096410226,0.11947098352621612,-0.05490634753356572,-1.6455897941479836,-0.41227717853205453
1781116590487337472,2.6289174556732178,-0.10857472568750381,-0.133317232131958,-0.8763723373413086,-0.9960371255874634,0.045923862606287,0.07616528868675232,0.20044386386871338,0.0672048032283783,-0.029061436653137207,-0.6684430926055851,0.16571968571008286,0.7145765389862445,0.12288711221527224,-0.04594002136460334,-1.6471161230641742,-0.41320706199126755
1781116590497371392,2.638951539993286,0.02010042779147625,-0.12557847797870636,-0.8643532395362854,-0.9963021874427795,0.03719770535826683,0.07744999974966049,0.23609399795532227,0.08737505972385406,-0.05332589149475098,-0.6674104207993751,0.16282209171179224,0.715691251613963,0.12585078714478842,-0.03720629032008896,-1.6483777619038216,-0.4129648432669148
1781116590507406592,2.648986577987671,0.06814119219779968,-0.16469578444957733,-0.832772433757782,-0.9964719414710999,0.02872638590633869,0.07885786145925522,0.27845436334609985,0.08894939720630646,-0.0844120979309082,-0.6663945418250385,0.15969437916922755,0.716886766437068,0.12841117197165966,-0.028730337907146485,-1.6497688030413753,-0.41181775537508564
1781116590517441280,2.6590213775634766,0.1265091449022293,-0.20398247241973877,-0.7568182945251465,-0.9965211153030396,0.020836548879742622,0.08069375157356262,0.3172609210014343,0.06195764243602753,-0.09924841672182083,-0.6652820248071184,0.1566341923850992,0.7182009509235385,0.13058690395252523,-0.02083805616755065,-1.6515954904633021,-0.4102411497461193
1781116590527476224,2.6690564155578613,0.12969055771827698,-0.22498975694179535,-0.668097198009491,-0.9964683651924133,0.013818333856761456,0.08282267302274704,0.3527917265892029,0.030935682356357574,-0.10127056390047073,-0.6641418855823499,0.15374695396205285,0.7195645988931401,0.1323030969241314,-0.01381877387061721,-1.6537219298023578,-0.4082848020356078
1781116590537510400,2.6790904998779297,-0.0011065916623920202,-0.2638850808143616,-0.5805588364601135,-0.9963321089744568,0.007630886044353247,0.08522782474756241,0.3867436647415161,0.03144686669111252,-0.0679701715707779,-0.6629053559643054,0.15142199791627473,0.7208920114704527,0.13394934165417463,-0.007630960238817264,-1.656130176686502,-0.40707039731265976
1781116590547545344,2.6891255378723145,-0.09065618366003036,-0.34580790996551514,-0.4980330467224121,-0.996091902256012,0.0022188816219568253,0.08829610049724579,0.4080027937889099,0.02176794409751892,-0.04734145849943161,-0.6613897921932388,0.14987446140170857,0.7222781295846377,0.13570395397743445,-0.002218883471734611,-1.6592077728859014,-0.40716695114890583
1781116590557580544,2.699160575866699,-0.09458460658788681,-0.43857792019844055,-0.39114922285079956,-0.9957348704338074,-0.002316249068826437,0.09223272651433945,0.4073558449745178,-0.006961091421544552,-0.06841384619474411,-0.6595860467070673,0.14883691996569617,0.7238535303864234,0.13722234677619158,0.002316251106374579,-1.6631605626572357,-0.4076938058175726
1781116590567614208,2.7091944217681885,-0.15643572807312012,-0.4656124711036682,-0.26691433787345886,-0.9952888488769531,-0.005705677438527346,0.0967874750494957,0.3998755216598511,-0.006730231456458569,-0.07798860967159271,-0.6576126764374979,0.14834425339486473,0.7255258238497527,0.13839052582227077,0.005705708460444638,-1.6677371304646234,-0.4085470364765043
1781116590577649408,2.7192294597625732,-0.2266467809677124,-0.4734477698802948,-0.16120335459709167,-0.9948087334632874,-0.008029933087527752,0.10144482553005219,0.39271223545074463,0.030353546142578125,-0.09955275803804398,-0.655609591956379,0.14855817353225637,0.7270851948102147,0.13947626881383726,0.008030019398571432,-1.6724192462208314,-0.41034500848510524
1781116590587684352,2.729264497756958,-0.1559542417526245,-0.529670000076294,-0.07757797092199326,-0.9942785501480103,-0.009425932541489601,0.10640241950750351,0.4035496711730957,0.07439786195755005,-0.13069449365139008,-0.6535586633744122,0.14911769582166895,0.7286735362369017,0.1402138586517519,0.009426072078130805,-1.6774052946632134,-0.41218250366303766
1781116590597718272,2.7392983436584473,-0.09045404940843582,-0.6146637201309204,0.003855630522593856,-0.9936471581459045,-0.009908345527946949,0.11210401356220245,0.41546106338500977,0.12183156609535217,-0.15142594277858734,-0.6513463899860908,0.14978882865413953,0.7304897776828687,0.14034225926091518,0.00990850805879701,-1.683142017821535,-0.41335168083395585
1781116590607753984,2.7493340969085693,-0.010297693312168121,-0.7049973607063293,0.07970619201660156,-0.9928898215293884,-0.009570357389748096,0.1186513677239418,0.4100041389465332,0.14796756207942963,-0.1564474254846573,-0.6489194986254552,0.15058208080839955,0.7325644819127904,0.1399205525897787,0.009570503573743823,-1.6897333485498285,-0.4139566671289442
1781116590617788928,2.759369134902954,0.11453185975551605,-0.7884312868118286,0.18786782026290894,-0.9919843077659607,-0.008187856525182724,0.12609633803367615,0.37678033113479614,0.11899719387292862,-0.16709671914577484,-0.6463014072824108,0.1514212263912377,0.7349284193769411,0.13873144294914477,0.008187948240598625,-1.69723348868743,-0.4135970242163378
1781116590627824128,2.769404172897339,0.16109509766101837,-0.8377026915550232,0.30350571870803833,-0.9909368753433228,-0.005562810227274895,0.13421405851840973,0.3284306526184082,0.05745796859264374,-0.15099869668483734,-0.6435728621963496,0.15240953670643895,0.7374810925167539,0.13677373960120884,0.005562838979500196,-1.7054187063158872,-0.4124469004595238
1781116590637857792,2.779438018798828,0.07379161566495895,-0.8555997014045715,0.4497700035572052,-0.9897703528404236,-0.0016735943499952555,0.14266063272953033,0.27523165941238403,-0.008458239026367664,-0.09841011464595795,-0.6407725556338474,0.15398238302420475,0.7400133379576971,0.1344630929703578,0.0016735951174697292,-1.7139455328836866,-0.41175592811503764
1781116590647892992,2.789473056793213,-0.04957691952586174,-0.842043936252594,0.6038267016410828,-0.9885124564170837,0.0035650532227009535,0.15109749138355255,0.22307056188583374,-0.08645079284906387,-0.05951428413391113,-0.6379724209341039,0.1564692738846722,0.7423382742058842,0.13206991786768543,-0.0035650606669689945,-1.722475714296377,-0.4124147033308976
1781116590657927936,2.7995080947875977,-0.23254941403865814,-0.8525822758674622,0.7618940472602844,-0.9871476292610168,0.010126009583473206,0.15948976576328278,0.16845262050628662,-0.1687258630990982,-0.032551899552345276,-0.635162029984761,0.15998981866624779,0.7444112731342477,0.12970847766215812,-0.01012618307118965,-1.7309784009074654,-0.41478034507470457
1781116590667962112,2.809542179107666,-0.5269134044647217,-0.9082847237586975,0.9159257411956787,-0.9855828285217285,0.017797430977225304,0.16825410723686218,0.09744518995285034,-0.22870443761348724,0.0007826834917068481,-0.632101961261056,0.16490307042212074,0.7462801288576204,0.12774940011252925,-0.017798370594336987,-1.739881652408854,-0.4199268292422139
1781116590677996800,2.8195769786834717,-0.7114046812057495,-0.9902617335319519,1.0438519716262817,-0.9837170243263245,0.02641013264656067,0.17777392268180847,-0.008958876132965088,-0.27964499592781067,0.0072541385889053345,-0.6286410419599762,0.17116509995424792,0.7480571292977527,0.12618867797931171,-0.02641320428727925,-1.7495832149210397,-0.4278131342491051
1781116590688032000,2.8296120166778564,-0.8876092433929443,-1.0487592220306396,1.1170960664749146,-0.9815018177032471,0.035622891038656235,0.18811041116714478,-0.16461646556854248,-0.30652743577957153,0.007659941911697388,-0.6247825053223346,0.17836613893839612,0.7498271329463234,0.12486691016830258,-0.03563043028883093,-1.7601558004864306,-0.43762097308008463
1781116590698066944,2.839647054672241,-1.065682291984558,-0.9793254733085632,1.1675137281417847,-0.9790528416633606,0.044946108013391495,0.19858278334140778,-0.36336952447891235,-0.3048948645591736,0.04271969199180603,-0.6207375022451556,0.1863838341565822,0.7513670579851043,0.12407036033808579,-0.044961254858965294,-1.770913016632076,-0.4495438584727567
1781116590708101120,2.8496811389923096,-1.0987968444824219,-0.7572863101959229,1.2483031749725342,-0.9766662120819092,0.054557595402002335,0.20771804451942444,-0.5693390965461731,-0.30237558484077454,0.03051745891571045,-0.6171420905364478,0.19486076764653937,0.7522554769331795,0.12359894576162217,-0.05458469694734023,-1.780354596687421,-0.46272837961638685
1781116590718136064,2.8597161769866943,-0.9991214275360107,-0.43197476863861084,1.3854098320007324,-0.9746034741401672,0.06520649045705795,0.21423441171646118,-0.7140868306159973,-0.28549760580062866,0.01414385437965393,-0.6146297897646937,0.2034843913093681,0.7521378264401296,0.12293534532308713,-0.06525278752269267,-1.7871720759461005,-0.47595913464973455
1781116590728170752,2.8697509765625,-0.7347677946090698,-0.0652225911617279,1.482272982597351,-0.9730420708656311,0.07738886773586273,0.21725663542747498,-0.7174946069717407,-0.22506341338157654,0.011945635080337524,-0.6136792941875557,0.2117496754202274,0.7508597686652286,0.12152995863736979,-0.0774663258568286,-1.7904689418711501,-0.4876540189793054
1781116590738204928,2.8797850608825684,-0.4876093864440918,0.18733948469161987,1.4717024564743042,-0.971943736076355,0.09055541455745697,0.21708311140537262,-0.580485463142395,-0.11107849329710007,0.0022162050008773804,-0.6141837706506376,0.2191647760081459,0.7486710590739797,0.11931774441986967,-0.09067963515935656,-1.790539209269097,-0.4968846183780814
1781116590748239872,2.889820098876953,-0.17859935760498047,0.28868287801742554,1.3594131469726562,-0.9711005091667175,0.10365378856658936,0.21498723328113556,-0.3582908511161804,-0.004959963262081146,0.02218005061149597,-0.6155781902776614,0.22538493936276816,0.7461201288043927,0.11648949983866447,-0.1038402993414401,-1.788667452621759,-0.5033279712320561
1781116590758275072,2.899855136871338,0.19304423034191132,0.22877973318099976,1.234141230583191,-0.9702464938163757,0.11628678441047668,0.2123652547597885,-0.1400439739227295,0.054581113159656525,0.0196903795003891,-0.6173346928725213,0.23004903389096698,0.7438145390124064,0.1127617857678938,-0.1165504793658637,-1.7862758190703945,-0.5060656438423073
1781116590768308992,2.909888982772827,0.49471142888069153,0.09421313554048538,1.1344066858291626,-0.9691409468650818,0.12853099405765533,0.21034616231918335,0.026956558227539062,0.09067675471305847,0.005825027823448181,-0.6190044466192826,0.23328229814521056,0.7421269792043316,0.10798324774400182,-0.12888754720535037,-1.784525292746654,-0.5051612000195526
1781116590778343936,2.919924020767212,0.698913037776947,-0.05741726607084274,1.0767854452133179,-0.9677022099494934,0.14049619436264038,0.20931604504585266,0.14267480373382568,0.09625916182994843,0.0030863136053085327,-0.6203775920902725,0.23548719824421754,0.7410828563276208,0.10234062674750721,-0.14096256191030368,-1.783816743321231,-0.501543438550529
1781116590788378880,2.9299590587615967,0.7430035471916199,-0.23368310928344727,1.0716458559036255,-0.9658207297325134,0.15244513750076294,0.20964466035366058,0.21519511938095093,0.04588860273361206,0.0008350610733032227,-0.6212424179130311,0.23726354415067508,0.7406269923923333,0.09610182715381514,-0.15304186164616032,-1.7845442097550217,-0.49657961738440476
1781116590798414080,2.9399940967559814,0.5954918265342712,-0.4216495454311371,1.0767897367477417,-0.9634221196174622,0.16427737474441528,0.21173354983329773,0.2537662386894226,-0.036530762910842896,0.02940109372138977,-0.6213401598152725,0.23928228635218718,0.7406826331039299,0.08983200295823962,-0.16502539305172817,-1.7871294831345161,-0.49214390321913193
1781116590808448000,2.95002818107605,0.3740856647491455,-0.6189942955970764,1.0844247341156006,-0.9604641199111938,0.1757391393184662,0.21592725813388824,0.2568965554237366,-0.1320684850215912,0.04272449016571045,-0.6204626403061927,0.24201307739537087,0.74121069813069,0.08403886136753666,-0.17665654295489727,-1.7919351924128972,-0.48971206409730356
1781116590818482944,2.9600629806518555,0.13110309839248657,-0.8497340679168701,1.1059683561325073,-0.9568596482276917,0.18684157729148865,0.22250747680664062,0.2203180193901062,-0.20055925846099854,0.007091492414474487,-0.6184979842837288,0.24558853377089165,0.7422533336658269,0.07878067932116493,-0.18794612335803895,-1.799275099644308,-0.4896435627410367
1781116590828517888,2.9700980186462402,-0.13770411908626556,-1.0363776683807373,1.1093881130218506,-0.9525623321533203,0.19743181765079498,0.23161590099334717,0.15580928325653076,-0.1894666999578476,0.02282443642616272,-0.6153743521926409,0.25010971015480926,0.7438098459316391,0.07420604771424205,-0.19873748485493864,-1.8093179918437694,-0.49235387594466495
1781116590838552064,2.9801321029663086,-0.26408788561820984,-1.1070765256881714,1.1048402786254883,-0.947748064994812,0.20747613906860352,0.2423374503850937,0.05471217632293701,-0.14436578750610352,0.026202082633972168,-0.6114738135763268,0.25528356917390665,0.7456534206022375,0.07022182767816076,-0.20899425323698576,-1.821130750876264,-0.4971954269240421
1781116590848587008,2.9901671409606934,-0.2562880218029022,-1.0614852905273438,1.1201903820037842,-0.9426660537719727,0.21735571324825287,0.2532537877559662,-0.0658026933670044,-0.12481111288070679,-0.0047949254512786865,-0.6074237270580597,0.2606303292682269,0.7474615223398265,0.06640500807829097,-0.21910459792940104,-1.8332559515219773,-0.5027227546525758
1781116590858621952,3.000202178955078,-0.23235659301280975,-0.9182916283607483,1.155680775642395,-0.9375577569007874,0.22743378579616547,0.26317161321640015,-0.15423911809921265,-0.11656342446804047,-0.011935710906982422,-0.6037394681694742,0.26594739979507404,0.7489043909202615,0.06255277582380162,-0.2294415935958703,-1.8444531766514947,-0.5082190399512
1781116590868656896,3.010236978530884,-0.20278698205947876,-0.7353428602218628,1.2161734104156494,-0.932569146156311,0.2379966527223587,0.271426796913147,-0.18307721614837646,-0.10794597864151001,-0.021609902381896973,-0.6007028573526766,0.2713298551087542,0.7497289545369862,0.05867493157659934,-0.24030270900198128,-1.854024526499019,-0.5137674139494254
1781116590878691072,3.020271062850952,-0.1566799432039261,-0.6251034736633301,1.263641119003296,-0.9276916980743408,0.24904635548591614,0.2781432271003723,-0.14880043268203735,-0.12249001860618591,-0.051229894161224365,-0.5982769981379401,0.27671721184930154,0.7499994609897791,0.05470718801014914,-0.25169546775078316,-1.8620906361316183,-0.5191809110473499
1781116590888726016,3.030306100845337,-0.10736937820911407,-0.6199968457221985,1.342171549797058,-0.9226247072219849,0.26075711846351624,0.2841995358467102,-0.07291972637176514,-0.16349762678146362,-0.07072901725769043,-0.5961174921097323,0.28217175996526017,0.749985911014794,0.050439557304911745,-0.2638063810140733,-1.8696071388669762,-0.5244162242399732
1781116590898760960,3.0403411388397217,-0.11204642057418823,-0.6929144859313965,1.4278901815414429,-0.9170336723327637,0.2732207775115967,0.2905157506465912,0.012126624584197998,-0.20093995332717896,-0.07501596212387085,-0.5938408761175272,0.2878484603826448,0.7499340911219651,0.04577174300061769,-0.2767396236250485,-1.8775933100490358,-0.5297572848913723
1781116590908794880,3.050374984741211,-0.1927625834941864,-0.7372047305107117,1.5318595170974731,-0.9107625484466553,0.2863415777683258,0.2975232005119324,0.08298850059509277,-0.2099255919456482,-0.042915135622024536,-0.5911861858363142,0.2950166808669389,0.7494843259344871,0.04168065470949697,-0.290406343691911,-1.8865423025349182,-0.5386558352595948
1781116590918829824,3.0604100227355957,-0.3154703676700592,-0.7426921129226685,1.645767092704773,-0.903850257396698,0.30003565549850464,0.3050134778022766,0.13180136680603027,-0.20465299487113953,-0.041723042726516724,-0.5882848625226604,0.30287787192323173,0.7488469350511824,0.03760532999290407,-0.304730038459893,-1.8962564312083183,-0.5490874352067431
1781116590928865024,3.0704450607299805,-0.36898261308670044,-0.7197540402412415,1.7615667581558228,-0.8963263630867004,0.31437045335769653,0.3126826584339142,0.1662542223930359,-0.20270660519599915,-0.04487571120262146,-0.5852627995924407,0.3114560423002338,0.7478880023347011,0.03355904475418144,-0.31979341557312657,-1.906445485144861,-0.5611130653478165
1781116590938899968,3.0804800987243652,-0.33771735429763794,-0.781198263168335,1.8183625936508179,-0.8881775140762329,0.32928627729415894,0.32048648595809937,0.18628835678100586,-0.18867650628089905,-0.0839599072933197,-0.5821911990330562,0.31933105420164287,0.7471752958460715,0.028465320495120686,-0.3355476111237652,-1.917091873852811,-0.5710069504583619
1781116590948934144,3.0905141830444336,-0.3426292836666107,-0.8804798126220703,1.8885811567306519,-0.8792121410369873,0.34458622336387634,0.3290083408355713,0.2008216381072998,-0.15369874238967896,-0.09850907325744629,-0.5787634386412419,0.32735323457800103,0.7465547729125463,0.022994928969674953,-0.351797973386693,-1.9288725802876163,-0.5811866683844817
1781116590958968832,3.1005489826202393,-0.35731449723243713,-0.9034055471420288,1.9776241779327393,-0.8693691492080688,0.3603789508342743,0.33811840415000916,0.21647626161575317,-0.12196040153503418,-0.04516488313674927,-0.5750165837297688,0.3357058190744001,0.7458959758181174,0.01722350478201305,-0.36867409892175274,-1.9417179850940876,-0.5921095308338277
1781116590969004032,3.110584020614624,-0.3782251179218292,-0.9221389889717102,1.995052456855774,-0.8589040040969849,0.3763529658317566,0.34733614325523376,0.20033466815948486,-0.11361187696456909,-0.04127538204193115,-0.5711426144700821,0.3442376520160735,0.7450963071448001,0.011317071324031293,-0.38585668056168815,-1.9550853862404147,-0.6036399403491486
1781116590979037952,3.1206181049346924,-0.4609631299972534,-0.9683440923690796,2.082608461380005,-0.8477082848548889,0.39227256178855896,0.35708919167518616,0.17389553785324097,-0.11833158135414124,-0.03338935971260071,-0.5669444996981708,0.3530547611930633,0.7442425227493871,0.005409753079625019,-0.4031008889275014,-1.9694784708512503,-0.6162464677934252
1781116590989073152,3.130653142929077,-0.5460609793663025,-0.9929343461990356,2.1604321002960205,-0.8356156349182129,0.4084048867225647,0.36735835671424866,0.15545499324798584,-0.11497831344604492,0.03529050946235657,-0.5624239140227374,0.3624567831574154,0.7431717560033467,-0.0004683666014421974,-0.4207058759615807,-1.9849898292698915,-0.6305920473229529
1781116590999108096,3.140688180923462,-0.6251523494720459,-0.9371399283409119,2.1869733333587646,-0.8228533864021301,0.4242710769176483,0.37803009152412415,0.1071091890335083,-0.08056676387786865,0.0810459554195404,-0.5576255547091532,0.3721342251185769,0.7419778709948033,-0.006231963343715866,-0.4381567569308899,-2.0014510187108647,-0.6462085444923492
1781116591009142784,3.1507229804992676,-0.6943716406822205,-0.5961639285087585,2.236374616622925,-0.8103348016738892,0.43989530205726624,0.3871043026447296,0.056535303592681885,-0.026794105768203735,0.06856882572174072,-0.5534611189532219,0.38223955016404454,0.7398953163702969,-0.011343392053921163,-0.45548208800519285,-2.0164527247775923,-0.6634851974214286
1781116591019176960,3.160757064819336,-0.5660330653190613,-0.6191491484642029,2.2121403217315674,-0.7980383038520813,0.45527130365371704,0.3947950005531311,-0.003002464771270752,-0.018640995025634766,-0.1047864556312561,-0.5498530190866182,0.3921982687466858,0.7372774409336651,-0.016254733001560783,-0.47267690131093953,-2.0302004582638733,-0.6808594796384021
1781116591029211904,3.1707921028137207,-0.44677674770355225,-0.6234344244003296,2.332047939300537,-0.7849732637405396,0.47129005193710327,0.4021229147911072,0.0286712646484375,-0.061911940574645996,-0.13654369115829468,-0.5463137895056157,0.4018840164341858,0.7345411448444074,-0.021905162685886874,-0.4907528811172832,-2.0442163950083545,-0.6974536899569654
1781116591039247104,3.1808271408081055,-0.43914759159088135,-0.6845263242721558,2.3713958263397217,-0.7710134387016296,0.4879486560821533,0.409199595451355,0.08392548561096191,-0.08285835385322571,-0.13792887330055237,-0.5427834558475764,0.4116966056633041,0.7315091982010209,-0.028040961144879487,-0.509738095894597,-2.0587242807499537,-0.7144070251134386
1781116591049280768,3.1908609867095947,-0.3170829117298126,-0.8420760035514832,2.35146427154541,-0.7561079859733582,0.5043739676475525,0.41702210903167725,0.1063583493232727,-0.061029911041259766,-0.14332526922225952,-0.5388380087816449,0.4223472411437151,0.7281029170350672,-0.03380047306846552,-0.5286567720702782,-2.074819391698197,-0.734307700859154
1781116591059315968,3.2008960247039795,-0.05795975401997566,-0.8676514029502869,2.392292022705078,-0.7402806282043457,0.5213640332221985,0.4244573414325714,0.14559990167617798,0.009473919868469238,-0.04773309826850891,-0.5349099052445413,0.4324254477661401,0.7247322953512848,-0.04052992956445587,-0.548448616924363,-2.091407435269987,-0.7528223345996764
1781116591069350912,3.2109310626983643,0.21197371184825897,-0.9445890784263611,2.3762412071228027,-0.7236922979354858,0.5392770767211914,0.4306391179561615,0.16062766313552856,0.09310823678970337,-0.03809136152267456,-0.5313559018516586,0.4417750629343442,0.7212172684955305,-0.04838868161193798,-0.5695784287178779,-2.1075743135449443,-0.7692941197572776
1781116591079385088,3.2209651470184326,0.5340332388877869,-0.9550054669380188,2.2506165504455566,-0.7068026661872864,0.5574911832809448,0.43546944856643677,0.15054351091384888,0.14082735776901245,-0.017653286457061768,-0.5281966240782773,0.44997511697792447,0.7178141274912678,-0.05721572169327825,-0.5913607163969631,-2.1229785544140714,-0.7828916185163585
1781116591089420032,3.2310001850128174,0.8440696597099304,-0.9613988995552063,2.2516493797302246,-0.6898938417434692,0.5762277245521545,0.43818753957748413,0.15141111612319946,0.12746191024780273,-0.04356461763381958,-0.5257535342394816,0.4569642056310571,0.7143370992986403,-0.06700381718037288,-0.614105535926638,-2.1366627904517763,-0.7931931971313437
1781116591099454976,3.241034984588623,0.9843311905860901,-0.9470191597938538,2.3257808685302734,-0.6721977591514587,0.5959615707397461,0.43929487466812134,0.15445178747177124,0.04594510793685913,-0.01828959584236145,-0.5237345417198779,0.46338215175352016,0.7105803356581524,-0.07781180192297914,-0.6384625456694458,-2.1496422957520402,-0.8017690094092762
1781116591109489920,3.251070022583008,0.8527923226356506,-0.9421581029891968,2.3639943599700928,-0.6537871360778809,0.6156874895095825,0.43987634778022766,0.16024166345596313,-0.048426806926727295,0.02420446276664734,-0.5217239632609108,0.4699580920979658,0.7064542200194497,-0.0886898918339117,-0.6632581336828721,-2.1630418838172014,-0.8113503103536636
1781116591119524096,3.261104106903076,0.6691429018974304,-1.032787561416626,2.413512706756592,-0.6344809532165527,0.6344802379608154,0.44143936038017273,0.15579754114151,-0.1206405758857727,-0.015185028314590454,-0.5190805347592764,0.47697895741177976,0.702289647732436,-0.09917505812798155,-0.6873358593512309,-2.1786634322312155,-0.8235414196912338
1781116591129559040,3.271139144897461,0.5462327003479004,-1.1237246990203857,2.5153636932373047,-0.6137773990631104,0.6525835990905762,0.44431087374687195,0.15059679746627808,-0.1725878119468689,-0.03055351972579956,-0.5156014864134825,0.48451158837121316,0.6981432217762696,-0.10954327784192924,-0.7109891479734999,-2.1973803697478402,-0.8386703200023213
1781116591139593984,3.2811741828918457,0.36198002099990845,-1.143293857574463,2.629129648208618,-0.5915991067886353,0.6702211499214172,0.44812285900115967,0.13516294956207275,-0.18830281496047974,-0.03621184825897217,-0.5112674795418506,0.49162392127896043,0.6945267140820507,-0.12059905657563282,-0.7345067677065283,-2.219065754138529,-0.8541005391133135
1781116591149627904,3.291208028793335,0.16371271014213562,-1.112207055091858,2.6923816204071045,-0.5683445334434509,0.686863362789154,0.4529934525489807,0.1133427619934082,-0.17270326614379883,-0.04184538125991821,-0.5064765891290475,0.5005618200777251,0.6898801291922512,-0.1303252851910231,-0.7571644034909452,-2.2437299123773458,-0.8767224277716253
1781116591159662848,3.3012430667877197,0.23136179149150848,-1.079272747039795,2.694376230239868,-0.5445864796638489,0.7027419805526733,0.45779794454574585,0.09794652462005615,-0.13938754796981812,-0.0786324143409729,-0.5015462918148549,0.5096044734561047,0.6849833957964373,-0.13982930819793146,-0.7792442937525946,-2.2698277853324957,-0.9013254266336537
1781116591169698048,3.3112781047821045,0.17742186784744263,-1.0455787181854248,2.7150514125823975,-0.5203689336776733,0.718247652053833,0.4618838131427765,0.11030423641204834,-0.07579159736633301,-0.1219179630279541,-0.49671981701266793,0.5184978256663293,0.679780778392285,-0.14942418700303609,-0.8012805502972414,-2.2967228677914355,-0.9269497295822676
1781116591179732992,3.3213131427764893,0.09704900532960892,-0.89919513463974,2.621932029724121,-0.4963197708129883,0.7325436472892761,0.4658825695514679,0.14915180206298828,0.025696098804473877,-0.03900265693664551,-0.49189440648371036,0.5274203290401516,0.6743656879571859,-0.15842549689595675,-0.822051192776012,-2.324572192112631,-0.9545168385250391
1781116591189766912,3.3313469886779785,0.04963115602731705,-0.9472060203552246,2.4901905059814453,-0.47307559847831726,0.745274007320404,0.4698578417301178,0.19210022687911987,0.13262522220611572,-0.00708925724029541,-0.48713288007468786,0.5360989423000163,0.6689744731513834,-0.16665145266324022,-0.8409456588154236,-2.352782019419255,-0.9831552480992423
1781116591199801856,3.3413820266723633,0.31661146879196167,-1.1668518781661987,2.3414645195007324,-0.4499734342098236,0.7572520971298218,0.4733845293521881,0.22685948014259338,0.20368528366088867,-0.11722919344902039,-0.4822931540543188,0.543802188177903,0.664056810110121,-0.17521691051915894,-0.8590954802589797,-2.3815433711812153,-1.010386567127104
1781116591209837056,3.351417064666748,0.44174835085868835,-1.3791871070861816,2.3298909664154053,-0.42603781819343567,0.7693973779678345,0.4759409725666046,0.24354267120361328,0.18787813186645508,-0.06459444761276245,-0.4772923155245315,0.5503466272295818,0.6596128177698639,-0.18499107812595755,-0.8778972473819341,-2.4114644242664895,-1.035573675967847
