time,seconds_elapsed,rotationRateX,rotationRateY,rotationRateZ,gravityX,gravityY,gravityZ,accelerationX,accelerationY,accelerationZ,quaternionW,quaternionX,quaternionY,quaternionZ,pitch,roll,yaw
1780586477709862144,0.051119327545166016,-0.061360687017440796,-0.09782154113054276,0.18246464431285858,0.18764008581638336,-0.6362050175666809,-0.748354434967041,0.03995998203754425,-0.012613892555236816,-0.009046018123626709,0.9015260691271894,0.3014546103385151,0.18694358229162883,0.24784648811447998,0.689569368587428,0.24567212455828966,0.44796492228562135
1780586477719897344,0.06115436553955078,-0.05555260181427002,-0.05980784446001053,0.12568151950836182,0.1862439215183258,-0.6361864805221558,-0.7487188577651978,0.026982381939888,-0.010282635688781738,-0.010726332664489746,0.9014405612690547,0.301476834783464,0.18641966634286458,0.24852418988003655,0.6895453733037632,0.24380198603981523,0.45009484049171644
1780586477729932288,0.07118940353393555,0.0030571825336664915,-0.025777842849493027,0.10739945620298386,0.18525786697864532,-0.6363240480422974,-0.7488466501235962,0.061537787318229675,-0.0017679929733276367,0.0033022165298461914,0.9013658588361924,0.30159626438607223,0.18605474910284495,0.24892373503387527,0.6897236678796331,0.24252155395081265,0.45140256756512454
1780586477739967232,0.08122420310974121,0.03085792064666748,0.010421707294881344,0.15197411179542542,0.1843833327293396,-0.6367059946060181,-0.7487378120422363,0.013599440455436707,-0.011746764183044434,0.006000995635986328,0.9011776950559374,0.3018076489725421,0.18585809893449212,0.24949501965076656,0.6902188873840082,0.24145451987739225,0.4530080086387052
1780586477750002176,0.09125924110412598,0.04206397011876106,0.03197986260056496,0.13499166071414948,0.18366242945194244,-0.6372016668319702,-0.7484933137893677,-0.008781462907791138,0.010187506675720215,0.007206082344055176,0.9009319344721483,0.3020511805051413,0.18579135773258135,0.25013692173546104,0.6908618775442777,0.24062212050540424,0.4546870285042391
1780586477760036352,0.10129332542419434,0.0022686205338686705,0.03698021546006203,0.11682438105344772,0.18313482403755188,-0.637632429599762,-0.7482556700706482,0.0013744384050369263,0.03202629089355469,0.013926506042480469,0.9007010786193715,0.3022434138428099,0.1857984799633894,0.25072995321400277,0.6914209302970475,0.24003046889056628,0.45618102459050214
1780586477770071296,0.1113283634185791,-0.04627468064427376,0.03458230197429657,0.09632763266563416,0.18267889320850372,-0.6376972794532776,-0.7483118772506714,0.006743699312210083,0.011659681797027588,0.020208239555358887,0.9005579395451616,0.30222080522004224,0.18575968576684487,0.25129941080651597,0.6915051353946121,0.23943820980003652,0.4576412184294499
1780586477780106240,0.12136340141296387,-0.04253853112459183,0.054534438997507095,0.08173377066850662,0.18256644904613495,-0.6374964714050293,-0.7485103607177734,0.015599429607391357,-0.012421131134033203,0.03142356872558594,0.9004769458923174,0.3020188739246912,0.18582096322101477,0.25178647166967805,0.6912444624358991,0.2392353278058557,0.4588005308399597
1780586477790140160,0.13139724731445312,-0.020878244191408157,0.08826404064893723,0.08855492621660233,0.18270745873451233,-0.6374068260192871,-0.7485522627830505,0.013963058590888977,-0.017683446407318115,0.04014772176742554,0.9003520229489306,0.30184864192146893,0.18604102320195592,0.2522743911172192,0.6911281296207953,0.23940021870408604,0.45983324723744845
1780586477800175104,0.1414322853088379,0.009199763648211956,0.11456408351659775,0.10428302735090256,0.18300437927246094,-0.637534499168396,-0.7483710050582886,0.005716308951377869,-0.003883957862854004,0.03473275899887085,0.900144408553196,0.30176846470152335,0.18641429833571974,0.2528348950736895,0.691293779485541,0.23983041829978638,0.4609281913938414
1780586477810210304,0.15146732330322266,0.032085370272397995,0.13785609602928162,0.10458768904209137,0.18400268256664276,-0.6378138065338135,-0.7478880286216736,-0.001324489712715149,0.024135887622833252,0.04226064682006836,0.8998648733681485,0.3016948882318007,0.18717951769170924,0.25335175296011847,0.6916563770495369,0.24123845497061153,0.4615913929143078
1780586477820245248,0.16150236129760742,0.015306658111512661,0.14195255935192108,0.09231611341238022,0.18458233773708344,-0.6382851600646973,-0.7473428845405579,-0.0008665472269058228,0.038187623023986816,0.04336339235305786,0.8995439646218664,0.30176698410275893,0.18779044894849056,0.2539528778853893,0.6922685960972835,0.24213883676161538,0.46260308703217545
1780586477830280192,0.1715373992919922,-0.010459691286087036,0.14587074518203735,0.07987595349550247,0.18503130972385406,-0.6384382843971252,-0.7471010088920593,0.0008665174245834351,0.024348318576812744,0.0486910343170166,0.8993025083804028,0.3016688255681761,0.18826950277745,0.2545691713370026,0.6924674917495245,0.24278048021036397,0.46375086325283227
1780586477840314112,0.18157124519348145,-0.030116749927401543,0.16266916692256927,0.07493791729211807,0.1857321709394455,-0.6382930874824524,-0.7470511794090271,0.004438117146492004,0.008288204669952393,0.048442840576171875,0.8991220350255041,0.30137211728264324,0.18881008772677565,0.2551570647624317,0.6922788454301333,0.2436798000957266,0.46476393036677416
1780586477850349312,0.1916062831878662,-0.028546283021569252,0.1785575896501541,0.07363643497228622,0.1866014301776886,-0.6382234692573547,-0.7468940019607544,0.0012189894914627075,0.006524920463562012,0.04195326566696167,0.8989059661736098,0.3010927210088818,0.18946283936370503,0.2557636232319334,0.6921884515208062,0.24482482158323102,0.46573306017397254
1780586477860384256,0.20164132118225098,-0.012301267124712467,0.18982303142547607,0.0747794583439827,0.1875656247138977,-0.6383415460586548,-0.746551513671875,-0.005329921841621399,0.01393669843673706,0.03363037109375,0.8986343732839294,0.3009055731201351,0.19021058783817824,0.256382619067021,0.6923418266437228,0.24614792469281715,0.4666615535892437
1780586477870418432,0.21167540550231934,-0.0008174506365321577,0.20374897122383118,0.07049496471881866,0.18862400949001312,-0.6385608315467834,-0.7460972666740417,-0.004801392555236816,0.018077373504638672,0.028644263744354248,0.8983318524223394,0.30076399786423774,0.19102979817061683,0.2569993368114546,0.6926267073788046,0.24762559471554196,0.467528631483094
1780586477880453120,0.221710205078125,0.008108134381473064,0.2137928158044815,0.06378646194934845,0.18976867198944092,-0.6387876272201538,-0.745612621307373,0.000828862190246582,0.01896035671234131,0.03385114669799805,0.8980229277654043,0.30061672118004557,0.19189390365794312,0.25760640507202254,0.6929214424920835,0.24922236246125168,0.4683341799612053
1780586477890488064,0.23174524307250977,0.004357603844255209,0.2245115041732788,0.06126365065574646,0.1909991204738617,-0.6389836668968201,-0.7451303601264954,0.0010937750339508057,0.02083486318588257,0.03210246562957764,0.8977152550588783,0.30044021058301523,0.19279648722427398,0.2582104119162963,0.693176255100681,0.25092718059254193,0.4690988859828019
1780586477900523264,0.24178028106689453,-0.010867421515285969,0.23069722950458527,0.049975842237472534,0.19234463572502136,-0.6390666961669922,-0.7447128891944885,-0.0007857978343963623,0.016202986240386963,0.023124754428863525,0.8974286217854481,0.30018554229769473,0.19373226664588192,0.25880181227329124,0.6932842616484726,0.2527565337491887,0.4698001824563719
1780586477910557184,0.2518143653869629,-0.030331134796142578,0.23166728019714355,0.04399145394563675,0.19378603994846344,-0.6390455961227417,-0.7443572282791138,-0.002990156412124634,0.007316470146179199,0.014743030071258545,0.8971630550761082,0.29986070673413046,0.19469188107015453,0.2593782495504354,0.6932567715497786,0.2546865880196507,0.47044078655052973
1780586477920592384,0.26184940338134766,-0.04182427003979683,0.22693590819835663,0.03892212733626366,0.19524426758289337,-0.6389094591140747,-0.7440930008888245,-0.0035633593797683716,0.003777623176574707,0.012739241123199463,0.8969254835818701,0.2994688384262505,0.19563209963981573,0.2599445209687929,0.6930798093399199,0.2566075603243346,0.4710690906513186
1780586477930627072,0.2718842029571533,-0.05150805786252022,0.22388525307178497,0.038425713777542114,0.19667308032512665,-0.6386933922767639,-0.7439022064208984,-0.006304442882537842,0.002157747745513916,0.0053462982177734375,0.8967082819415071,0.29903413970513837,0.19653875582121913,0.2605100249740629,0.69279901056755,0.2584665926675753,0.47172210987574636
1780586477940662272,0.2819192409515381,-0.046976689249277115,0.22206072509288788,0.0371822826564312,0.19807608425617218,-0.638427734375,-0.7437580227851868,-0.008104145526885986,-0.0001678466796875,0.0033863186836242676,0.896505549730304,0.2985749346390982,0.19741834014129803,0.26106878730501404,0.6924537450112203,0.26027676438050146,0.4723804738568828
1780586477950696192,0.29195332527160645,-0.016652606427669525,0.21526487171649933,0.03612421080470085,0.19943858683109283,-0.6382685303688049,-0.7435303926467896,-0.012030139565467834,0.006997227668762207,0.002563655376434326,0.8962878552968044,0.29818796221151,0.19828951738259148,0.2615973872363617,0.6922469661736368,0.2620631558489929,0.4729744406732562
1780586477960731392,0.3019883632659912,0.012105804868042469,0.21133777499198914,0.03587786853313446,0.20079149305820465,-0.6383678317070007,-0.7430809140205383,-0.015153065323829651,0.011643648147583008,-0.008307576179504395,0.8960221646886765,0.29796017623809196,0.19919654411719254,0.26207788199953463,0.6923759957011802,0.26391206106239007,0.4734259753086836
1780586477970766336,0.312023401260376,0.030357513576745987,0.2136739045381546,0.04265614598989487,0.20213337242603302,-0.6386201977729797,-0.7425000667572021,-0.018585413694381714,0.014413654804229736,-0.01592278480529785,0.8957224222302935,0.2978230762686557,0.20012842695439395,0.2625479293198424,0.6927038971878958,0.26579238525917315,0.4738347881842218
1780586477980801024,0.32205820083618164,0.026189399883151054,0.20760242640972137,0.04027634486556053,0.20342065393924713,-0.6389391422271729,-0.7418738603591919,-0.018163710832595825,0.01728081703186035,-0.020058512687683105,0.8954064128936718,0.2977280136052378,0.20104999591225048,0.2630290844847749,0.6931184015062452,0.2676208581617521,0.4742816491736502
1780586477990835200,0.33209228515625,0.022413037717342377,0.18895231187343597,0.040301643311977386,0.20456312596797943,-0.6392315626144409,-0.7413076162338257,-0.01749037206172943,0.008875668048858643,-0.019541382789611816,0.8951103325286425,0.29763881084840604,0.2018844539380247,0.26349821372418863,0.6934985655780169,0.269248321341655,0.4747701880449114
1780586478000870144,0.34212732315063477,-0.00951826386153698,0.17526446282863617,0.03811652213335037,0.20557907223701477,-0.639387309551239,-0.7408920526504517,-0.01614120602607727,-0.009629964828491211,-0.014662086963653564,0.8948576849734858,0.2974887183905718,0.20261891336660653,0.2639614658140219,0.6937011361420385,0.2706657873925059,0.47532417098446694
1780586478010905344,0.35216236114501953,-0.03862954303622246,0.15777906775474548,0.04543169215321541,0.2064170390367508,-0.6392996311187744,-0.7407347559928894,-0.013362854719161987,-0.01894932985305786,-0.00950932502746582,0.8946675515967959,0.29721487731697704,0.2032140004282095,0.26445665319588246,0.6935870797460305,0.2717705615072059,0.4760695520032825
1780586478020940288,0.3621973991394043,-0.05102389678359032,0.1338481605052948,0.011411141604185104,0.20711873471736908,-0.6390511393547058,-0.7407533526420593,-0.00985310971736908,-0.01550513505935669,-0.012450993061065674,0.8945387634930947,0.2968761325840426,0.20368573933106932,0.2649098874419935,0.6932640203504975,0.27264286922835834,0.47680935831093296
1780586478030974208,0.37223124504089355,-0.0015080083394423127,0.14844642579555511,-0.00023139978293329477,0.2079220563173294,-0.6387943029403687,-0.7407497763633728,-0.0113125741481781,-0.0019832253456115723,-0.021945476531982422,0.8944598858958364,0.29656222932593046,0.20414687644922377,0.26517254998388384,0.6929301737713655,0.2736496750841746,0.47707940065321575
1780586478041009152,0.3822662830352783,0.0888863354921341,0.19385439157485962,0.01141513604670763,0.2088417410850525,-0.638984203338623,-0.7403271794319153,-0.02404254674911499,0.03276783227920532,-0.005964934825897217,0.8942583669940241,0.29648404170880094,0.2047770345811719,0.2654534411384087,0.6931769904385285,0.27494926778920087,0.477264079259751
1780586478051044352,0.3923013210296631,0.15082906186580658,0.22334197163581848,0.07294720411300659,0.2098603993654251,-0.6397852897644043,-0.7393466234207153,-0.025457918643951416,0.0645442008972168,0.010434269905090332,0.8938600051483914,0.2967106258601704,0.2056441157590076,0.2658713450887466,0.6942188492035131,0.27657129716612316,0.47760725406770094
1780586478061079296,0.40233635902404785,0.1383335143327713,0.24091164767742157,0.09042366594076157,0.21074844896793365,-0.6408268809318542,-0.7381910085678101,-0.015146031975746155,0.05037277936935425,0.02102792263031006,0.893349096414542,0.29704301140354766,0.20656705864089084,0.2665010380001016,0.6955748934908104,0.2780951694419382,0.4784398284060588
1780586478071113216,0.4123702049255371,0.016317861154675484,0.24246053397655487,0.07932467758655548,0.21177005767822266,-0.6414406299591064,-0.737365186214447,-0.00606633722782135,-0.014519453048706055,0.031752943992614746,0.8929092489656131,0.29709550960516473,0.2074889833877275,0.2671996129642423,0.6963746104425699,0.27967117618946763,0.4794380506558071
1780586478081148160,0.4224052429199219,-0.10665520280599594,0.21525873243808746,0.10189896076917648,0.21272437274456024,-0.6412791609764099,-0.7372308969497681,0.0044081807136535645,-0.07194715738296509,0.029574036598205566,0.8926240632119083,0.29668226236809514,0.20824069266118322,0.2680256824323929,0.6961641831688515,0.28091487979974106,0.48088619651034653
1780586478091183104,0.43244028091430664,-0.1828698068857193,0.19775857031345367,0.1108064353466034,0.2134808599948883,-0.6404492855072021,-0.7377334237098694,0.026707723736763,-0.07382988929748535,0.02621614933013916,0.8924778644250199,0.29588244078055076,0.2087746571609595,0.2689795603259854,0.6950831340306259,0.2816798678579963,0.48282715494805994
1780586478101218304,0.4424753189086914,-0.22112105786800385,0.1732652187347412,0.15341168642044067,0.2139492779970169,-0.6392492055892944,-0.7386380434036255,0.03966705501079559,-0.043947815895080566,0.010488629341125488,0.8924029297145144,0.2948786344201172,0.20911134725132513,0.2700668246602896,0.6935215221339006,0.28193800033317146,0.485261421747756
1780586478111252224,0.45250940322875977,-0.244512140750885,0.14876492321491241,0.20249667763710022,0.2139115333557129,-0.6378686428070068,-0.7398415803909302,0.04802083969116211,-0.015466928482055664,-0.012843966484069824,0.8923468741570934,0.29379241349000357,0.20920140705990964,0.27136322793351036,0.6917275813072017,0.2814561389950669,0.48842071689179795
1780586478121287168,0.46254420280456543,-0.28538551926612854,0.12476878613233566,0.22755968570709229,0.21345776319503784,-0.6362935304641724,-0.7413274645805359,0.04832202196121216,-0.024259448051452637,-0.03777104616165161,0.8923180441178432,0.2926157944889229,0.2090748008402123,0.2728230507535118,0.6896841557206652,0.28035611008945005,0.49216044397348147
1780586478131322112,0.4725792407989502,-0.3362463116645813,0.08163716644048691,0.24341295659542084,0.21266677975654602,-0.6343488097190857,-0.7432189583778381,0.04354354739189148,-0.05212885141372681,-0.05322873592376709,0.892373418742328,0.29125801410797797,0.20870860013524836,0.27437053936937206,0.6871658502039211,0.27869580956958,0.4963000694024551
1780586478141357056,0.48261427879333496,-0.34231218695640564,0.04986405372619629,0.281599760055542,0.2114863395690918,-0.632287323474884,-0.7453095316886902,0.0520482063293457,-0.04981100559234619,-0.055105507373809814,0.8924553730022943,0.2898724182517744,0.20813269832752485,0.27600410364530914,0.6845021027399179,0.2764885899776504,0.5008114390284742
1780586478151391232,0.4926483631134033,-0.332751989364624,0.037743210792541504,0.3222752809524536,0.209910586476326,-0.630405604839325,-0.7473462224006653,0.05313567817211151,-0.02448636293411255,-0.05045956373214722,0.8924789897835903,0.28861907408685344,0.20742689439538514,0.2777669820048446,0.682075607592229,0.27381955917569467,0.5057426397667854
1780586478161426432,0.5026834011077881,-0.35340026021003723,0.01835007034242153,0.3686917722225189,0.20795956254005432,-0.6285727620124817,-0.7494325041770935,0.05127201974391937,-0.01614159345626831,-0.055224478244781494,0.8924558234218352,0.2874101572090539,0.20658931601941605,0.2797119583708168,0.6797167371726891,0.27067908816305336,0.5112219781249069
1780586478171461120,0.5127182006835938,-0.43510499596595764,-0.005225828383117914,0.4005295932292938,0.20559640228748322,-0.6264345049858093,-0.7518709301948547,0.05448967218399048,-0.026138126850128174,-0.05634129047393799,0.8924659710725515,0.28605073411158505,0.2055225078048378,0.2818508649880261,0.6769705000080642,0.2669212561467668,0.5173406109255979
1780586478181496064,0.5227532386779785,-0.5487732291221619,-0.03925570100545883,0.42824724316596985,0.20285210013389587,-0.6235849857330322,-0.7549786567687988,0.06732001900672913,-0.03991293907165527,-0.04702329635620117,0.8925990354745268,0.28431438360929195,0.2041470442215289,0.28417627823743224,0.6733201737507021,0.2624866059857211,0.5241147935472296
1780586478191530240,0.5327873229980469,-0.6813557744026184,-0.08474981039762497,0.45652228593826294,0.19962458312511444,-0.6198176741600037,-0.7589309215545654,0.07930606603622437,-0.04957014322280884,-0.02476048469543457,0.8929011517106601,0.2821059012872794,0.20236304931632043,0.2866934320839078,0.6685103551943421,0.257207776398975,0.5316061013835682
1780586478201565184,0.5428223609924316,-0.8183836340904236,-0.12026359140872955,0.47742703557014465,0.19596444070339203,-0.6150126457214355,-0.7637784481048584,0.08980216085910797,-0.05675560235977173,-0.008560419082641602,0.8933843715353839,0.27936049376293487,0.20017118239009274,0.2894023570111815,0.6624019740199975,0.25115479434500015,0.5397783865270009
1780586478211600384,0.5528573989868164,-0.9300108551979065,-0.14567933976650238,0.5138351321220398,0.19190503656864166,-0.6092469692230225,-0.7694092392921448,0.08966539800167084,-0.07095932960510254,0.008361876010894775,0.8940118908720578,0.27612467138982094,0.1976120907376237,0.29231374602807697,0.6551105867270799,0.24443146722088363,0.5485982792891846
1780586478221635072,0.5628921985626221,-0.9917581081390381,-0.15953950583934784,0.5389535427093506,0.18753302097320557,-0.602786660194397,-0.7755511403083801,0.09048208594322205,-0.07328450679779053,0.029579520225524902,0.8947119134156739,0.27254725487855896,0.19478812221994107,0.2954083705538557,0.6469889720487492,0.23725204337261813,0.5579276145937199
1780586478231670016,0.5729272365570068,-0.9987552762031555,-0.18537576496601105,0.5582111477851868,0.18293583393096924,-0.5959955453872681,-0.7818719148635864,0.09181392192840576,-0.05939990282058716,0.035610318183898926,0.8954166469657874,0.2688402498192103,0.1918044814859992,0.29860487129153346,0.6385049176349336,0.2298371712027024,0.567493468488362
1780586478241704192,0.5829613208770752,-0.9792535305023193,-0.2128409445285797,0.5739732980728149,0.17802555859088898,-0.5892686247825623,-0.788079559803009,0.10160700976848602,-0.03548717498779297,0.05191922187805176,0.8960722887947821,0.2652544101181379,0.1886805030323007,0.3018181201858333,0.6301533255226486,0.22216897761814108,0.5770968157599105
1780586478251739136,0.59299635887146,-1.0528901815414429,-0.22630828619003296,0.5877610445022583,0.17290931940078735,-0.5822924375534058,-0.794378936290741,0.10986655950546265,-0.03011906147003174,0.06197232007980347,0.8967248916215365,0.26159743591738,0.1854112001690008,0.30508013438423726,0.621545619561384,0.21432300345602398,0.5867906798086423
1780586478261774336,0.6030313968658447,-1.2732149362564087,-0.26083990931510925,0.6104101538658142,0.1675366461277008,-0.5741063952445984,-0.8014570474624634,0.11534605920314789,-0.03745061159133911,0.06108534336090088,0.897521707607188,0.25733881429469413,0.18179169014560112,0.3085180385882556,0.6115123209978324,0.20607264349717216,0.5969263882840726
1780586478271808256,0.613065242767334,-1.6089364290237427,-0.3034054636955261,0.6718042492866516,0.16163600981235504,-0.5635581612586975,-0.8101086616516113,0.12167392671108246,-0.04531329870223999,0.06996583938598633,0.8986148304064535,0.2518849099781278,0.1774814788091709,0.312323133876428,0.5986868224452816,0.19693769986914328,0.6080434075160503
1780586478281843200,0.6231002807617188,-2.0226049423217773,-0.35812410712242126,0.7428579330444336,0.15501666069030762,-0.5498727560043335,-0.820737361907959,0.1377689689397812,-0.051231980323791504,0.08526372909545898,0.9000426391975748,0.24485506966352302,0.172271049841319,0.3166892116020439,0.5822119068707989,0.18667579543819626,0.6205826171219792
1780586478291878144,0.6331353187561035,-2.4423906803131104,-0.43552926182746887,0.8062472939491272,0.14755554497241974,-0.5325045585632324,-0.8334664106369019,0.16076353192329407,-0.05855989456176758,0.09693992137908936,0.9018318295032259,0.23604155612385355,0.16598545901777953,0.3216094669197206,0.5615568074803297,0.17522278574942407,0.634464200128747
1780586478301913344,0.6431703567504883,-2.847346067428589,-0.50301194190979,0.85213303565979,0.13925664126873016,-0.5114450454711914,-0.8479572534561157,0.17240412533283234,-0.07205098867416382,0.12224924564361572,0.9039185575699702,0.2255310730932134,0.15860988095487735,0.326970891316286,0.5368656051655024,0.16277304483624286,0.6492997463424529
1780586478311947008,0.6532042026519775,-3.352504014968872,-0.5444155335426331,0.8933259844779968,0.13045267760753632,-0.4860222339630127,-0.8641553521156311,0.16753621399402618,-0.0955970287322998,0.1247144341468811,0.906290500221448,0.2130029487458218,0.1501734270913415,0.332739100736082,0.5075324705423973,0.14982844903020276,0.6648039371124523
1780586478321982208,0.6632392406463623,-3.804837942123413,-0.6193709969520569,0.9856825470924377,0.1209411695599556,-0.45582738518714905,-0.8818132877349854,0.1585845649242401,-0.11022791266441345,0.15499138832092285,0.9088302269239061,0.19835562993975467,0.14052903270892508,0.33901959929298153,0.4733015590137322,0.1363001783292963,0.6811627983991084
1780586478332017152,0.6732742786407471,-4.178585529327393,-0.6804651021957397,1.0235649347305298,0.11071521788835526,-0.42128056287765503,-0.9001471400260925,0.16829173266887665,-0.09652644395828247,0.16697758436203003,0.9113468341147912,0.1819103772023045,0.12974996399692063,0.3457175450816557,0.4348568413598779,0.12238213365676566,0.6980853932540902
1780586478342052096,0.6833093166351318,-4.488832950592041,-0.7722269892692566,1.0809390544891357,0.09985899180173874,-0.3828815519809723,-0.9183844327926636,0.18276430666446686,-0.07681998610496521,0.17593753337860107,0.9137187857507612,0.16401200888662942,0.11793157760141698,0.35257664186502263,0.39291352833026943,0.10830782238951608,0.7149565558417394
1780586478352086272,0.6933434009552002,-4.946993350982666,-0.8457950949668884,1.1588871479034424,0.08835641294717789,-0.3401270806789398,-0.9362193942070007,0.19341237843036652,-0.04779711365699768,0.18887442350387573,0.9158126772235035,0.14446155843369915,0.10498175393074496,0.35971793362549576,0.34705204429728026,0.09409705335905143,0.732037228450191
1780586478362121216,0.7033782005310059,-5.402161121368408,-1.0109704732894897,1.2317514419555664,0.07578544318675995,-0.2919822633266449,-0.9534164667129517,0.20273323357105255,-0.0052436888217926025,0.18213045597076416,0.9175563380322326,0.1229055022204386,0.09047659798955085,0.3671491701723801,0.29629875990443255,0.07932151195165242,0.7494063994483605
1780586478372156160,0.7134132385253906,-5.758987903594971,-1.1770516633987427,1.2462763786315918,0.06191805377602577,-0.23894263803958893,-0.969057559967041,0.20688077807426453,0.017476588487625122,0.16905450820922852,0.9188170226060751,0.09971869389859261,0.07434649105242225,0.3745716397782525,0.24127680444862715,0.0638083845141081,0.7664591612597934
1780586478382191104,0.7234482765197754,-6.028998374938965,-1.3146328926086426,1.2482926845550537,0.04705896973609924,-0.18188588321208954,-0.9821929335594177,0.21157750487327576,0.02406422793865204,0.15026849508285522,0.9194565439848,0.07530735792727544,0.0568535982094132,0.38170145479674683,0.1829039916709217,0.04787553255741951,0.7825844657321659
1780586478392225280,0.7334823608398438,-6.3226470947265625,-1.4654475450515747,1.2634884119033813,0.031400855630636215,-0.1212042048573494,-0.9921308159828186,0.2013872265815735,0.018894024193286896,0.1810956597328186,0.9192966239211877,0.04980712346953431,0.03812938341304458,0.38853448125600504,0.12150293796685668,0.03163935487339727,0.7978207554273677
1780586478402260224,0.7435173988342285,-6.621820449829102,-1.579758644104004,1.281627893447876,0.014987737871706486,-0.05692346766591072,-0.9982660412788391,0.1720087230205536,0.01174219325184822,0.2474420666694641,0.9181931476384738,0.02319311726584489,0.018139990750907765,0.39503730165020645,0.05695425494129403,0.01501264281612927,0.8121623703371651
1780586478412295168,0.7535521984100342,-7.032620429992676,-1.6927013397216797,1.2963749170303345,-0.0016178054502233863,0.011449106968939304,-0.999933123588562,0.14650000631809235,0.006129017099738121,0.3270358443260193,0.9159973410935358,-0.004919353887866997,-0.0030374173941734137,0.4011428265131881,-0.011449356703431491,-0.0016179122161983114,0.8255336361051347
1780586478422330112,0.763587236404419,-7.231879234313965,-1.804157018661499,1.2706003189086914,-0.018623366951942444,0.08324839174747467,-0.9963548183441162,0.13170625269412994,0.02023671567440033,0.4113481044769287,0.9125519740362804,-0.03425937025547038,-0.025473482866619428,0.40672649457836213,-0.08334484979695118,-0.018689325067197022,0.8377692000662649
1780586478432365056,0.7736222743988037,-7.352550029754639,-1.862129807472229,1.1742160320281982,-0.03538597747683525,0.15609408915042877,-0.9871081113815308,0.10458458960056305,0.024600476026535034,0.41484254598617554,0.9079041749521891,-0.06399251734885443,-0.04848597694489151,0.41141734659002627,-0.15673502553174207,-0.035832783440950124,0.8481277295280365
1780586478442399232,0.7836563587188721,-7.667037010192871,-1.898244857788086,1.0929245948791504,-0.05167423188686371,0.23035763204097748,-0.971733033657074,0.05597720667719841,0.03496217727661133,0.40364837646484375,0.9020075000980747,-0.09450469547240939,-0.07212721386113925,0.4150288226064106,-0.2324451844020793,-0.053127352428100294,0.8562662601225302
1780586478452434176,0.7936913967132568,-7.753765106201172,-1.8677446842193604,1.0624926090240479,-0.06696519255638123,0.30560484528541565,-0.9498006701469421,-0.011510752141475677,0.12560853362083435,0.49493616819381714,0.8946816999401321,-0.12588462960263241,-0.0961910364617865,0.41766626687796726,-0.3105736065810725,-0.07038799331241041,0.8625028483410031
1780586478462469120,0.8037261962890625,-7.8515543937683105,-1.8129198551177979,0.9771838784217834,-0.08068195730447769,0.379456102848053,-0.9216850996017456,-0.08101541548967361,0.20507755875587463,0.5115441679954529,0.8859988183221911,-0.157343292991021,-0.12000218251361755,0.4193430198451419,-0.3892083572631605,-0.08731487253929918,0.866900112530226
1780586478472504064,0.8137612342834473,-8.175037384033203,-1.7940250635147095,0.7222480177879333,-0.09338800609111786,0.4529836177825928,-0.8866140842437744,-0.13837772607803345,0.19354653358459473,0.4614279270172119,0.8760175379583541,-0.18957468285828974,-0.14406389707329376,0.41940461975908055,-0.4701091774361345,-0.10494410277040354,0.8678739532516926
1780586478482538240,0.8237953186035156,-8.535229682922363,-1.8869333267211914,0.2985297441482544,-0.1068253219127655,0.5261252522468567,-0.8436708450317383,-0.1559004932641983,0.15072405338287354,0.3703584671020508,0.8648425221233558,-0.22263742788062507,-0.16910688830527854,0.4169926235959598,-0.5540377966411149,-0.1259494248414129,0.8626936233420127
1780586478492573184,0.8338303565979004,-8.397479057312012,-2.0545494556427,-0.15023474395275116,-0.12266585230827332,0.5961109399795532,-0.793476402759552,-0.13067582249641418,0.11656606197357178,0.1835673451423645,0.8526851476257697,-0.25524072830260364,-0.19522797524157456,0.4119055288674968,-0.6386485711138856,-0.15337876995188449,0.8492202378505838
1780586478502608384,0.8438653945922852,-8.129240036010742,-2.165794610977173,-0.4455236494541168,-0.14085161685943604,0.6592320203781128,-0.7386297583580017,-0.08754193782806396,0.13131052255630493,-0.015337467193603516,0.8398871648558256,-0.28565980223759885,-0.22154818563999112,0.4048510517254587,-0.7197969906035617,-0.18843083062893093,0.8272528183320618
1780586478512643072,0.8539001941680908,-7.38646125793457,-2.2742793560028076,-0.7446421384811401,-0.16082684695720673,0.7139706015586853,-0.6814547777175903,-0.023331478238105774,0.23898649215698242,-0.3101833462715149,0.8267232750004443,-0.31310951427864786,-0.24745713998891136,0.3965550430083468,-0.7951527994647771,-0.2317642928961092,0.7968174814422229
1780586478522677248,0.8639342784881592,-6.545751094818115,-2.3488924503326416,-1.0013761520385742,-0.18240782618522644,0.7579159736633301,-0.6263311505317688,-0.00808289647102356,0.3436617851257324,-0.4974328279495239,0.8141813642325211,-0.3359526781951565,-0.2719746616009355,0.3876521865732365,-0.8601125105934685,-0.28339368588322883,0.7580514095841696
1780586478532712192,0.873969316482544,-6.188172340393066,-2.2759132385253906,-1.2228566408157349,-0.20512069761753082,0.7941198348999023,-0.572100818157196,-0.039630308747291565,0.3499385118484497,-0.39667975902557373,0.8019358181125706,-0.3557530248790777,-0.2956169488179328,0.378086652907746,-0.9175579919264739,-0.3442619821024364,0.7098043781447204
1780586478542747136,0.8840043544769287,-5.673321723937988,-1.9655308723449707,-1.3343373537063599,-0.22723209857940674,0.8238088488578796,-0.5193308591842651,-0.09759698808193207,0.36100560426712036,-0.020555615425109863,0.790211065893625,-0.3734675662038475,-0.3175792040089981,0.36773890175744284,-0.9680977183042969,-0.4124506026278786,0.6520203338011622
1780586478552782080,0.8940391540527344,-5.365355968475342,-1.5025215148925781,-1.3759231567382812,-0.2473069578409195,0.8478700518608093,-0.4689943194389343,-0.159721240401268,0.18269330263137817,0.2169496715068817,0.7792742933419238,-0.3897299543716526,-0.33706587930859905,0.356691329368911,-1.0119550176630867,-0.48525877334272355,0.5859347070351468
1780586478562816256,0.9040732383728027,-5.091286659240723,-0.9769462943077087,-1.4461348056793213,-0.2649294435977936,0.867609977722168,-0.4207911491394043,-0.21970492601394653,-0.021769583225250244,0.4184108078479767,0.7691769973434779,-0.4054403157091999,-0.3538680132548282,0.3446189413399648,-1.0503754338709415,-0.5618992091069437,0.5110543097614924
1780586478572851200,0.9141082763671875,-5.075304985046387,-0.5632613897323608,-1.5216145515441895,-0.28103893995285034,0.8837145566940308,-0.3742535710334778,-0.27258044481277466,-0.14418208599090576,0.5153668522834778,0.7598086856997461,-0.4208257055518682,-0.3684819310509073,0.33138732115213504,-1.0837402775650096,-0.6440972273615115,0.42610634818357684
1780586478582886144,0.9241433143615723,-4.823206424713135,-0.37792617082595825,-1.5226311683654785,-0.2963516414165497,0.8969449996948242,-0.32812389731407166,-0.3232162296772003,-0.074526846408844,0.511168360710144,0.7506565504986156,-0.4361891965140754,-0.38167661674511666,0.31713814647861394,-1.1128107648681547,-0.734563699121799,0.3297230975237852
1780586478592921344,0.934178352355957,-4.042094707489014,-0.23914484679698944,-1.4757105112075806,-0.3108823001384735,0.9061486124992371,-0.2867872416973114,-0.3289949893951416,0.19143128395080566,0.400221049785614,0.7424459777865616,-0.44948007171357984,-0.39315906113698096,0.3035912389257993,-1.1340875813668738,-0.8256913774919912,0.2322846377459718
1780586478602955008,0.9442121982574463,-2.870434522628784,-0.17460954189300537,-1.4245847463607788,-0.3246541917324066,0.9110189080238342,-0.254252552986145,-0.32318824529647827,0.44266456365585327,0.21723473072052002,0.7362244438279456,-0.4592428505524129,-0.4024546241551944,0.2917189513821634,-1.1457482439258233,-0.9064152422047909,0.14575694898208913
1780586478612990208,0.954247236251831,-1.5158230066299438,-0.08508124202489853,-1.4091905355453491,-0.33791664242744446,0.9116308093070984,-0.23396934568881989,-0.34172508120536804,0.6891687512397766,0.01669943332672119,0.7329603941426159,-0.4641599709976872,-0.40935418437880877,0.28240711531885804,-1.1472345973298541,-0.9651975543713914,0.08275616406050362
1780586478623025152,0.9642822742462158,-0.6376913785934448,0.08418074995279312,-1.382071614265442,-0.3507286012172699,0.9091916680335999,-0.22441035509109497,-0.3510383367538452,0.7026704549789429,-0.20056217908859253,0.7324758252208178,-0.46509950669388506,-0.414098146352797,0.27510796066392007,-1.1413386220516886,-1.001596338343957,0.042825578981204426
1780586478633060096,0.9743173122406006,-0.17480389773845673,0.18373145163059235,-1.2456759214401245,-0.3624519407749176,0.9053345918655396,-0.22135470807552338,-0.3312583565711975,0.44752490520477295,-0.2554672360420227,0.7336656190843438,-0.46397563072742887,-0.4171921167171669,0.26909503508283783,-1.1321668924738526,-1.0225356563660333,0.018172925755688723
1780586478643094016,0.9843511581420898,0.34364432096481323,0.10972218960523605,-0.9499742388725281,-0.3720562160015106,0.9011771082878113,-0.22238264977931976,-0.2424609661102295,0.09892970323562622,-0.25677382946014404,0.7355884545181521,-0.4617110826448407,-0.4190841819287557,0.2647659589288934,-1.1224776202224993,-1.032060513247,0.005827547181834077
1780586478653129216,0.9943861961364746,0.7577674984931946,-0.034918878227472305,-0.7305660247802734,-0.379390686750412,0.8967224955558777,-0.22792913019657135,-0.13389980792999268,-0.12801510095596313,-0.32939818501472473,0.7381267499669546,-0.4577955678125304,-0.4200698167653179,0.262932710488059,-1.11230782456138,-1.029805813542354,0.008005477245195245
1780586478663164160,1.0044212341308594,0.7412774562835693,-0.0777057558298111,-0.7710593938827515,-0.386154443025589,0.8921089172363281,-0.23457737267017365,-0.07948273420333862,-0.16397476196289062,-0.35313016176223755,0.7407300923131285,-0.4533260930874507,-0.42095934086734804,0.26193073553122487,-1.1019915183284128,-1.0249020067734338,0.014112819303783011
1780586478673199104,1.0144562721252441,0.5281656980514526,-0.1444724053144455,-0.8412088751792908,-0.39368936419487,0.8873843550682068,-0.23991230130195618,-0.10505947470664978,-0.053094685077667236,-0.3606888949871063,0.7430235143744216,-0.44904959455023163,-0.4223722419232034,0.26052318117276213,-1.0916402997122405,-1.0234974064044526,0.016957457543007138
1780586478683233280,1.0244903564453125,0.2842100262641907,-0.15509282052516937,-0.7173202633857727,-0.4010678231716156,0.8832850456237793,-0.242800772190094,-0.13604161143302917,-0.0020594000816345215,-0.4473695456981659,0.7446094148596598,-0.44570423899247835,-0.4242020064802232,0.25876104344782574,-1.0828234309949627,-1.026426068533326,0.015388817494644005
1780586478693267968,1.0345251560211182,0.1885644644498825,-0.1300676316022873,-0.5829944014549255,-0.4070500433444977,0.8800961375236511,-0.24442005157470703,-0.09125623106956482,0.03552275896072388,-0.38982677459716797,0.7456906136741404,-0.44324511949896145,-0.4258212556275705,0.2572073102703802,-1.076064628504806,-1.0300336628389386,0.012864347711347037
1780586478703303168,1.044560194015503,-0.0681522786617279,-0.1398656666278839,-0.6659606695175171,-0.41268864274024963,0.8774847388267517,-0.24435368180274963,-0.030319780111312866,0.010119020938873291,-0.35769712924957275,0.7463010378182547,-0.4415795763425138,-0.42758699436485736,0.25536573448700023,-1.0705922957969225,-1.0362045895364997,0.007364585945692927
1780586478713338112,1.0545952320098877,-0.4234826862812042,-0.13783100247383118,-0.7289305329322815,-0.41920706629753113,0.87507164478302,-0.2418990284204483,-0.00033333897590637207,-0.07313072681427002,-0.2836594581604004,0.7464343494978738,-0.440703776542717,-0.4299193728614058,0.2525575315166642,-1.065583783541972,-1.0474306654397845,-0.0039235112310605415
1780586478723372288,1.064629316329956,-0.7947720885276794,-0.2032230645418167,-0.7063102126121521,-0.42582207918167114,0.8735405802726746,-0.23580221831798553,0.02230331301689148,-0.1748252511024475,-0.16147562861442566,0.7456135795946205,-0.4412740969628065,-0.4328695651198578,0.24892100594106825,-1.062429401068318,-1.0650727522979317,-0.02225238520910935
1780586478733407232,1.0746643543243408,-1.068165898323059,-0.298034131526947,-0.7323018312454224,-0.43261802196502686,0.8726450204849243,-0.22656624019145966,0.05534449219703674,-0.14911901950836182,-0.13703542947769165,0.7438866767005822,-0.4429064879694807,-0.4365211558290024,0.24477686658229988,-1.0605925949663042,-1.0883613777251262,-0.04609674356411617
1780586478743442176,1.0846991539001465,-1.1679555177688599,-0.4583881199359894,-0.786416232585907,-0.44004759192466736,0.8718296885490417,-0.21510717272758484,0.059691786766052246,-0.06759995222091675,-0.21763211488723755,0.7414807117126575,-0.4449705736916061,-0.44096213530543543,0.24033300813422048,-1.058925545816903,-1.1161269703588697,-0.07361710478050339
1780586478753477120,1.0947341918945312,-1.1608675718307495,-0.5572111010551453,-0.8118547201156616,-0.44811010360717773,0.8707301020622253,-0.20254957675933838,0.06015542149543762,0.06100201606750488,-0.3208421468734741,0.7386705881529468,-0.44695161874185635,-0.44604871986451244,0.23588239074760797,-1.0566850527413307,-1.1462733819843145,-0.10235347833667814
1780586478763511296,1.1047682762145996,-0.98818439245224,-0.6395903825759888,-0.8046841621398926,-0.45628780126571655,0.8691815733909607,-0.19059039652347565,0.05109071731567383,0.13947010040283203,-0.3970865309238434,0.7358928716523807,-0.4483758330587804,-0.4512913828056273,0.23185506426077618,-1.053544763504094,-1.1751269549351635,-0.12867882415702045
1780586478773546240,1.1148033142089844,-0.9307488203048706,-0.7376261353492737,-0.8323320746421814,-0.4646245539188385,0.8671987652778625,-0.17913728952407837,0.0552007257938385,0.08053982257843018,-0.41850370168685913,0.7331330485507356,-0.44925683667919253,-0.45672711043457687,0.22822016333157272,-1.049549014368108,-1.2028061536888743,-0.15270084935225497
1780586478783581184,1.1248383522033691,-0.7401335835456848,-0.7972245216369629,-0.7914837002754211,-0.47303539514541626,0.8648315668106079,-0.16823801398277283,0.06544262170791626,0.042486608028411865,-0.32999199628829956,0.7303875249500843,-0.44956556648166357,-0.46235462173281877,0.22506250190512017,-1.044814735856949,-1.2290914150572392,-0.17406687283290276
1780586478793616128,1.1348731517791748,-0.5340789556503296,-0.656252384185791,-0.7664979100227356,-0.4809626638889313,0.8621516823768616,-0.1592777818441391,0.04251658916473389,0.06500279903411865,-0.1870204210281372,0.7281355660666277,-0.44924673879536636,-0.46748098812809913,0.22239048617778726,-1.039501373816669,-1.2509989423181984,-0.19096960980579736
1780586478803650048,1.1449072360992432,-0.37616658210754395,-0.49577638506889343,-0.6768492460250854,-0.4880879819393158,0.8593502640724182,-0.15260227024555206,-0.033533692359924316,0.09282875061035156,-0.05798429250717163,0.7265675752211112,-0.44854649778352224,-0.4717042577077755,0.22000178541831458,-1.0339977309001485,-1.2677718993433873,-0.2037389600984768
1780586478813685248,1.154942274093628,-0.0939178317785263,-0.31689023971557617,-0.6122598648071289,-0.4942351281642914,0.8565460443496704,-0.14852780103683472,-0.10554206371307373,0.09314572811126709,0.08428831398487091,0.7257753014740069,-0.44746671725902337,-0.4748785518220566,0.21797723942680525,-1.0285391756587665,-1.2788620630892071,-0.2119810088364261
1780586478823720192,1.1649773120880127,0.2787920832633972,-0.20346462726593018,-0.5526040196418762,-0.4995802342891693,0.8535158634185791,-0.14808818697929382,-0.1308213472366333,0.11939972639083862,0.0942247062921524,0.7260178323992003,-0.44546066524903705,-0.4769913007406285,0.21666126497500757,-1.0226958700718667,-1.2826223513313473,-0.2134161713154437
1780586478833755136,1.1750123500823975,0.5375858545303345,-0.16591045260429382,-0.4870298206806183,-0.5043115615844727,0.8502556681632996,-0.1507813185453415,-0.09026235342025757,0.1274663805961609,0.03345651924610138,0.7270886186318668,-0.44247366873064825,-0.4783580208269608,0.21617757873104018,-1.016470873163249,-1.280271499489424,-0.2085125669152738
1780586478843789056,1.1850461959838867,0.5675296187400818,-0.13159535825252533,-0.41924676299095154,-0.5083515644073486,0.8471066355705261,-0.15488408505916595,-0.019846677780151367,0.06845122575759888,-0.0073931217193603516,0.7284793835681562,-0.4391554105959186,-0.47927078442905874,0.21624031345694786,-1.010516908717073,-1.2750523561248563,-0.20061070306081946
1780586478853824256,1.1950812339782715,0.5602437257766724,-0.11819512397050858,-0.3737187087535858,-0.511932373046875,0.8441815376281738,-0.1590062528848648,0.028167665004730225,-0.03996694087982178,-0.02197827398777008,0.729848592973094,-0.4360183111741131,-0.4799842800850858,0.21638919271375523,-1.0050364817829214,-1.2696432790878576,-0.19277793377184108
1780586478863859200,1.2051162719726562,0.6205880641937256,-0.12668101489543915,-0.3140258193016052,-0.5150094628334045,0.8414775133132935,-0.16334255039691925,0.045191407203674316,-0.13421744108200073,-0.01423923671245575,0.7312040145741491,-0.43291309747062384,-0.48053613438324955,0.2168223268452441,-1.000012086749192,-1.2636679068483068,-0.18423406233773845
1780586478873894144,1.215151309967041,0.6269247531890869,-0.06392548978328705,-0.32527580857276917,-0.5178521871566772,0.8387908935546875,-0.16810360550880432,0.06892335414886475,-0.12236028909683228,-0.013689562678337097,0.7326669321065638,-0.42974569104386184,-0.48090210623180407,0.21737272449977063,-0.9950586800549183,-1.2569108832941494,-0.17502573506218538
1780586478883928064,1.2251851558685303,0.5610344409942627,-0.03667310252785683,-0.35626381635665894,-0.5207718014717102,0.8359922170639038,-0.1729554533958435,0.07495582103729248,-0.041863858699798584,-0.0042143315076828,0.7342275902732789,-0.42665179266098285,-0.48113462019548603,0.21768668008303366,-0.9899384980248306,-1.250143842935418,-0.16640189466182295
1780586478893963008,1.235220193862915,0.43810293078422546,-0.06597546488046646,-0.3773539066314697,-0.5239409804344177,0.8331728577613831,-0.17694295942783356,0.08053582906723022,-0.03687769174575806,-0.025571703910827637,0.7355994293653646,-0.42385542009331717,-0.4815341173653978,0.21763491242550093,-0.9848205780461222,-1.2451070776220745,-0.1598396920046273
1780586478903998208,1.2452552318572998,0.3285934627056122,-0.062017738819122314,-0.40444839000701904,-0.5273222923278809,0.8304315209388733,-0.17976288497447968,0.09690237045288086,-0.02527099847793579,-0.01838773488998413,0.7366720700519106,-0.42143829046910314,-0.4821911682371961,0.2172456384461348,-0.979881741567464,-1.2422534634622444,-0.15562080797050587
1780586478914033152,1.2552902698516846,0.287925660610199,-0.023978210985660553,-0.38707685470581055,-0.5306759476661682,0.8277772665023804,-0.18212030827999115,0.09074991941452026,0.024120867252349854,0.03774161636829376,0.7376537411722349,-0.41929274297216473,-0.4828389409730589,0.21662661055358434,-0.9751343033506741,-1.2402051710713076,-0.15264597611129216
1780586478924067328,1.265324354171753,0.26509517431259155,-0.00879952497780323,-0.3954242765903473,-0.5339394807815552,0.8251744508743286,-0.18437911570072174,0.06709688901901245,0.03281193971633911,0.10660506784915924,0.7386368203657819,-0.41729560573302227,-0.4833992346855058,0.21588229075931872,-0.9705109881817113,-1.2382982938251839,-0.15019557543577927
1780586478934102016,1.2753591537475586,0.17168481647968292,0.1006072536110878,-0.36947813630104065,-0.5370023250579834,0.8227097392082214,-0.18648585677146912,0.02320849895477295,0.015409708023071289,0.13349208235740662,0.739624892875993,-0.41557614301482354,-0.48379080576482064,0.21493670713489405,-0.9661614763002646,-1.236553886154303,-0.1485927278915098
1780586478944137216,1.2853941917419434,0.08160658925771713,0.21078011393547058,-0.35845479369163513,-0.5397059321403503,0.8204947710037231,-0.18842917680740356,-0.020215272903442383,0.008286237716674805,0.14860376715660095,0.7406879982064603,-0.4144012292472347,-0.48379440824892095,0.21353155912715618,-0.962276009772791,-1.234894051786163,-0.14862474607387868
1780586478954172160,1.2954292297363281,0.04524058848619461,0.2443390041589737,-0.29793739318847656,-0.5419512987136841,0.8185972571372986,-0.19023005664348602,-0.027644097805023193,-0.007378876209259033,0.16824212670326233,0.7417368027471654,-0.41361161022298054,-0.483539460048222,0.21199444192419706,-0.9589645233055967,-1.233222462635291,-0.14942675184021748
1780586478964206336,1.3054633140563965,0.003793812822550535,0.22981837391853333,-0.26442763209342957,-0.5437594056129456,0.8170273900032043,-0.19181224703788757,0.015866398811340332,-0.058909714221954346,0.16112685203552246,0.7426881378489791,-0.41308686458797267,-0.48316986690999786,0.21052427177843328,-0.9562366175267397,-1.231671917851828,-0.1505413690329712
1780586478974241280,1.3154983520507812,-0.06754162162542343,0.23736271262168884,-0.21486513316631317,-0.5452569127082825,0.8157873749732971,-0.1928359717130661,0.047118544578552246,-0.1163398027420044,0.1454116851091385,0.7434316611189563,-0.41285075562633017,-0.48284186528443657,0.2091106282555476,-0.9540893068931701,-1.2308639738912266,-0.15233755793993223
1780586478984275968,1.325533151626587,-0.016888828948140144,0.2705526351928711,-0.19497345387935638,-0.5463735461235046,0.8148020505905151,-0.1938384622335434,0.039324045181274414,-0.1397380828857422,0.13571776449680328,0.7441580424167671,-0.4128267793312106,-0.48234305510905623,0.207720756443967,-0.9523876913354618,-1.2298759422808558,-0.15429110142301083
1780586478994311168,1.3355681896209717,0.08771214634180069,0.2608596384525299,-0.2077678143978119,-0.5474588871002197,0.8136424422264099,-0.19563889503479004,0.028217613697052002,-0.10462766885757446,0.07791736721992493,0.7450986462443453,-0.41248821489838017,-0.4816991024607187,0.20651236611863344,-0.9503902829708811,-1.2275814483678187,-0.15481715222447626
1780586479004345088,1.34560227394104,0.21226179599761963,0.24566151201725006,-0.19694605469703674,-0.548618733882904,0.8122328519821167,-0.19823023676872253,0.03671693801879883,-0.049369752407073975,0.03337426483631134,0.7462241572923172,-0.41170783646263054,-0.4810213517313167,0.20558358448870012,-0.9479697276198767,-1.224067357964578,-0.1536165695919126
1780586479014380288,1.3556373119354248,0.2631359100341797,0.2296275645494461,-0.1885262131690979,-0.5496821999549866,0.8106665015220642,-0.20166635513305664,0.04418903589248657,-0.010373532772064209,0.01616525650024414,0.7475343370976963,-0.41052610603278916,-0.48024487425134393,0.2050014511225677,-0.9452895698803188,-1.2191651646403876,-0.15054865646950455
1780586479024415232,1.3656723499298096,0.15354974567890167,0.18711578845977783,-0.2104962170124054,-0.5508704781532288,0.8091265559196472,-0.204586923122406,0.043546319007873535,-0.029021024703979492,-0.0075560063123703,0.7486883939121506,-0.40944586398576277,-0.4796463523741518,0.2043503710442418,-0.942664211847948,-1.2151957221493752,-0.14823432756065086
1780586479034450176,1.3757071495056152,-0.04152173548936844,0.13487069308757782,-0.2553710341453552,-0.5523855686187744,0.8077507615089417,-0.20593445003032684,0.039491891860961914,-0.06402212381362915,-0.022001326084136963,0.7494328427593474,-0.4088719776920802,-0.4794335020512876,0.20326761689660072,-0.9403267795973829,-1.2139476964704763,-0.14877453085835673
1780586479044484096,1.3857412338256836,-0.1627512276172638,0.044699519872665405,-0.27841827273368835,-0.5543724298477173,0.8064761757850647,-0.2055901736021042,0.05029839277267456,-0.05878031253814697,-0.03755861520767212,0.7497111363775447,-0.40871676000829,-0.47974527012755475,0.20181249202022675,-0.9381678918057323,-1.215667144505739,-0.1520528230972013
1780586479054519296,1.3957762718200684,-0.28555944561958313,-0.020752059295773506,-0.29125577211380005,-0.5566555261611938,0.805335283279419,-0.20388591289520264,0.0800626277923584,-0.02187281847000122,-0.03067217767238617,0.7495749669874682,-0.40885652561150826,-0.480513667773966,0.20020040975268594,-0.9362408527710343,-1.2197017314104917,-0.1571726543004076
1780586479064554240,1.4058113098144531,-0.3046724200248718,-0.008529746904969215,-0.27933546900749207,-0.5590032935142517,0.8043504357337952,-0.20133483409881592,0.06896722316741943,0.02681100368499756,-0.015339970588684082,0.7491961804208699,-0.409291386291527,-0.48146977827500476,0.1984250781153753,-0.9345814135886114,-1.2250924541232662,-0.16365712347040234
1780586479074589184,1.415846347808838,-0.274852454662323,0.012729469686746597,-0.25514039397239685,-0.5611429214477539,0.8034366965293884,-0.19901756942272186,0.010590612888336182,0.021117687225341797,-0.02192966639995575,0.7488737064235516,-0.40974155432288084,-0.4822894110216237,0.19671521222130606,-0.9330450913282533,-1.229971965885412,-0.16977645726306648
1780586479084624128,1.4258811473846436,-0.21368764340877533,-0.004464164841920137,-0.2395438551902771,-0.5631053447723389,0.802536129951477,-0.1970990002155304,-0.028004884719848633,-0.038116633892059326,-0.05155818164348602,0.7486340758333414,-0.41007246841734146,-0.4830021426434179,0.19518306228649773,-0.9315340783368741,-1.23410230457375,-0.17502869900276932
1780586479094658048,1.435915231704712,-0.1336820274591446,-0.024799661710858345,-0.23580211400985718,-0.5650381445884705,0.8015404343605042,-0.19561375677585602,-0.02935272455215454,-0.042659878730773926,-0.06824123859405518,0.7484715037928182,-0.41014018754680426,-0.4837128755085026,0.19390012357322986,-0.9298670613334074,-1.2375146718367418,-0.1791054446263857
1780586479104693248,1.4459502696990967,-0.017366066575050354,-0.0486498698592186,-0.2200942486524582,-0.5669472217559814,0.8003841638565063,-0.1948235183954239,-0.02790147066116333,-0.008208751678466797,-0.09466627240180969,0.7484528476439061,-0.4098149429744112,-0.484396483879312,0.19295127916497157,-0.9279357657922233,-1.239802139052608,-0.18147522433893662
1780586479114728192,1.4559853076934814,-0.1795688271522522,-0.02445065602660179,-0.25345754623413086,-0.5688902735710144,0.7992005348205566,-0.1940167248249054,-0.041995346546173096,-0.0005402565002441406,-0.10122555494308472,0.7484357127791496,-0.40949210620504445,-0.4850854037133569,0.19196977657611414,-0.9259639090511702,-1.2421221079760654,-0.1839159583466353
1780586479124763136,1.4660203456878662,-0.558018147945404,-0.038008544594049454,-0.286289781332016,-0.571136474609375,0.7983632683753967,-0.19083864986896515,-0.051605284214019775,-0.03946727514266968,-0.07826539874076843,0.7478530014787315,-0.41020603527438326,-0.4861190030892945,0.19009302932545646,-0.9245723194666817,-1.2483213682578262,-0.19129938658960344
1780586479134797056,1.4760541915893555,-0.7734574675559998,-0.10540076345205307,-0.2702495753765106,-0.5734797120094299,0.798041045665741,-0.18507120013237,-0.03822982311248779,-0.07771950960159302,-0.0835140198469162,0.7465649362176331,-0.4119849493821628,-0.4875785103563824,0.1875533973904155,-0.9240373665299664,-1.2586314145192505,-0.2033701522143875
1780586479144832256,1.4860892295837402,-0.7977713346481323,-0.19913791120052338,-0.29868119955062866,-0.5760247707366943,0.7978606820106506,-0.17780353128910065,0.00020378828048706055,-0.08507668972015381,-0.11774398386478424,0.7448018684815183,-0.4141317340543945,-0.4894825267824094,0.1848569446326556,-0.9237380915014475,-1.2714013879725927,-0.21744921592485197
1780586479154867200,1.496124267578125,-0.6511281132698059,-0.2516134977340698,-0.3104254901409149,-0.5788949728012085,0.7973580956459045,-0.17058946192264557,0.019385695457458496,-0.011820375919342041,-0.14499276876449585,0.7429861983351422,-0.4158939974557203,-0.4916680328047232,0.18239042074910403,-0.9229048522581769,-1.2842262888856488,-0.2305965474201179
1780586479164902144,1.5061593055725098,-0.4162319600582123,-0.1789930909872055,-0.280195951461792,-0.5816182494163513,0.7965472936630249,-0.165023073554039,-0.00029087066650390625,0.09665638208389282,-0.1350715607404709,0.7415899489982167,-0.41696056662462616,-0.49359127493776983,0.18043244826144694,-0.9215625869652158,-1.2943312978407895,-0.24049907459544917
1780586479174936064,1.516193151473999,-0.16295495629310608,-0.07926370203495026,-0.2834942638874054,-0.5840281844139099,0.7954044342041016,-0.16199666261672974,-0.03572285175323486,0.1346798539161682,-0.06732769310474396,0.7409278154528892,-0.41723294977640385,-0.49489224540762056,0.17895356670579787,-0.919674627863348,-1.3002205201945458,-0.2463251753023717
1780586479184971008,1.5262281894683838,-0.19922561943531036,-0.07971884310245514,-0.3281235098838806,-0.5865992903709412,0.7938418388366699,-0.1603633016347885,-0.04007911682128906,0.1044582724571228,-0.061880990862846375,0.7407093119944923,-0.41697560207586043,-0.49593315863924864,0.17757074384051347,-0.9171007627902957,-1.303938763628521,-0.25012746079097714
1780586479195006208,1.5362632274627686,-0.2799984812736511,-0.05897361412644386,-0.2709960639476776,-0.5891134142875671,0.7924632430076599,-0.15794724225997925,-0.011731863021850586,0.07399177551269531,-0.03292487561702728,0.7402708322733424,-0.41708210357914527,-0.49706025394266823,0.1759905437296776,-0.9148370985679936,-1.3088468286478574,-0.25537126661252574
1780586479205041152,1.5462982654571533,-0.2055159956216812,0.017660977318882942,-0.24649789929389954,-0.5911457538604736,0.7913549542427063,-0.15589751303195953,-0.014597594738006592,0.0178644061088562,0.029417455196380615,0.7399346493929432,-0.4173415906971024,-0.49787271589582804,0.17448629405171592,-0.9130221078451778,-1.3129461185174567,-0.26030651119948633
1780586479215075328,1.5563323497772217,-0.1577833592891693,0.10190767794847488,-0.24737194180488586,-0.5929679274559021,0.7901868224143982,-0.15489909052848816,-0.0498695969581604,-0.047556936740875244,0.014319851994514465,0.7399469377869958,-0.41745174752380626,-0.4982815377413413,0.17299711642675092,-0.9111137723417235,-1.3152795105325246,-0.2641282801757699
1780586479225110016,1.5663671493530273,-0.09366243332624435,0.14230836927890778,-0.24243764579296112,-0.5947118997573853,0.7889226675033569,-0.15465715527534485,-0.05279475450515747,-0.03446704149246216,0.016885578632354736,0.7402127700749405,-0.4174183293719667,-0.4984308971651582,0.17150410910558653,-0.9090537829740192,-1.3163777726609216,-0.2671388039065934
1780586479235145216,1.576402187347412,0.05811643972992897,0.1500052958726883,-0.26117458939552307,-0.5964199304580688,0.787492573261261,-0.15536664426326752,-0.028000175952911377,0.003919780254364014,0.020646750926971436,0.7407497254152394,-0.41702352482644156,-0.49840551831133667,0.17021527115259225,-0.9067300166683282,-1.3159611794429602,-0.26853023309487456
1780586479245180160,1.5864372253417969,0.32822275161743164,0.17931711673736572,-0.2687709927558899,-0.5982725620269775,0.7855801582336426,-0.1579044908285141,-0.02170729637145996,0.015796184539794922,0.007880091667175293,0.7418008096014895,-0.4157672302187919,-0.49818206219512445,0.16936300134849328,-0.9036331782126465,-1.3127468780350373,-0.2665566463423288
1780586479255214336,1.5964713096618652,0.6287152171134949,0.2172037810087204,-0.29901382327079773,-0.6001120209693909,0.7831603288650513,-0.16286666691303253,-0.03372281789779663,0.05085456371307373,-0.008062303066253662,0.7435348188940747,-0.41349337788600055,-0.4975840557864262,0.1690838860447997,-0.8997320791647144,-1.3057858686861308,-0.26032970974629027
1780586479265249280,1.60650634765625,1.0016371011734009,0.22687718272209167,-0.32058224081993103,-0.6021751761436462,0.7799034714698792,-0.17069129645824432,-0.050031185150146484,0.12810122966766357,-0.01833455264568329,0.7460618621190533,-0.40982205229606483,-0.49668927437646126,0.16952073441880378,-0.8945115733954734,-1.2945840188635123,-0.24886640988716277
1780586479275283968,1.6165411472320557,1.3216140270233154,0.20439331233501434,-0.3724558353424072,-0.6044260263442993,0.775790810585022,-0.18115687370300293,-0.059392333030700684,0.18958699703216553,-0.08474278450012207,0.7492939807121141,-0.40479176088888913,-0.4955453508515342,0.1706955169398256,-0.8879673985921624,-1.2795990066039642,-0.23249354579205267
1780586479285319168,1.6265761852264404,1.4516236782073975,0.1742686927318573,-0.410206139087677,-0.6071109175682068,0.7707597613334656,-0.1932501494884491,-0.04483604431152344,0.19985175132751465,-0.1149621456861496,0.7529435150653351,-0.3986667948466145,-0.494408449163119,0.1723398731724551,-0.8800327333094222,-1.262626145606098,-0.2130001705509153
1780586479295353088,1.6366102695465088,1.4075597524642944,0.14225870370864868,-0.43640393018722534,-0.6100377440452576,0.7653120756149292,-0.20530758798122406,-0.041970252990722656,0.13031768798828125,-0.09486328065395355,0.7565591505148284,-0.3923185011406227,-0.4933886879312254,0.17398836400022932,-0.8715260515016355,-1.2461544703346168,-0.1936483996457905
1780586479305388288,1.6466453075408936,1.2671787738800049,0.1119961366057396,-0.48570728302001953,-0.6132885813713074,0.7596695423126221,-0.21628545224666595,-0.03829216957092285,0.0809677243232727,-0.05832695960998535,0.7598795020465409,-0.3862210615919981,-0.4926363392490668,0.17528811427709037,-0.8628047840320515,-1.2317492640412573,-0.17642624730353176
1780586479315423232,1.6566803455352783,1.0696275234222412,0.10574595630168915,-0.5608989596366882,-0.6170216202735901,0.7538275718688965,-0.22589443624019623,-0.03356730937957764,0.08832019567489624,-0.05704931914806366,0.7628722644719912,-0.38052487756457987,-0.49219264183422745,0.17599190404406814,-0.8538679954029207,-1.2198471026649618,-0.16212904175130277
1780586479325458176,1.666715145111084,0.9328793883323669,0.11589793115854263,-0.6175243854522705,-0.6211920976638794,0.7478641271591187,-0.23413582146167755,-0.046379804611206055,0.11219751834869385,-0.04821281135082245,0.7655688412965792,-0.3753381927673372,-0.49198915861408654,0.17598930969778956,-0.8448388097830812,-1.2103489530474134,-0.15099947312338266
1780586479335492096,1.6767492294311523,0.8190678358078003,0.13763770461082458,-0.6735668778419495,-0.6257063746452332,0.7417510151863098,-0.2414480298757553,-0.06664592027664185,0.10183119773864746,-0.04076331853866577,0.7680820497082785,-0.37050346809359125,-0.49193817578618515,0.17542536212454513,-0.8356773914708915,-1.2025206782366058,-0.14219773712212047
1780586479345527296,1.686784267425537,0.8321902751922607,0.12244145572185516,-0.7547872066497803,-0.6306571960449219,0.7352592945098877,-0.2483251690864563,-0.07390213012695312,0.1155250072479248,-0.0348779559135437,0.7705381746015538,-0.3657105621672309,-0.4920296713338157,0.1744522760008312,-0.8260491561458791,-1.1956841138315506,-0.1347218609837069
1780586479355562240,1.6968193054199219,0.9506348967552185,0.10925361514091492,-0.8694480061531067,-0.6363214254379272,0.7278493642807007,-0.2555979788303375,-0.06292784214019775,0.19745886325836182,-0.03869831562042236,0.7731538469214191,-0.3603593617655161,-0.49228258573422734,0.17329773814882637,-0.8151804780276568,-1.1888419960831014,-0.12695731785849249
1780586479365597184,1.7068543434143066,1.1980654001235962,0.11697837710380554,-0.963045060634613,-0.6426805853843689,0.7191842794418335,-0.2640753984451294,-0.055943071842193604,0.2944418787956238,-0.045296549797058105,0.7761433736923387,-0.3540499254595395,-0.49255553323490847,0.1721605573018379,-0.8026275978144803,-1.180931584706116,-0.11761941023020354
1780586479375632128,1.7168891429901123,1.431043028831482,0.11203528195619583,-1.0721515417099,-0.6496623158454895,0.7090113759040833,-0.27430233359336853,-0.0451313853263855,0.3519017696380615,-0.06058228015899658,0.7796241629638802,-0.34645408596749494,-0.49276607154532487,0.17128147270142313,-0.7880952715000081,-1.1712802407300933,-0.10565818737265152
1780586479385666048,1.7269232273101807,1.514142394065857,0.12148258090019226,-1.1815593242645264,-0.6572742462158203,0.6974591016769409,-0.28555476665496826,-0.04270744323730469,0.3432055711746216,-0.08215153217315674,0.7834330430956161,-0.3379576551602638,-0.4929576417552541,0.17032368243167256,-0.7718457142673549,-1.1609462082370474,-0.09268208393176543
1780586479395701248,1.7369582653045654,1.5519888401031494,0.14660018682479858,-1.2648345232009888,-0.6653852462768555,0.684846818447113,-0.2970644533634186,-0.05734729766845703,0.29127317667007446,-0.02695596218109131,0.7873698334694033,-0.32900316037411603,-0.49317815379198093,0.16905909010024592,-0.7543934740761117,-1.1508944764829185,-0.08007914073370644
1780586479405736192,1.7469933032989502,1.4060779809951782,0.13656087219715118,-1.374678373336792,-0.6739366054534912,0.6714093089103699,-0.30825141072273254,-0.06735056638717651,0.2665789723396301,-0.010535240173339844,0.7912886286522834,-0.31991682939716903,-0.4934850779131062,0.167296047548318,-0.7361088261298981,-1.1418144723037005,-0.06885801300046997
1780586479415771136,1.757028341293335,1.200162410736084,0.11703497171401978,-1.4337034225463867,-0.6829219460487366,0.6577644944190979,-0.31774774193763733,-0.07572978734970093,0.2447928786277771,0.005354523658752441,0.7948225758552708,-0.3113786076597759,-0.49413508730541605,0.1647150640420864,-0.7178469626747507,-1.135311068987367,-0.06095947407729179
1780586479425805056,1.7670621871948242,1.070533037185669,0.10256734490394592,-1.5243091583251953,-0.6921966075897217,0.6439296007156372,-0.32591181993484497,-0.06019902229309082,0.23284035921096802,0.01852351427078247,0.7980529044908978,-0.3032870220567131,-0.4950364345770574,0.16145421936589424,-0.6996234234030037,-1.130750034990869,-0.0556804260245297
1780586479435840256,1.777097225189209,1.0663111209869385,0.11009703576564789,-1.5968263149261475,-0.7018517255783081,0.629496693611145,-0.33337369561195374,-0.05214601755142212,0.2070205807685852,0.0006252825260162354,0.8011458054215512,-0.2952470148681881,-0.4961273525302548,0.15764590937970338,-0.6809053096911466,-1.12735481381784,-0.05197366398449075
1780586479445875200,1.7871322631835938,1.2490090131759644,0.14019954204559326,-1.6635997295379639,-0.7115670442581177,0.6140555143356323,-0.3414795398712158,-0.060909152030944824,0.19530123472213745,-0.01524043083190918,0.8044174181771465,-0.286640627376039,-0.49708890819021595,0.15379347316679776,-0.6611887048336867,-1.1233593253249243,-0.04758570279567405
1780586479455910144,1.7971673011779785,1.4743961095809937,0.13546471297740936,-1.7534867525100708,-0.721467912197113,0.5970627069473267,-0.35071390867233276,-0.04965025186538696,0.20881497859954834,-0.061166584491729736,0.8079852389028211,-0.2770069026668104,-0.49790583257133375,0.15005619386005384,-0.6398344984969927,-1.1183210540731874,-0.04159832171935974
1780586479465944064,1.8072011470794678,1.7322790622711182,0.17158223688602448,-1.8420658111572266,-0.7315362095832825,0.5782002210617065,-0.3613022267818451,-0.02945011854171753,0.25018417835235596,-0.043467700481414795,0.8118890780072724,-0.26607018364483515,-0.4985534470762022,0.1465853344391365,-0.6165210403001055,-1.1120444669258733,-0.0334398878667749
1780586479475979008,1.8172361850738525,1.8581738471984863,0.2775406241416931,-1.9546533823013306,-0.7415276169776917,0.5575299263000488,-0.3732253909111023,-0.02638620138168335,0.2849993109703064,-0.03577116131782532,0.8161791451995178,-0.25412160960762914,-0.49880809713597457,0.1430534272186933,-0.5914073932860916,-1.1044965598931844,-0.024095833387529634
1780586479486014208,1.8272712230682373,1.814206600189209,0.32923391461372375,-2.04426908493042,-0.7513267993927002,0.5355212688446045,-0.385648638010025,-0.04213017225265503,0.29361075162887573,-0.008195966482162476,0.8206647452428274,-0.24177483543357375,-0.4987189673751554,0.13904534481749672,-0.565124862197531,-1.096573228920339,-0.015318343060111917
1780586479496049152,1.837306261062622,1.8218952417373657,0.2997291684150696,-2.1009578704833984,-0.7609882950782776,0.5126403570175171,-0.3976135849952698,-0.024656176567077637,0.28522640466690063,0.009796231985092163,0.8250283110335026,-0.22929320279309107,-0.49861591729616417,0.13466638349398885,-0.5382571713710954,-1.0893140662278122,-0.0075138113452021035
1780586479506081536,1.8473386764526367,1.7272627353668213,0.27566322684288025,-2.1566033363342285,-0.7705212235450745,0.48899132013320923,-0.4088819921016693,0.015012860298156738,0.24959507584571838,0.0018385350704193115,0.8291758875857689,-0.21667351676888838,-0.49860966495233006,0.13003198240493993,-0.5109330144589932,-1.0829254888828064,-0.0004955359312566657
1780586479516116736,1.8573737144470215,1.4706839323043823,0.2508421540260315,-2.2210538387298584,-0.7799274921417236,0.46521446108818054,-0.41867491602897644,0.030888795852661133,0.19340065121650696,0.0019421577453613281,0.8329459904952355,-0.20461184998950419,-0.498795078081841,0.12465361618695317,-0.4838768699005347,-1.0781341340460049,0.003999897881996333
1780586479526151424,1.8674085140228271,1.1456246376037598,0.22079691290855408,-2.266686201095581,-0.7891567349433899,0.44194984436035156,-0.4265114665031433,0.029436886310577393,0.13094139099121094,0.02050560712814331,0.8362130956241208,-0.19360414117081776,-0.499261156576571,0.11833606272126289,-0.45777114577742606,-1.0753032368167676,0.005117159764793424
1780586479536186368,1.877443552017212,0.7850797772407532,0.22913381457328796,-2.3272368907928467,-0.798130214214325,0.41952627897262573,-0.4324186444282532,0.04742830991744995,0.07763558626174927,0.06202682852745056,0.8389977352112703,-0.1839497977124787,-0.49995314900471777,0.11086972640440422,-0.43292337495284244,-1.0742785279743938,0.002320413267459878
1780586479546221568,1.8874785900115967,0.5024339556694031,0.29088398814201355,-2.3817243576049805,-0.8066436052322388,0.3978031277656555,-0.4371255934238434,0.05517876148223877,0.05616110563278198,0.13663429021835327,0.8414840815303163,-0.17550111770507054,-0.5006361566911626,0.10231016852022694,-0.40912111760803527,-1.0741879967279915,-0.003858065587472592
1780586479556255488,1.897512674331665,0.47317248582839966,0.33216404914855957,-2.399256706237793,-0.8145806789398193,0.3762343227863312,-0.4414816200733185,0.05954533815383911,0.09173744916915894,0.17834380269050598,0.8438428288718183,-0.16762928242238065,-0.5011582748981169,0.09311307319100302,-0.38572860829153627,-1.0741359250171743,-0.011734449310802253
1780586479566290688,1.9075477123260498,0.5281281471252441,0.3762044906616211,-2.401791572570801,-0.8217824101448059,0.3543192744255066,-0.44624149799346924,0.06856280565261841,0.12184649705886841,0.14971745014190674,0.8462145798248852,-0.15963495641345182,-0.5013939817423175,0.08391445552806841,-0.3621860007325156,-1.07333044900078,-0.01931492983599422
1780586479576325376,1.9175825119018555,0.5859858393669128,0.41359418630599976,-2.397075891494751,-0.8282663226127625,0.33192944526672363,-0.45143961906433105,0.07030123472213745,0.13083907961845398,0.12874671816825867,0.8486003835094263,-0.15137349004096504,-0.5013644024103884,0.07481409506777513,-0.3383482591459947,-1.0717679066692236,-0.02630633989718579
1780586479586360576,1.9276175498962402,0.5369642376899719,0.46101391315460205,-2.4141907691955566,-0.8340076804161072,0.309287965297699,-0.4569159150123596,0.05509227514266968,0.11460119485855103,0.13791567087173462,0.8509675041623125,-0.14306013642882773,-0.5010746918054266,0.06566776280025417,-0.31444419129640183,-1.0696008659965124,-0.03324104494652914
1780586479596394496,1.9376516342163086,0.39837440848350525,0.5187638998031616,-2.389212131500244,-0.8389474749565125,0.28693655133247375,-0.46242260932922363,0.03517550230026245,0.07878610491752625,0.12534070014953613,0.8532584868688714,-0.13515970032912494,-0.5005202856045712,0.056225730993082014,-0.29102738630002734,-1.0670370682074402,-0.04108906614030965
1780586479606429696,1.9476866722106934,0.20543132722377777,0.5814754366874695,-2.3698196411132812,-0.8429608345031738,0.26546621322631836,-0.4679153263568878,0.036655962467193604,0.03864145278930664,0.14918971061706543,0.8554531039847793,-0.12803002846648348,-0.49965052524535536,0.046451311945626995,-0.26868745573838854,-1.064057106990239,-0.050291594772225306
1780586479616464640,1.9577217102050781,0.13773617148399353,0.6103062033653259,-2.3071670532226562,-0.8461700081825256,0.24481256306171417,-0.47335317730903625,0.048287928104400635,0.006041929125785828,0.16630053520202637,0.8575259285200967,-0.12157341882362457,-0.49854118060880076,0.03641409045032633,-0.24732637025087206,-1.0607597615085427,-0.06064819818476125
1780586479626499328,1.9677565097808838,0.21348552405834198,0.6885455846786499,-2.1996452808380127,-0.8483933210372925,0.22486665844917297,-0.47923243045806885,0.046574532985687256,-0.020582005381584167,0.13861051201820374,0.859593972026486,-0.11534235486593247,-0.49707135318224244,0.026728020733710278,-0.226806181966064,-1.0566079042808765,-0.07058096728242931
1780586479636533504,1.9777905941009521,0.31180837750434875,0.6993321776390076,-2.1050822734832764,-0.8496229648590088,0.2053404599428177,-0.4857737421989441,0.06278824806213379,-0.05728442966938019,0.09469100832939148,0.8617264195369725,-0.10895448707034847,-0.49521919987753743,0.017732080043427172,-0.20681156043948448,-1.0514063398176645,-0.07911904413335313
1780586479646568448,1.987825632095337,0.5108362436294556,0.6909142136573792,-2.162036657333374,-0.8504018783569336,0.18520160019397736,-0.4924602210521698,0.0832967758178711,-0.07228654623031616,0.11121940612792969,0.8637977403499008,-0.10197784392201555,-0.493325861556606,0.009147231395615676,-0.1862770011335002,-1.0458928628100332,-0.08641447197674453
1780586479656603648,1.9978606700897217,0.7912527322769165,0.7506041526794434,-2.1665210723876953,-0.8506258726119995,0.1634475141763687,-0.49972057342529297,0.06739217042922974,0.017384424805641174,0.1333112120628357,0.8659442676920939,-0.0938182676112139,-0.4912614854057858,0.0009818924691257726,-0.16418415708608897,-1.039638059229229,-0.09184045947755948
1780586479666638592,2.0078957080841064,0.9828546643257141,0.8209841251373291,-2.1499195098876953,-0.8499508500099182,0.1404847800731659,-0.5077870488166809,0.04253202676773071,0.1431303322315216,0.1397603154182434,0.868245721935272,-0.08459362779912104,-0.4888255272491761,-0.006557887071680679,-0.1409510392441961,-1.032267891458507,-0.09517685428454221
1780586479676673536,2.017930507659912,0.9384525418281555,0.8503217101097107,-2.1343986988067627,-0.8484011888504028,0.11723832041025162,-0.5162079930305481,0.025525212287902832,0.13736984133720398,0.1514771580696106,0.8705814841884809,-0.07506838996674375,-0.4860665988915324,-0.01385404792752905,-0.11750856567369415,-1.0241882022355473,-0.09792934086088238
1780586479686707456,2.0279645919799805,0.8146200776100159,0.7999293804168701,-2.080747604370117,-0.846320390701294,0.0946904718875885,-0.524190366268158,0.035468339920043945,0.024404376745224,0.14015716314315796,0.8727224770114692,-0.06600588466739184,-0.48326807999148796,-0.021229586304596433,-0.09483255316238612,-1.0162516021386978,-0.10148144102653062
1780586479696742656,2.0379996299743652,0.555489182472229,0.7714399695396423,-2.0245590209960938,-0.8439070582389832,0.0736604779958725,-0.5314084887504578,0.07249897718429565,-0.07755146920681,0.12364786863327026,0.8745712839522074,-0.05793591033524274,-0.48056133382807353,-0.02879724779473434,-0.0737272545101745,-1.0088242168239927,-0.10654436451693458
1780586479706777600,2.04803466796875,0.3316878080368042,0.7647889852523804,-1.9918633699417114,-0.8410547971725464,0.05432033911347389,-0.5382156372070312,0.09848588705062866,-0.1067037582397461,0.12496185302734375,0.8762172717878232,-0.051040655017910434,-0.4777939076207836,-0.036757549733073866,-0.05434708970287232,-1.001533248936293,-0.11360057176983221
1780586479716812544,2.0580697059631348,0.10774578154087067,0.7299202084541321,-1.978387475013733,-0.8378886580467224,0.036409713327884674,-0.544625461101532,0.10508531332015991,-0.12748941779136658,0.11676901578903198,0.8776529370879026,-0.04517711158915184,-0.4750224102503226,-0.04514516967852055,-0.03641776405798557,-0.9944229249728563,-0.12255145081862176
1780586479726846464,2.068103551864624,-0.011757449246942997,0.6958701014518738,-1.9453927278518677,-0.8345300555229187,0.019718358293175697,-0.5506094098091125,0.11724495887756348,-0.14217014610767365,0.11198031902313232,0.8788655186669997,-0.04015898629921202,-0.47231615396965493,-0.05385199902121963,-0.019719636541592037,-0.9875739274399525,-0.13301044230589076
1780586479736881408,2.078138589859009,-0.055344343185424805,0.7338026762008667,-1.900165319442749,-0.8308271169662476,0.003895774483680725,-0.5565169453620911,0.11380136013031006,-0.10173512995243073,0.11295926570892334,0.8799695680414384,-0.03558776295823223,-0.4695476944363275,-0.06254585321167613,-0.0038957843061092627,-0.9806035689308956,-0.14399538852871202
1780586479746916608,2.0881736278533936,0.01907023787498474,0.8233551979064941,-1.8724623918533325,-0.8263725638389587,-0.011671998538076878,-0.5630027651786804,0.08345264196395874,-0.032883673906326294,0.1048424243927002,0.8811643323053765,-0.030994081986256774,-0.4664096862061013,-0.07106816143327638,0.011672263668780075,-0.9727352824589451,-0.1547851690445694
1780586479756951552,2.0982086658477783,0.05317015200853348,0.8639206290245056,-1.8368878364562988,-0.8212165236473083,-0.02724434807896614,-0.5699658393859863,0.051319122314453125,-0.017967451363801956,0.0847974419593811,0.8824367948945134,-0.026165573922159725,-0.46296053380471797,-0.07929755734184675,0.02724772007566391,-0.9640744401556869,-0.16498586275047286
1780586479766985472,2.1082425117492676,0.09363448619842529,0.8803744316101074,-1.7834675312042236,-0.8155672550201416,-0.0425269640982151,-0.5770973563194275,0.06282079219818115,-0.0027000904083251953,0.10515832901000977,0.8837045886585204,-0.02129692433648169,-0.45934492022451656,-0.08726268580238401,0.0425397924572247,-0.9549862786694945,-0.174840945897526
1780586479777020416,2.1182775497436523,0.0882093608379364,0.9069160223007202,-1.7299752235412598,-0.8094853162765503,-0.057429466396570206,-0.5843247771263123,0.07131087779998779,0.009181179106235504,0.13350385427474976,0.8849592748362414,-0.016418662628001297,-0.45559636499646716,-0.09491862673697593,0.05746108246154618,-0.9455577632301798,-0.18430288012910068
1780586479787055616,2.128312587738037,0.022108372300863266,0.9450964331626892,-1.6842669248580933,-0.8028943538665771,-0.07157310098409653,-0.5918091535568237,0.05879944562911987,-0.009435802698135376,0.11559760570526123,0.8862326046365263,-0.011827892156869135,-0.4516143677996617,-0.10245204180702074,0.07163435015739683,-0.9356059281129725,-0.19398468068299218
1780586479797090560,2.138347625732422,-0.128775954246521,0.9100095629692078,-1.625436544418335,-0.7960377931594849,-0.08456770330667496,-0.5993098020553589,0.05343830585479736,-0.032894447445869446,0.09102427959442139,0.8874485561887415,-0.007802594503635438,-0.4475312485514364,-0.10995489703078792,0.08466882846157349,-0.9254634861997488,-0.20428713443615248
1780586479807124736,2.1483817100524902,-0.2062837928533554,0.8636891841888428,-1.5604480504989624,-0.7892261743545532,-0.09624150395393372,-0.6065143346786499,0.072337806224823,-0.07250543683767319,0.0834888219833374,0.8885169194027723,-0.0044717863273228305,-0.44353446979133,-0.11745200178369576,0.09639070141334234,-0.9155647356153815,-0.21533513951884808
1780586479817159424,2.158416509628296,-0.37721771001815796,0.8160127401351929,-1.5078495740890503,-0.7825309038162231,-0.10652866959571838,-0.6134305000305176,0.08680641651153564,-0.12506923079490662,0.09551668167114258,0.8894386747532508,-0.0018789234031949165,-0.4396375979022734,-0.12495637792502809,0.10673119290606597,-0.9059462778419898,-0.22716444040775655
1780586479827194368,2.1684515476226807,-0.4489837884902954,0.7805705666542053,-1.4746534824371338,-0.7759581208229065,-0.11555741727352142,-0.6201092600822449,0.0799742341041565,-0.13261152803897858,0.11836975812911987,0.8902194069778433,2.1080301211859194e-05,-0.435827219975798,-0.1325294514913148,0.11581615781515259,-0.8965720492993774,-0.23982587482138656
1780586479837229568,2.1784865856170654,-0.3640579581260681,0.8015859127044678,-1.4238052368164062,-0.7692718505859375,-0.1241951584815979,-0.626734733581543,0.067108154296875,-0.0648917555809021,0.12455272674560547,0.8909493256426101,0.0018550020741394803,-0.4320060192291074,-0.13991671970584676,0.12451666592704534,-0.8871490369919112,-0.25231619917999826
1780586479847264512,2.18852162361145,-0.2189127653837204,0.8329097032546997,-1.355023980140686,-0.7622990608215332,-0.13307848572731018,-0.6333958506584167,0.0597081184387207,0.03479662537574768,0.11340677738189697,0.8917205404506082,0.004169029362150948,-0.42811762919685264,-0.14673918865917332,0.13347444989739304,-0.8774946321290672,-0.2634857506139357
1780586479857298688,2.1985557079315186,-0.2003563940525055,0.8599401116371155,-1.2832674980163574,-0.7550705671310425,-0.1418270766735077,-0.6401198506355286,0.06926435232162476,0.07169768214225769,0.06231534481048584,0.8925434385190466,0.00671826573876962,-0.424140218520466,-0.15305598150003857,0.14230691242032922,-0.8676031877792425,-0.2736538245856925
1780586479867333376,2.208590507507324,-0.3159503638744354,0.825974702835083,-1.194317102432251,-0.7477977275848389,-0.14955443143844604,-0.6468632221221924,0.09813952445983887,0.005526721477508545,0.03880047798156738,0.8933755524785221,0.008887278319048394,-0.42010641106810465,-0.15909668178171038,0.1501176156056976,-0.8576442608033215,-0.2837393142639141
1780586479877368576,2.218625545501709,-0.5423174500465393,0.7499209642410278,-1.110990285873413,-0.7408762574195862,-0.1552390605211258,-0.6534547805786133,0.13829147815704346,-0.0805702656507492,0.008130073547363281,0.8941209820105231,0.009946303030339651,-0.4161414273693888,-0.1651513855042713,0.15586944554624066,-0.848014013002338,-0.2948278831680514
1780586479887403520,2.2286605834960938,-0.5896497964859009,0.5970608592033386,-1.0103029012680054,-0.7347069382667542,-0.15926304459571838,-0.6594246625900269,0.17092525959014893,-0.14339503645896912,0.0019387602806091309,0.8946785129658434,0.010128795535411392,-0.4125349287875469,-0.1710631038723384,0.1599441221260155,-0.839345165512161,-0.30635502461915015
1780586479897437696,2.238694667816162,-0.5369517207145691,0.46468281745910645,-0.8950902223587036,-0.7297024130821228,-0.16250008344650269,-0.6641747355461121,0.19135713577270508,-0.19431142508983612,-0.02602607011795044,0.894958064288268,0.010016406591403335,-0.40964901736853687,-0.1764578344503584,0.16322388934466925,-0.8323746987000057,-0.3170683096720197
1780586479907472640,2.248729705810547,-0.5500286221504211,0.4719519019126892,-0.8157243132591248,-0.725218653678894,-0.16516804695129395,-0.6684141159057617,0.17324721813201904,-0.16704630851745605,-0.0035829544067382812,0.8951587684087265,0.009777621732055588,-0.4070593837695809,-0.18137771051809257,0.16592839485739055,-0.8261356730860363,-0.32696969040207385
1780586479917507328,2.2587645053863525,-0.5840923190116882,0.5079305171966553,-0.7150051593780518,-0.7206106185913086,-0.16682010889053345,-0.6729720234870911,0.10835176706314087,-0.10788387060165405,0.07467490434646606,0.8954887672845079,0.009188193639401326,-0.40426422328023914,-0.18597276023509676,0.16760370661295035,-0.8195691262538033,-0.33659184590586744
1780586479927542528,2.2687995433807373,-0.6110554933547974,0.5025560259819031,-0.6163235902786255,-0.7160559892654419,-0.16760799288749695,-0.6776219010353088,0.0799475908279419,-0.06621767580509186,0.11188703775405884,0.8959193976286608,0.008367960465598677,-0.401396335831746,-0.19010382883653917,0.16840283945218468,-0.8129686000549639,-0.345544614675765
1780586479937576448,2.2788336277008057,-0.7819010019302368,0.4988017678260803,-0.5383190512657166,-0.7116660475730896,-0.16693413257598877,-0.6823961138725281,0.10071945190429688,-0.07059943675994873,0.09389513731002808,0.8963971751247747,0.006843361555370624,-0.39844084809214453,-0.19408827567889228,0.16771934709734296,-0.8063912376207264,-0.35477720246665295
1780586479947611648,2.2888686656951904,-0.8578911423683167,0.44101783633232117,-0.44585174322128296,-0.7075775265693665,-0.1647750288248062,-0.6871559619903564,0.12693482637405396,-0.08173070847988129,0.08786702156066895,0.8968890514707148,0.00459273503500041,-0.39547556044333904,-0.1979094161688355,0.16552991125299718,-0.8000390068600433,-0.3642433185860196
1780586479957646592,2.298903703689575,-1.007502555847168,0.3472364842891693,-0.3740324079990387,-0.7041584849357605,-0.16114766895771027,-0.6915145516395569,0.1531941294670105,-0.10882608592510223,0.029359400272369385,0.8972852922181687,0.001565281447518793,-0.392734368196062,-0.20158492864414973,0.16185340835157772,-0.7944573001660838,-0.3739586026352026
1780586479967681280,2.308938503265381,-1.080428123474121,0.239182710647583,-0.29429736733436584,-0.7015827894210815,-0.15618357062339783,-0.6952612996101379,0.17631423473358154,-0.11330190300941467,-0.0068261027336120605,0.897521911804218,-0.0022114037697379386,-0.39033890700520335,-0.20514627243428635,0.15682562223112298,-0.7899236712127075,-0.38393258819166304
1780586479977716480,2.3189735412597656,-0.9990956783294678,0.1773824691772461,-0.21743854880332947,-0.6997545957565308,-0.1506018191576004,-0.6983284950256348,0.18416011333465576,-0.0967583954334259,-0.027730464935302734,0.8976372616792918,-0.00624811866012364,-0.38832554138299125,-0.20835471157219976,0.15117701197594444,-0.7864182249561907,-0.393342707953731
1780586479987750656,2.329007625579834,-0.8623830676078796,0.1671396791934967,-0.15468169748783112,-0.6982747316360474,-0.14534991979599,-0.7009178400039673,0.17160242795944214,-0.07678753137588501,-0.030985236167907715,0.8977389374714143,-0.009909022738430869,-0.38657842813893306,-0.21100678931304237,0.1458666339856753,-0.783509145148209,-0.4013571683937141
1780586479997785600,2.3390426635742188,-0.6169354915618896,0.19479820132255554,-0.0849287137389183,-0.696800947189331,-0.1409851312637329,-0.7032721042633057,0.13919901847839355,-0.04801023006439209,0.015222787857055664,0.8979223538563444,-0.012815879853218302,-0.3849671513491496,-0.21300578689469507,0.14145641542969697,-0.7807761826346636,-0.4075395292702251
1780586480007820544,2.3490777015686035,-0.4940841495990753,0.2551451623439789,-0.009364976547658443,-0.6951849460601807,-0.1374456137418747,-0.705568253993988,0.10894227027893066,-0.011815875768661499,0.05360597372055054,0.8982585288630821,-0.014952259176283258,-0.3833957516606506,-0.21427936853709972,0.13788208553887923,-0.7779856256107154,-0.41175708700472685
1780586480017855744,2.3591127395629883,-0.6297684907913208,0.2962452173233032,0.04801416024565697,-0.693192183971405,-0.1334206908941269,-0.7082961797714233,0.0878608226776123,-0.021211862564086914,0.06268161535263062,0.8987818827396956,-0.017154115288407032,-0.3815201629544001,-0.21526555649606463,0.13381972787535254,-0.7746214653248148,-0.4155046529642235
1780586480027890432,2.369147539138794,-0.8204857110977173,0.19501259922981262,0.08189675956964493,-0.6914889216423035,-0.12778036296367645,-0.7109959721565247,0.09621304273605347,-0.10808999836444855,0.05549365282058716,0.8992680649320823,-0.020284669407617726,-0.3795926158063139,-0.21636759234666667,0.12813067916427903,-0.7714901529867051,-0.4201401550752185
1780586480037924608,2.3791816234588623,-0.9772542715072632,0.06284017115831375,0.09244527667760849,-0.6906794905662537,-0.12073295563459396,-0.7130114436149597,0.15175437927246094,-0.14328986406326294,0.030348539352416992,0.8995062948414442,-0.024379437923378905,-0.37802104116448465,-0.2177019927792601,0.12102820254420087,-0.769490053591367,-0.42585804403205096
1780586480047959552,2.389216661453247,-1.019091010093689,-0.043998122215270996,0.10860612988471985,-0.6907616257667542,-0.1128205955028534,-0.7142267823219299,0.17290884256362915,-0.0812559425830841,-0.03110402822494507,0.8994914665445107,-0.029110526557215737,-0.37688086868765325,-0.21915405055860815,0.1130613180768523,-0.7686984066974814,-0.43220177965744455
1780586480057994496,2.399251699447632,-0.9310314059257507,-0.10234399139881134,0.12170542031526566,-0.6914131045341492,-0.10498037189245224,-0.7147915959358215,0.15187764167785645,-0.007385358214378357,-0.07733798027038574,0.8993239829605914,-0.03384232127317655,-0.37611023337720295,-0.2204816250194849,0.10517416050240772,-0.7687744816354496,-0.4382667454337641
1780586480068029696,2.4092867374420166,-0.7620626091957092,-0.14514152705669403,0.13456928730010986,-0.692448079586029,-0.09798842668533325,-0.7147824168205261,0.12718629837036133,0.03088027983903885,-0.0944521427154541,0.8990778120484441,-0.03805701668288176,-0.37571324499717157,-0.22147324767064902,0.0981459177424947,-0.7695283683977113,-0.4432797099612839
1780586480078063616,2.419320583343506,-0.5477473735809326,-0.16125470399856567,0.12046652287244797,-0.693662166595459,-0.09241917729377747,-0.7143469452857971,0.11552196741104126,0.050518542528152466,-0.09764957427978516,0.8988004854961296,-0.041415394820002574,-0.37564784986070726,-0.2221063311308818,0.09255124916584856,-0.7707084531906383,-0.4469571466957889
1780586480088098560,2.4293556213378906,-0.24709247052669525,-0.1681126207113266,0.14816632866859436,-0.6949522495269775,-0.08860337734222412,-0.7135761380195618,0.10382670164108276,0.05649889260530472,-0.10777395963668823,0.8985521453403328,-0.04367120618564934,-0.37590524326914393,-0.22224362940927514,0.08871972162657277,-0.7721766745161621,-0.44885486365380456
1780586480098133504,2.4393906593322754,0.11231949180364609,-0.2374878227710724,0.17934554815292358,-0.696496844291687,-0.08689159154891968,-0.7122794985771179,0.11437404155731201,0.06331676989793777,-0.10759049654006958,0.8983531959798347,-0.04454662488023092,-0.37666411621709395,-0.22158839778137293,0.08700130427140901,-0.7741955564546815,-0.4481805022483545
1780586480108168704,2.44942569732666,0.34642574191093445,-0.3242376446723938,0.19961486756801605,-0.698706328868866,-0.08734280616044998,-0.7100567817687988,0.13945651054382324,0.06295925378799438,-0.09470701217651367,0.8980743706408647,-0.04410328419770456,-0.378188451030701,-0.2202061735132782,0.0874542408814685,-0.7773413051464693,-0.4450766771448797
1780586480118202368,2.4594595432281494,0.6375313401222229,-0.2709532380104065,0.20916949212551117,-0.7010467052459717,-0.0892869159579277,-0.707503616809845,0.11365967988967896,0.0745316669344902,0.04777461290359497,0.8978290494986183,-0.04267859754125216,-0.3800351747262945,-0.218299640316233,0.08940597702678658,-0.78081410488493,-0.44021309260403885
1780586480128237568,2.469494581222534,0.8498741984367371,-0.12141435593366623,0.21556641161441803,-0.7026376724243164,-0.09319262206554413,-0.7054186463356018,0.008072853088378906,0.10193591564893723,0.1543169617652893,0.8978392482534983,-0.03987118849257237,-0.38170795827985066,-0.21585672665817346,0.09332804918826625,-0.78342314221485,-0.4333074015825791
1780586480138272512,2.479529619216919,0.8723062872886658,-0.008807381615042686,0.22958634793758392,-0.7032645344734192,-0.09782188385725021,-0.704166054725647,-0.08622521162033081,0.09461753815412521,0.14873087406158447,0.8981396267705889,-0.03640219428974053,-0.3828731417119112,-0.21313899006363463,0.09797857033124938,-0.7847576060343083,-0.42542878204251394
1780586480148307456,2.4895646572113037,0.7328677177429199,0.02456974983215332,0.19971686601638794,-0.7033750414848328,-0.10196943581104279,-0.7034668922424316,-0.09246224164962769,0.05576582998037338,0.13544327020645142,0.8985375990381875,-0.0331829348477597,-0.383621477462678,-0.21062646076867977,0.10214697997492853,-0.785332869012201,-0.4181687604555342
1780586480158342656,2.4995996952056885,0.5274077653884888,-0.035506635904312134,0.1581031084060669,-0.7035873532295227,-0.10514349490404129,-0.7027871608734131,-0.04932713508605957,0.004389718174934387,0.053312063217163086,0.8988218868456846,-0.030691572797088083,-0.38427132848608053,-0.2085974158921096,0.1053381972753552,-0.7859671296397482,-0.4123824596165852
1780586480168376320,2.5096335411071777,0.36621567606925964,-0.07327292859554291,0.11981164664030075,-0.7041553258895874,-0.1072484627366066,-0.7018996477127075,0.008964896202087402,-0.023137882351875305,-0.03360450267791748,0.8989161036162049,-0.029049406382399178,-0.38497571473787684,-0.20712270245268374,0.10745513342422165,-0.7870024093592094,-0.40827690753105966
1780586480178411520,2.5196685791015625,0.3685592710971832,-0.09400030970573425,0.10142838209867477,-0.7048514485359192,-0.10900808870792389,-0.7009291052818298,0.021669745445251465,-0.02368234097957611,-0.05937051773071289,0.8989233500436529,-0.02772018590791107,-0.38570329100729284,-0.2059157060968045,0.10922513509739845,-0.7881882837055929,-0.404909878657608
1780586480188446464,2.5297036170959473,0.446586936712265,-0.12035468220710754,0.07490915805101395,-0.7057160139083862,-0.11125583946704865,-0.6997050046920776,0.008648693561553955,0.011432848870754242,-0.09219563007354736,0.8988574288991397,-0.02616156140987499,-0.38660452848369536,-0.20471419181350028,0.11148664570972956,-0.7896751249050474,-0.4013609133635478
1780586480198481664,2.539738655090332,0.37273722887039185,-0.08133843541145325,0.05802977457642555,-0.7065478563308716,-0.11374442279338837,-0.6984643340110779,-0.007456719875335693,0.03947989642620087,-0.09371095895767212,0.8987701654212925,-0.0244976610561119,-0.38751475578091893,-0.2035792899476439,0.1139911299200695,-0.7911514150382262,-0.3978561982525891
1780586480208515584,2.5497727394104004,0.20197400450706482,0.006969584617763758,0.03600995987653732,-0.7068488597869873,-0.11545881628990173,-0.6978782415390015,-0.052184343338012695,0.01266036182641983,0.002474188804626465,0.898783808479724,-0.02330845127628096,-0.3879659691290069,-0.2027978524024127,0.11571688983873182,-0.7917841030390886,-0.3954296993772412
1780586480218550528,2.559807538986206,0.07578358054161072,0.06848407536745071,0.017495930194854736,-0.706579327583313,-0.11613412201404572,-0.6980389952659607,-0.09871852397918701,-0.04066520184278488,0.07618236541748047,0.8989101785771066,-0.022757005852849614,-0.3878951054748279,-0.20243504732989112,0.11639676963714932,-0.7914782713579918,-0.39433700342899985
1780586480228585472,2.569842576980591,0.11346305161714554,0.051575668156147,-0.002070046029984951,-0.7061415910720825,-0.11672558635473251,-0.6983832120895386,-0.0912674069404602,-0.03520617634057999,0.05443185567855835,0.8990538208372509,-0.0222887120241881,-0.38770039765586856,-0.20222198706109223,0.11699228630574235,-0.7909219348876529,-0.3936061120744021
1780586480238620416,2.5798776149749756,0.1844453513622284,0.013274618424475193,-0.021872512996196747,-0.7058883905410767,-0.11781229078769684,-0.6984568238258362,-0.04231107234954834,0.014678142964839935,-0.01695150136947632,0.8991227329158114,-0.021588273330888502,-0.3876925818192802,-0.20200710014402018,0.11808654411460846,-0.7906899606172987,-0.39267640376298685
1780586480248655616,2.5899126529693604,0.3058308959007263,-0.04004852473735809,-0.03421173617243767,-0.7059394121170044,-0.1197357326745987,-0.6980780363082886,-0.005669534206390381,0.0636444240808487,-0.06368649005889893,0.8990944535114481,-0.02043983776811313,-0.3879989752234293,-0.20166344932227306,0.12002369697644075,-0.7909973040186082,-0.3911295645640877
1780586480258689536,2.5999467372894287,0.3813762664794922,-0.06693366914987564,-0.01526867225766182,-0.7063020467758179,-0.12235838919878006,-0.6972559690475464,0.001010298728942871,0.05290038883686066,-0.10601246356964111,0.8989897255826633,-0.018881088810882716,-0.3886071551392385,-0.2011108106121695,0.12266578207807843,-0.7918431904717846,-0.38884127181791245
1780586480268724480,2.6099815368652344,0.4697631001472473,-0.07796075195074081,-0.010779115371406078,-0.7068061232566833,-0.12542951107025146,-0.6961986422538757,-0.0019341111183166504,0.024156928062438965,-0.07903939485549927,0.8988696720714249,-0.017009020645007134,-0.3893730487173875,-0.2003314073702406,0.12576075448917223,-0.7929585688171741,-0.3858660654522065
1780586480278759424,2.620016574859619,0.5867581963539124,-0.030896304175257683,-0.004955580923706293,-0.7072011828422546,-0.1291462779045105,-0.6951170563697815,-0.007215321063995361,0.018794715404510498,-0.035641610622406006,0.8987925735150866,-0.014681754252090323,-0.39016138631733227,-0.19932518182394865,0.129507996634897,-0.7940151965795648,-0.38211437172367757
1780586480288794624,2.630051612854004,0.7034847736358643,0.015583578497171402,0.0007449150434695184,-0.7072123289108276,-0.13367752730846405,-0.6942485570907593,-0.012773633003234863,0.02872757613658905,0.0024150609970092773,0.8988247310047509,-0.011767325683288211,-0.39081613648067076,-0.19808681809422327,0.13407888825607506,-0.7946480805021948,-0.377498848322167
1780586480298828544,2.6400856971740723,0.765964150428772,0.01259537972509861,0.026285961270332336,-0.7071036100387573,-0.1387179046869278,-0.6933698654174805,-0.0216560959815979,0.0009920746088027954,-0.014088630676269531,0.8989108516279302,-0.008449599121514608,-0.3914634978150375,-0.19658126167201828,0.1391666844618519,-0.7952043678872465,-0.372073986036852
1780586480308863744,2.650120735168457,0.7341082096099854,-0.00649309391155839,0.07470595836639404,-0.7071609497070312,-0.14365066587924957,-0.6923062205314636,0.005912840366363525,-0.05187544226646423,-0.019134819507598877,0.8989930116804782,-0.005108940542856598,-0.39219995110645195,-0.1948450928541431,0.14414936389992034,-0.7960123336970852,-0.36617831161770353
1780586480318898432,2.6601555347442627,0.5828191041946411,-0.012158170342445374,0.08795731514692307,-0.7073441743850708,-0.147666335105896,-0.6912733912467957,0.0526047945022583,-0.0396047979593277,0.0006148219108581543,0.8990664667255258,-0.00229343604629347,-0.39288425649167696,-0.19317423946069764,0.14820831980032428,-0.7968881351835647,-0.36080252573435295
1780586480328933376,2.6701905727386475,0.41683411598205566,-0.035457365214824677,0.12074428796768188,-0.7076370716094971,-0.1503816545009613,-0.6903876662254333,0.07110142707824707,-0.020776182413101196,0.035617828369140625,0.8991302610382969,-0.00027171541639645937,-0.39345404230080167,-0.19172540082319972,0.15095430434991391,-0.7977359280023275,-0.35645506826935897
1780586480338968576,2.6802256107330322,0.25525081157684326,-0.0561036616563797,0.13655947148799896,-0.708171010017395,-0.15179021656513214,-0.6895313858985901,0.07226097583770752,-0.024006277322769165,0.027330458164215088,0.8991583062578952,0.0009445197546868797,-0.3939967155007358,-0.1904732594567308,0.15237923171774823,-0.7987332839470672,-0.3530845947422575
1780586480349002496,2.6902596950531006,0.18851013481616974,-0.029473910108208656,0.17739345133304596,-0.7087100744247437,-0.15211646258831024,-0.6889053583145142,0.05940288305282593,-0.024259865283966064,0.03543245792388916,0.8992203286273532,0.0015323606952430075,-0.3943918972312668,-0.1893555751462304,0.15270931075024405,-0.7995675893103107,-0.3504617835034688
1780586480359037696,2.7002947330474854,0.2325846552848816,0.02382206730544567,0.19335457682609558,-0.7090203166007996,-0.15221132338047028,-0.6885651350021362,0.02356499433517456,-0.02428707480430603,0.09589850902557373,0.8993901677616395,0.0020927196246881717,-0.39460493162490773,-0.18809570742532816,0.15280529000368104,-0.8000332117157866,-0.34761948825713285
1780586480369072384,2.710329532623291,0.290204793214798,0.06605874001979828,0.19212579727172852,-0.7090018391609192,-0.1526295691728592,-0.6884916424751282,-0.02381676435470581,-0.040760308504104614,0.1295468807220459,0.8996608308510881,0.0029287825408123767,-0.394646187804333,-0.18669855682287295,0.15322847345336943,-0.8000735421188541,-0.3443387187799357
1780586480379107584,2.720364570617676,0.44727057218551636,0.08662407100200653,0.17051930725574493,-0.7087042331695557,-0.15380863845348358,-0.6885355710983276,-0.06255125999450684,-0.03834529221057892,0.14394938945770264,0.8999891239125183,0.004261755586556471,-0.3946061802615985,-0.1851688824472336,0.15442163090275215,-0.7998317993906154,-0.3404484487980732
1780586480389142528,2.7303996086120605,0.7035103440284729,0.03734200447797775,0.1799388974905014,-0.7085326910018921,-0.15655362606048584,-0.688093364238739,-0.06771242618560791,-0.024705514311790466,0.08820933103561401,0.9002567960491928,0.006570823317646684,-0.3948545936513442,-0.18326084293823136,0.15720028220988383,-0.8000319345630479,-0.3350636041632314
1780586480399176704,2.740433692932129,0.9705740213394165,-0.0074317255057394505,0.20006148517131805,-0.7087268233299255,-0.16099001467227936,-0.6868686676025391,-0.05219846963882446,-0.020208105444908142,0.0066318511962890625,0.9004293977407511,0.010004341910125222,-0.3955573168847571,-0.18072426574005682,0.16169367393298417,-0.8010591394187923,-0.32756777144045396
1780586480409211648,2.7504687309265137,1.1984678506851196,-0.0306912399828434,0.20518380403518677,-0.7092223763465881,-0.16699597239494324,-0.6849204301834106,-0.039160192012786865,-0.01951219141483307,-0.06062394380569458,0.9005006346736587,0.01447423743255736,-0.3966488022466472,-0.17764815505198187,0.16778206910646645,-0.8028278298079634,-0.3181978880436377
1780586480419246336,2.7605035305023193,1.44822096824646,-0.01280105859041214,0.20744562149047852,-0.709727942943573,-0.17458046972751617,-0.6825012564659119,-0.0389445424079895,-0.019221410155296326,-0.06154787540435791,0.9005263717708146,0.02000995231510785,-0.39793088049422815,-0.17407732591669098,0.17547967542609877,-0.804951871989194,-0.3070404198686897
1780586480429281536,2.770538568496704,1.754730224609375,0.0014095702208578587,0.17581526935100555,-0.7101007103919983,-0.18419387936592102,-0.6795803904533386,-0.049832701683044434,-0.029581770300865173,-0.0608522891998291,0.9004951838769192,0.02688260795498715,-0.3993583806000087,-0.16999587533021138,0.1852516391541252,-0.8073567311989075,-0.29385612096694197
1780586480439315456,2.7805726528167725,1.7622464895248413,0.055470675230026245,0.13980665802955627,-0.7101884484291077,-0.1951131969690323,-0.6764341592788696,-0.06309646368026733,-0.04206942021846771,-0.10599076747894287,0.9004158903194212,0.03458501732640348,-0.4007328210985388,-0.1657356181560718,0.19637286910798699,-0.8097361703048953,-0.27968064913967844
1780586480449350656,2.7906076908111572,1.7119319438934326,0.016126731410622597,0.12374594062566757,-0.7101693153381348,-0.20605459809303284,-0.6732021570205688,-0.061849117279052734,-0.022842496633529663,-0.10064733028411865,0.9002715553875285,0.04228218739185336,-0.4020088719541179,-0.1615930653597781,0.20754130561140455,-0.8121142891746526,-0.26571040026222165
1780586480459385600,2.800642728805542,1.4715204238891602,-0.05651511624455452,0.07239912450313568,-0.7105222344398499,-0.21611014008522034,-0.6696676015853882,-0.043734967708587646,-0.04383857548236847,-0.09511816501617432,0.8999427094493785,0.04928213567866591,-0.40340733421577185,-0.1579147618105246,0.21782869940907512,-0.8149902609831676,-0.2530766062618326
1780586480469420544,2.8106775283813477,1.0737667083740234,-0.0809008777141571,0.028577078133821487,-0.7111047506332397,-0.22433152794837952,-0.6663373708724976,-0.038178086280822754,-0.06404432654380798,-0.04223501682281494,0.8995039777935118,0.05490024703806153,-0.40474346594053134,-0.15511745001894497,0.22625702887599564,-0.817887086395508,-0.2431411641472564
1780586480479455488,2.8207125663757324,0.8280906081199646,-0.07931603491306305,0.0013553116004914045,-0.711657702922821,-0.23050205409526825,-0.6636356115341187,-0.07282716035842896,-0.06278711557388306,0.017731070518493652,0.8990854370112159,0.05904611256300233,-0.40582725465065006,-0.15317731840956658,0.23259360611822955,-0.8203017032654834,-0.2359944857560904
1780586480489489664,2.830746650695801,0.7131088972091675,-0.06795258820056915,-0.016933947801589966,-0.7121460437774658,-0.23563511669635773,-0.6613048911094666,-0.09895020723342896,-0.08481469750404358,0.029301166534423828,0.8986923536088447,0.062451178914474006,-0.40675225373308044,-0.15167258020403038,0.2378720401414099,-0.8223983249213328,-0.2302659204777061
1780586480499524608,2.8407816886901855,0.8615362048149109,-0.03310912847518921,-0.007919413037598133,-0.7124512195587158,-0.24081213772296906,-0.659107506275177,-0.08672785758972168,-0.08426111936569214,0.04568898677825928,0.8983271501394365,0.06588666695935368,-0.40756003947250985,-0.15020679105118048,0.24320252356105335,-0.8242713447677928,-0.22460196661593393
1780586480509560832,2.850817918777466,1.2275750637054443,0.021962115541100502,0.03604964166879654,-0.7125185132026672,-0.24757830798625946,-0.6565228700637817,-0.06275004148483276,-0.055018723011016846,0.09506052732467651,0.8979724317324352,0.07054467755477904,-0.4083650321902934,-0.14800968963683547,0.25017995372309104,-0.8262766926110142,-0.21658053316846393
1780586480519595776,2.8608529567718506,1.6063998937606812,0.13579998910427094,0.050824325531721115,-0.7120938301086426,-0.25662386417388916,-0.6535033583641052,-0.03795194625854492,-0.02378690242767334,0.11083978414535522,0.8976400335616291,0.07691430073886536,-0.4090629676805651,-0.14489352710629647,0.2595274580323221,-0.8282765136128903,-0.20547441584295317
1780586480529630720,2.8708877563476562,1.8220815658569336,0.20851068198680878,0.0769459456205368,-0.7111232280731201,-0.26741546392440796,-0.6502251625061035,-0.04046368598937988,-0.03100067377090454,0.14499139785766602,0.8973504957000518,0.08466278999054169,-0.40953586900397904,-0.14097796797805118,0.27070980867751593,-0.8301020118914091,-0.19178367380270314
1780586480539664640,2.8809218406677246,1.838857889175415,0.25002697110176086,0.06393560022115707,-0.7098140120506287,-0.27901455760002136,-0.6467726826667786,-0.03949934244155884,-0.10897067189216614,0.18379062414169312,0.8970483412422439,0.09305990739053761,-0.4098213105283075,-0.13671333290803797,0.28276774769303453,-0.8318352832157034,-0.17691156980474174
1780586480549699840,2.8909568786621094,1.6283349990844727,0.3148139715194702,-0.010554344393312931,-0.7080769538879395,-0.28999724984169006,-0.6438390612602234,-0.03415632247924805,-0.15473541617393494,0.1900731921195984,0.8968038031461243,0.10096289350170407,-0.4097401248280028,-0.13290061024267358,0.29422395277208646,-0.8328786401740164,-0.16334821491397414
1780586480559734784,2.900991916656494,1.5635597705841064,0.24697817862033844,-0.09269236028194427,-0.7060353755950928,-0.30059510469436646,-0.6412149667739868,-0.03282570838928223,-0.14737242460250854,0.12395727634429932,0.8965383659079526,0.10840169962662762,-0.409440575130207,-0.1297166846636548,0.30531656344517827,-0.8334741798121642,-0.15137544395001987
1780586480569769984,2.911026954650879,1.3896719217300415,0.18508338928222656,-0.17906692624092102,-0.7043059468269348,-0.31121373176574707,-0.638043224811554,0.00585019588470459,-0.10425254702568054,-0.057467639446258545,0.8960188048305335,0.11555710637616562,-0.4094202633657744,-0.1271689058857519,0.316469924141847,-0.8347214099445597,-0.1406963094679982
1780586480579803648,2.921060800552368,0.9779666662216187,0.2347087413072586,-0.10780473053455353,-0.7024188041687012,-0.3199461102485657,-0.6358006000518799,0.05677366256713867,-0.017074763774871826,-0.09636187553405762,0.8956632307789408,0.12139958632023937,-0.40909882828413047,-0.12525069671843647,0.3256726152779035,-0.8351383371299033,-0.13235922565972594
1780586480589838848,2.931095838546753,0.5449745059013367,0.19422335922718048,-0.05665259808301926,-0.7007858157157898,-0.3251780867576599,-0.634947657585144,0.0714828372001648,-0.0173511803150177,-0.017167210578918457,0.895667202923955,0.12520193122119308,-0.40847355436535404,-0.12350808108823963,0.33120005414392273,-0.8346482029361846,-0.1261318478316925
1780586480599873792,2.9411308765411377,0.4715658128261566,0.15655988454818726,-0.05349355563521385,-0.699494481086731,-0.328637957572937,-0.634590208530426,0.04467880725860596,-0.0470791757106781,0.03350067138671875,0.8956886009416615,0.12760437473478983,-0.407948562895508,-0.12262624406003762,0.3348610785324037,-0.8340106279474501,-0.12266119619296466
1780586480609908736,2.9511659145355225,0.5678989887237549,0.2348562777042389,-0.10112418979406357,-0.6980336904525757,-0.33253195881843567,-0.6341699957847595,0.008916258811950684,0.04147055745124817,0.01928657293319702,0.8956914691659412,0.13025794523645415,-0.40736699742443716,-0.12174538545690913,0.33898705747642016,-0.8332998725348402,-0.11900402809646912
1780586480619943936,2.9612009525299072,0.45936906337738037,0.3195631802082062,-0.13889341056346893,-0.6957896947860718,-0.3367237448692322,-0.6344240307807922,-0.024486243724822998,0.16703075170516968,-0.014455974102020264,0.8958562870616686,0.133031328219749,-0.40631349298483393,-0.12105164231460865,0.3434352699210217,-0.8314976540488622,-0.11579010808877707
1780586480629977600,2.9712347984313965,0.06823059171438217,0.2338578701019287,-0.13480545580387115,-0.6935326457023621,-0.3395327627658844,-0.6353975534439087,-0.02617865800857544,0.1345767080783844,-0.03676736354827881,0.8961496893002756,0.1347870351217548,-0.40513415714689555,-0.1208908695625732,0.3464201035670205,-0.8291160901003113,-0.11449582324230868
1780586480640012800,2.9812698364257812,-0.49372008442878723,0.1492709368467331,-0.16172122955322266,-0.6917724609375,-0.3391038477420807,-0.6375417113304138,0.0195159912109375,0.01642623543739319,-0.030625343322753906,0.8966123361480081,0.13417937679389744,-0.40401117944785114,-0.12189030559003818,0.3459641536311052,-0.8261715974709286,-0.11736400349761807
1780586480650047744,2.991304874420166,-0.875206708908081,0.07212208956480026,-0.1904575377702713,-0.6904770731925964,-0.3358876407146454,-0.6406410336494446,0.043885886669158936,-0.018482476472854614,-0.0003502368927001953,0.8971859318106751,0.1314907391072449,-0.4029760334546765,-0.12400781361324296,0.34254745896193395,-0.8228199582396826,-0.12404720548495934
1780586480660082944,3.001339912414551,-0.9498684406280518,0.09618321806192398,-0.2057880163192749,-0.6893175840377808,-0.3312632739543915,-0.644287109375,0.04481691122055054,0.02089950442314148,-0.0138702392578125,0.8978206331562647,0.12774809312808263,-0.4019164964969517,-0.1267347034073036,0.3376421399954581,-0.8191513448643527,-0.13274441277107452
1780586480670116608,3.01137375831604,-0.824165940284729,0.1680840402841568,-0.2072676718235016,-0.6877583861351013,-0.32684653997421265,-0.6481972336769104,0.02746480703353882,0.11368125677108765,-0.014705538749694824,0.8985282534492477,0.1241852173996264,-0.4005988033756274,-0.12940463866801713,0.3329649199271524,-0.8150021257816411,-0.14125194172228703
1780586480680151808,3.021408796310425,-0.5544990301132202,0.17800737917423248,-0.22109293937683105,-0.6858970522880554,-0.3238302171230316,-0.6516741514205933,0.02061384916305542,0.1688162088394165,-0.005979597568511963,0.899169917176013,0.1216240928850617,-0.3992123658700837,-0.13164518356042948,0.32977506421440617,-0.8109784461172019,-0.14812895245074809
1780586480690186752,3.0314438343048096,-0.3326209485530853,0.17025384306907654,-0.21767078340053558,-0.6840317845344543,-0.32243314385414124,-0.6543219685554504,0.043101727962493896,0.16992157697677612,-0.047399163246154785,0.899647569776361,0.12018675160309597,-0.39798762749478744,-0.1333982572955954,0.3282987966523083,-0.8075932905345656,-0.15309933733006661
1780586480700221696,3.0414788722991943,-0.22855474054813385,0.15248417854309082,-0.2522074580192566,-0.6821863055229187,-0.32221880555152893,-0.6563512682914734,0.0714685320854187,0.15386858582496643,-0.06700688600540161,0.8999851251500698,0.119512030216414,-0.39691466379030893,-0.1349165218959562,0.3280723519467211,-0.8046967150629005,-0.15695396909688134
1780586480710256896,3.051513910293579,-0.12138407677412033,0.09089723974466324,-0.24824680387973785,-0.6805380582809448,-0.3228085935115814,-0.6577709913253784,0.08074557781219482,0.13634619116783142,-0.07878601551055908,0.9001683563859609,0.1193244029778798,-0.3960759882113769,-0.1363178791238197,0.3286954365933356,-0.8024083233316596,-0.1601134764555626
1780586480720290560,3.0615477561950684,-0.12534047663211823,0.04203915596008301,-0.23882798850536346,-0.6793343424797058,-0.3237363398075104,-0.6585587859153748,0.07932829856872559,0.11621680855751038,-0.11744219064712524,0.9001926008965329,0.11935122777623497,-0.39557033943870823,-0.13759647522026056,0.3296758514486137,-0.8009254999577887,-0.1627461981683857
1780586480730325760,3.071582794189453,-0.2911483347415924,0.01893410086631775,-0.25185298919677734,-0.6783434152603149,-0.32400065660476685,-0.6594496369361877,0.07739126682281494,0.12285932898521423,-0.11716169118881226,0.9002078851467555,0.11889838484972891,-0.39514346831648733,-0.13910661927392542,0.3299552272547364,-0.7995203357430851,-0.16617227251350272
1780586480740360704,3.081617832183838,-0.42973020672798157,-0.02864406816661358,-0.22796683013439178,-0.6775815486907959,-0.32324081659317017,-0.6606048345565796,0.0659177303314209,0.13105636835098267,-0.06934511661529541,0.9002463172237665,0.11773413500496957,-0.394761027200704,-0.14092242530018562,0.3291521453639431,-0.7980838715379889,-0.1707248427769569
1780586480750395648,3.0916528701782227,-0.5268495678901672,-0.07367519289255142,-0.18644174933433533,-0.6772441267967224,-0.32144609093666077,-0.6618253588676453,0.05161851644515991,0.10461869835853577,-0.07535719871520996,0.9002845401837346,0.11593394310269055,-0.3945207569048803,-0.1428302765567581,0.327256231730549,-0.796912169390885,-0.17589150913929893
1780586480760430848,3.1016879081726074,-0.6006819605827332,-0.11238237470388412,-0.15351203083992004,-0.6773243546485901,-0.31880316138267517,-0.663020670413971,0.05034065246582031,0.08223086595535278,-0.07881587743759155,0.9003052241140971,0.11362312547017338,-0.3944355996232739,-0.14477922675656557,0.3244664792599297,-0.796069368240985,-0.1814682753167073
1780586480770464768,3.1117217540740967,-0.5339815020561218,-0.11758565902709961,-0.12921202182769775,-0.6776431798934937,-0.3159232437610626,-0.6640724539756775,0.05361980199813843,0.08250957727432251,-0.04157024621963501,0.9003001941748637,0.11121730697710441,-0.39445467914996885,-0.14661422229502602,0.32142959209899497,-0.7955122846699133,-0.18685277368298292
1780586480780499712,3.1217567920684814,-0.3786803185939789,-0.0626521036028862,-0.08514895290136337,-0.6779422760009766,-0.3136233687400818,-0.6648567914962769,0.04384809732437134,0.07935521006584167,-0.03979402780532837,0.9002801212011506,0.10929922385388385,-0.39449369405227097,-0.14806768164438072,0.3190065318697745,-0.7951427869521307,-0.19111393533846846
1780586480790534656,3.131791830062866,-0.2184608280658722,0.010233554989099503,-0.04868016019463539,-0.6778842210769653,-0.312002032995224,-0.6656783223152161,0.030575931072235107,0.0781610906124115,-0.030076682567596436,0.9003579816003292,0.10801810731065162,-0.3943259144299308,-0.14897842167983777,0.3172995298935535,-0.794482649477865,-0.19391131864693784
1780586480800569856,3.141826868057251,0.10971464961767197,-0.02321401610970497,-0.07744336128234863,-0.6776933670043945,-0.3120402693748474,-0.6658547520637512,0.04701709747314453,0.09654039144515991,-0.012917160987854004,0.90034364067235,0.10788612252797847,-0.3942501728223546,-0.14936086741417967,0.31733976816721776,-0.7942093582470584,-0.1947772897587289
1780586480810604800,3.1518619060516357,0.44546177983283997,0.055776406079530716,-0.08415160328149796,-0.6773648262023926,-0.31439462304115295,-0.6650810837745667,0.06641823053359985,0.14508306980133057,-0.07182687520980835,0.900153864207165,0.10926452334694517,-0.3943611611413393,-0.14920947420159678,0.3198188577553589,-0.7945481946979371,-0.193392295898529
1780586480820638720,3.161895751953125,0.8158928155899048,0.09671611338853836,-0.07272637635469437,-0.6765698194503784,-0.3192440867424011,-0.6635785102844238,0.03966802358627319,0.2672116160392761,-0.1258348822593689,0.8999026176955303,0.11241926289129955,-0.3944270108325186,-0.14820396678115003,0.3249317132587147,-0.7950918261174919,-0.18901096943705523
1780586480830673664,3.1719307899475098,0.6383244395256042,0.0425436906516552,-0.14876601099967957,-0.6756980419158936,-0.32500728964805603,-0.6616664528846741,0.032707929611206055,0.29864010214805603,-0.14415019750595093,0.8995438623583608,0.11610459013908254,-0.3945712916167984,-0.14715330806436056,0.33101943080839014,-0.7958897413276336,-0.18409458564918016
1780586480840708608,3.1819658279418945,0.2723323404788971,-0.11906185001134872,-0.18205100297927856,-0.6753527522087097,-0.3292502164840698,-0.6599189639091492,0.04624813795089722,0.22445285320281982,-0.1133049726486206,0.8990805791640076,0.11852079148837641,-0.39495993905643667,-0.14701584735534848,0.3355094149573314,-0.7969562067030611,-0.18181828918654538
1780586480850743808,3.1920008659362793,-0.2916351854801178,-0.2996835708618164,-0.22654682397842407,-0.6760748028755188,-0.3305710554122925,-0.6585177779197693,0.0790594220161438,0.12543189525604248,-0.132116436958313,0.8985224118912896,0.11874358886275373,-0.39577908615254165,-0.14804154829776361,0.33690857630262316,-0.7985527594800151,-0.18331818772444014
1780586480860777728,3.2020349502563477,-0.7158817648887634,-0.42220598459243774,-0.27461662888526917,-0.6776575446128845,-0.32880303263664246,-0.6577755808830261,0.1177973747253418,0.06268975138664246,-0.15213042497634888,0.8979146871546314,0.11658973858235364,-0.39688667847428094,-0.15045575564113173,0.3350358719658295,-0.8002850917084825,-0.18923337644482008
1780586480870812928,3.2120699882507324,-0.7587711811065674,-0.44131261110305786,-0.25367459654808044,-0.6796715259552002,-0.32556602358818054,-0.6573076844215393,0.1076958179473877,0.03992149233818054,-0.1780347228050232,0.8972817133580475,0.11334371256155372,-0.39811977828792877,-0.15342559616570767,0.3316102897196089,-0.8021237522251404,-0.19701982566352091
1780586480880847616,3.222104787826538,-0.5252931714057922,-0.42230522632598877,-0.20214827358722687,-0.681774377822876,-0.3227955400943756,-0.6564958691596985,0.08459115028381348,0.02579846978187561,-0.1902448534965515,0.8966094658360465,0.11050861768564162,-0.39942446582168795,-0.15601120060459675,0.3286816437055981,-0.8042848278764194,-0.20371877639313013
1780586480890882816,3.232139825820923,-0.023951532319188118,-0.4193539023399353,-0.20251233875751495,-0.6839251518249512,-0.32243263721466064,-0.6544337272644043,0.07136112451553345,-0.022202372550964355,-0.1648259162902832,0.895742319107547,0.10938861922945002,-0.40102027524311123,-0.15767858373585442,0.3282982675759754,-0.8074301218406048,-0.20721197697978155
1780586480900917760,3.2421748638153076,0.07651009410619736,-0.3296855390071869,-0.12282602488994598,-0.6858068108558655,-0.3237837851047516,-0.6517921686172485,0.06478935480117798,-0.11687478423118591,-0.18074262142181396,0.8948465056671427,0.10956923520098544,-0.40261456709287524,-0.15857409964186556,0.32972597761757605,-0.8108222827533007,-0.20820665905203214
1780586480910951936,3.252208948135376,0.2913385033607483,-0.2514727711677551,-0.07230905443429947,-0.6874284744262695,-0.325614333152771,-0.6491666436195374,0.04477411508560181,-0.15592250227928162,0.04670393466949463,0.8940765401621471,0.11034404974389292,-0.4040307800948196,-0.15877786256319376,0.33166140485438195,-0.814016712857588,-0.20746475263902828
1780586480920986880,3.2622439861297607,0.3679262399673462,-0.14406254887580872,-0.04998217895627022,-0.6884660124778748,-0.3282349705696106,-0.6467428803443909,0.02312183380126953,-0.0813567042350769,0.056792259216308594,0.8934549718902681,0.11183816382725226,-0.4051182520724299,-0.15846021010388242,0.3344344157460191,-0.8166364281765037,-0.20527034845655345
1780586480931021568,3.2722787857055664,0.21718092262744904,-0.1154996007680893,-0.022162798792123795,-0.6891723871231079,-0.3305619955062866,-0.644802451133728,0.0018097162246704102,0.003932356834411621,0.013927817344665527,0.8929838519736633,0.11324156613034217,-0.4059250308550343,-0.15805408172546243,0.33689898377303634,-0.818647385614157,-0.20307491878442935
1780586480941056768,3.282313823699951,-0.48826462030410767,-0.15095694363117218,-0.007322332356125116,-0.6899510622024536,-0.32994455099105835,-0.6442857384681702,-0.011632800102233887,-0.04864126443862915,-0.008714139461517334,0.8927796874839798,0.11268515747239417,-0.40639780298304734,-0.1583897805856407,0.3362448426155724,-0.8196105846972908,-0.20397968893852642
1780586480951091712,3.292348861694336,-1.2337628602981567,-0.26520469784736633,-0.026568731293082237,-0.6912193894386292,-0.32438963651657104,-0.6457454562187195,-0.01329416036605835,-0.12476807832717896,0.000558018684387207,0.8929154750489358,0.10883338303573631,-0.4065496040107455,-0.1599209732642664,0.3303664042135686,-0.8193978857147705,-0.20990526626727507
1780586480961125888,3.3023829460144043,-1.767477035522461,-0.37351250648498535,-0.048219699412584305,-0.6931827068328857,-0.3146916329860687,-0.6484342217445374,0.0014407634735107422,-0.15305128693580627,-0.027316570281982422,0.8931151116463688,0.10196384565492746,-0.4066771046704562,-0.16298033159276323,0.32013177305196255,-0.818739972506498,-0.22112873147187778
1780586480971160832,3.312417984008789,-1.9142025709152222,-0.4266148805618286,-0.13322114944458008,-0.695558488368988,-0.30329614877700806,-0.6513139605522156,0.0007953047752380371,-0.14396947622299194,-0.09271979331970215,0.8931854681884828,0.09372344558019746,-0.4068893262347467,-0.16696347545586102,0.3081498457303154,-0.818236160256137,-0.2351222944099768
1780586480981195776,3.3224527835845947,-1.9426840543746948,-0.4305942952632904,-0.11832794547080994,-0.6979739665985107,-0.2914617657661438,-0.654127299785614,-0.019891023635864258,-0.1333734393119812,-0.1323564648628235,0.8931436776356309,0.08507495155732056,-0.40706093943236205,-0.17134220973914288,0.29575458093610424,-0.8178153365853863,-0.2501540169449052
1780586480991230720,3.3324878215789795,-1.6504356861114502,-0.39280828833580017,-0.11190307140350342,-0.700389564037323,-0.280317485332489,-0.6564119458198547,-0.022510826587677002,-0.09507924318313599,-0.042593181133270264,0.8929318370217507,0.07681022406951307,-0.4073011369151652,-0.17572365351988922,0.2841248300441878,-0.8177995283236879,-0.26482737225423053
1780586481001265664,3.3425228595733643,-1.2527724504470825,-0.2859903872013092,-0.09190113097429276,-0.7023590207099915,-0.2714855968952179,-0.6580177545547485,-0.039279162883758545,-0.058943480253219604,-0.037752509117126465,0.8926737127261987,0.070220368253401,-0.4075048622113259,-0.17928355036979954,0.2749362592035835,-0.8179814703251195,-0.27662496678575194
1780586481011299840,3.3525569438934326,-0.9589990973472595,-0.18259502947330475,-0.08755618333816528,-0.7036569118499756,-0.2648104131221771,-0.6593499183654785,-0.06665247678756714,-0.03365147113800049,-0.001065671443939209,0.8925837064728896,0.06544702584266725,-0.4074821633778501,-0.18157423733963837,0.2680073225853908,-0.8178934873681627,-0.2846576293711393
1780586481021334784,3.3625919818878174,-0.772163450717926,-0.14957448840141296,-0.0846080631017685,-0.704461932182312,-0.25979703664779663,-0.6604838371276855,-0.06177341938018799,-0.02906709909439087,0.03606367111206055,0.8925370207656431,0.06185595142780982,-0.4073474275713817,-0.18335647805547653,0.2628120124464603,-0.8176066975806661,-0.2908404553404716
1780586481031369728,3.372626781463623,-0.748420000076294,-0.14959418773651123,-0.040931425988674164,-0.7052868008613586,-0.25518739223480225,-0.6614000201225281,-0.04158514738082886,-0.07417353987693787,0.019951045513153076,0.892491123583194,0.058624578890080895,-0.4072630040444189,-0.18482352574318933,0.2580415164502433,-0.817498966614652,-0.2961260338741377
