time,seconds_elapsed,rotationRateX,rotationRateY,rotationRateZ,gravityX,gravityY,gravityZ,accelerationX,accelerationY,accelerationZ,quaternionW,quaternionX,quaternionY,quaternionZ,pitch,roll,yaw
1781515644192352768,0.07078075408935547,0.053318340331315994,-0.06562718749046326,-0.08709041029214859,-0.19745296239852905,-0.8474987745285034,-0.4927048981189728,0.0009655356407165527,0.016138911247253418,0.015745699405670166,0.3935903711737905,0.12173605969034071,-0.48870019050762653,-0.7690507516539933,1.011255219983438,-0.3811553308442458,-1.9827213049898054
1781515644202386688,0.08081459999084473,0.17027398943901062,-0.11760183423757553,-0.04994357004761696,-0.19731363654136658,-0.8481965661048889,-0.49155867099761963,0.018678992986679077,-0.021768033504486084,-0.03233659267425537,0.3930443159987406,0.12178740355591243,-0.4892734389394968,-0.7689573988014237,1.012571183211389,-0.38171618053327233,-1.9831015834397545
1781515644212420608,0.09084868431091309,0.21778425574302673,-0.15828056633472443,-0.005434693302959204,-0.19774910807609558,-0.8492156267166138,-0.48962029814720154,0.026301369071006775,-0.09100043773651123,-0.06987369060516357,0.3924624833929321,0.12170250123114462,-0.4902839481113938,-0.7686242973938762,1.014498118323231,-0.38384894401148917,-1.982253610894445
1781515644222454784,0.10088276863098145,0.2726517617702484,-0.16786953806877136,0.05987054482102394,-0.19878210127353668,-0.8503673672676086,-0.4871971011161804,0.008703365921974182,-0.030873477458953857,-0.04266434907913208,0.3920022670096787,0.12148167386598675,-0.49157262643164085,-0.7680708269730642,1.016683072008953,-0.3873938546724666,-1.980044546409269
1781515644232488704,0.1109166145324707,0.24760259687900543,-0.1891455352306366,0.10247499495744705,-0.20034334063529968,-0.8515064120292664,-0.4845609962940216,0.017619341611862183,0.002583742141723633,-0.0060090720653533936,0.3917178538084262,0.12112355095953611,-0.49299957722596727,-0.7673575323205499,1.018851535446906,-0.3920499615173568,-1.9766588027137493
1781515644242522624,0.12095069885253906,0.1859610676765442,-0.20675115287303925,0.13207921385765076,-0.20231543481349945,-0.8523114323616028,-0.4823213219642639,0.028273671865463257,-0.019118010997772217,0.001501619815826416,0.3915488076213703,0.12048899335689303,-0.4942891233993314,-0.7667139932473995,1.0203887548401904,-0.39717052265357694,-1.9729903382802285
1781515644252556800,0.13098478317260742,0.10871368646621704,-0.19383323192596436,0.15825702250003815,-0.2045448124408722,-0.8527188301086426,-0.4806579649448395,0.011948347091674805,-0.008075296878814697,0.01383054256439209,0.3915204658525151,0.11963431465400709,-0.4953369006992553,-0.766185894323914,1.0211682406529978,-0.40233785436475655,-1.969312336001616
1781515644262589696,0.14101767539978027,0.006301030516624451,-0.17930768430233002,0.17512495815753937,-0.20685434341430664,-0.8526619076728821,-0.479769766330719,-0.01036977767944336,0.00174027681350708,0.037570059299468994,0.39165702675194725,0.1186242149472213,-0.496027626067698,-0.7658262142368716,1.0210592758739432,-0.4070710167035321,-1.965951486977776
1781515644272623872,0.15105175971984863,-0.04684927314519882,-0.1704433560371399,0.174126535654068,-0.20919442176818848,-0.8521633744239807,-0.479640930891037,0.00448252260684967,-0.004159867763519287,0.0307883620262146,0.39190465060483093,0.1174578789225744,-0.49637000555230704,-0.7656574506571341,1.0201057517840493,-0.41127507660381085,-1.9630947115502362
1781515644282657536,0.1610856056213379,0.044484902173280716,-0.18146124482154846,0.2209118902683258,-0.21170248091220856,-0.8516874313354492,-0.4793856739997864,0.03219808638095856,-0.0008058547973632812,0.003952324390411377,0.39221759299638853,0.1162690652398265,-0.4967782858111233,-0.765413772847767,1.0191968958638804,-0.41585662713979465,-1.9597972663853709
1781515644292691712,0.17111968994140625,0.16424939036369324,-0.2123352736234665,0.2616254985332489,-0.21472492814064026,-0.8516920804977417,-0.47803109884262085,0.046466290950775146,-0.037559568881988525,-0.03164294362068176,0.3926009530162891,0.11512544484902631,-0.4977254061359279,-0.7647744746229017,1.0192057898423939,-0.42217689239982825,-1.9546822816746507
1781515644302725888,0.1811537742614746,0.19342803955078125,-0.24139247834682465,0.30739113688468933,-0.2182430475950241,-0.851942777633667,-0.4759867489337921,0.0383877158164978,-0.09443777799606323,-0.05538526177406311,0.3930158320139234,0.11389856226100974,-0.4990328036440454,-0.7638925822134299,1.019684371683773,-0.4299054256072304,-1.9482942361838602
1781515644312759552,0.19118762016296387,0.21376341581344604,-0.24104653298854828,0.34659790992736816,-0.222179114818573,-0.8521870970726013,-0.4737229645252228,0.026820868253707886,-0.024140357971191406,-0.015443295240402222,0.3935440215679748,0.11255669131885988,-0.5004692897789929,-0.762879062392431,1.0201511347464967,-0.4385467613439159,-1.940993969195432
1781515644322793728,0.20122170448303223,0.26192641258239746,-0.2692243754863739,0.3679889738559723,-0.22644183039665222,-0.8524996042251587,-0.47113528847694397,0.062455639243125916,0.010824859142303467,-0.03370174765586853,0.3941435784820879,0.11115349558272138,-0.5020729648505304,-0.7617207113080589,1.0207486955490137,-0.448032020220334,-1.9328484803488073
1781515644332826624,0.21125459671020508,0.27052628993988037,-0.30545774102211,0.40909111499786377,-0.23111078143119812,-0.8528732061386108,-0.468182772397995,0.08082698285579681,-0.00419771671295166,-0.04544329643249512,0.394745767989493,0.10960656639246855,-0.5038799562531123,-0.7604388114203701,1.0214637897971375,-0.4585415904941692,-1.9239143650558554
1781515644342860800,0.22128868103027344,0.2706400156021118,-0.3366299271583557,0.4586552083492279,-0.2363458126783371,-0.8531215786933899,-0.4651066064834595,0.07130676507949829,-0.04179108142852783,-0.01350054144859314,0.3954362459963143,0.1078097603674996,-0.5057902230986429,-0.7590674704654522,1.0219396867021027,-0.4701495529950791,-1.9141092963248154
1781515644352894720,0.2313227653503418,0.28008463978767395,-0.36320188641548157,0.5313935875892639,-0.24220719933509827,-0.8531979918479919,-0.4619404375553131,0.06474746763706207,-0.04826074838638306,-0.007618248462677002,0.39627946137940534,0.10575849870024233,-0.5077843323235728,-0.7575835752519365,1.0220861401046728,-0.48291819070587266,-1.9032671985129896
1781515644362928640,0.24135661125183105,0.23648656904697418,-0.4066140651702881,0.6239988803863525,-0.2489023506641388,-0.8529847264289856,-0.45876437425613403,0.061814337968826294,-0.036602675914764404,-0.0007693171501159668,0.39734123320052256,0.10334867953018688,-0.5098400370443231,-0.7559776620842974,1.0216774483257485,-0.49710501702657256,-1.8911651517283758
1781515644372962816,0.2513906955718994,0.259568989276886,-0.4761979281902313,0.6921696662902832,-0.25659024715423584,-0.8524045944213867,-0.455595999956131,0.056806981563568115,-0.074002206325531,-0.04127594828605652,0.3985536461058285,0.10043007104492933,-0.5119724633611576,-0.7542896553502961,1.020566951052428,-0.512918705954044,-1.8779225760536722
1781515644382996736,0.2614247798919678,0.267042338848114,-0.5131731629371643,0.7659350037574768,-0.26513588428497314,-0.8516976237297058,-0.4520111680030823,0.050994038581848145,-0.1339743733406067,-0.00012201070785522461,0.3999691088944314,0.0972291463572049,-0.5143354035243296,-0.7523498554187787,1.0192163850930298,-0.5304854499693976,-1.8630256178329736
1781515644393030656,0.27145862579345703,0.26253601908683777,-0.5464618802070618,0.7858820557594299,-0.2740706205368042,-0.8508275151252747,-0.4483054578304291,0.07332602143287659,-0.043429017066955566,-0.015149742364883423,0.4013656530762518,0.09379098484884088,-0.5167693179123691,-0.7503721272360315,1.0175582315459646,-0.5487218441740881,-1.84782808718826
1781515644403063808,0.281491756439209,0.28671911358833313,-0.5718170404434204,0.8651992678642273,-0.28360089659690857,-0.849740743637085,-0.44442227482795715,0.05703842639923096,-0.02750229835510254,-0.009862363338470459,0.40288465673257595,0.09009824229316754,-0.519298728744542,-0.7482613840529311,1.0154933882772825,-0.5679882027929585,-1.8317631623997284
1781515644413097728,0.29152560234069824,0.3008303940296173,-0.6344956159591675,0.9551738500595093,-0.2940423786640167,-0.8483994007110596,-0.44017890095710754,0.054982990026474,-0.10532063245773315,-0.021124809980392456,0.40460482434067974,0.08605655473108395,-0.5220199461435173,-0.745911721955495,1.0129542345043983,-0.588929656287688,-1.8142024256717306
1781515644423131648,0.3015596866607666,0.2701262831687927,-0.6825409531593323,1.0274782180786133,-0.30536651611328125,-0.8467122912406921,-0.4356943666934967,0.041786253452301025,-0.15859776735305786,-0.03761795163154602,0.4064294610061811,0.08157411921301667,-0.5248794885764672,-0.7434125626451286,1.0097752019567214,-0.6113117906929949,-1.7956597984847722
1781515644433165824,0.31159377098083496,0.2780417203903198,-0.7075504660606384,1.1272141933441162,-0.3175337016582489,-0.844529926776886,-0.43120938539505005,0.015135020017623901,-0.153425395488739,-0.039096951484680176,0.40850311841861137,0.07670147670754755,-0.5277425392369497,-0.7407630637394828,1.0056867856715808,-0.6347267697926579,-1.776204794414136
1781515644443199744,0.3216276168823242,0.26883625984191895,-0.7425015568733215,1.175070881843567,-0.330435574054718,-0.8419508337974548,-0.4265337586402893,0.016241878271102905,-0.1588730812072754,-0.045573145151138306,0.4107582630621603,0.07150134762077844,-0.5306794451496442,-0.7379325990278202,1.0008887815826044,-0.6591224296552267,-1.7559185219834772
1781515644453233664,0.3316617012023926,0.23986585438251495,-0.7469322085380554,1.1817882061004639,-0.34354472160339355,-0.8390405774116516,-0.42188605666160583,0.03362348675727844,-0.07703602313995361,-0.02331957221031189,0.41303404592077925,0.06612254178090048,-0.5335585971992718,-0.7350822109274174,0.9955174161945504,-0.6834039695126632,-1.735929627045805
1781515644463267840,0.34169578552246094,0.21207842230796814,-0.7578325867652893,1.2341909408569336,-0.35682931542396545,-0.8357645869255066,-0.4173370599746704,0.08558911085128784,-0.009099185466766357,-0.053457558155059814,0.41539516352356076,0.06060841546380991,-0.5363376600531343,-0.7321989348578896,0.9895238262757037,-0.7073981292817315,-1.7162349522134934
1781515644473301760,0.3517296314239502,0.1858803778886795,-0.8185824751853943,1.279981017112732,-0.37064093351364136,-0.8319970369338989,-0.4128028452396393,0.12660712003707886,-0.10351932048797607,-0.11513596773147583,0.4178317563729689,0.054743474378875175,-0.5390748863268418,-0.7292585430933377,0.9826977543519195,-0.7316338888891418,-1.696636939356653
1781515644483334656,0.36176276206970215,0.15610677003860474,-0.9076948761940002,1.3277925252914429,-0.3850415050983429,-0.8277201652526855,-0.40819400548934937,0.09909185767173767,-0.19106334447860718,-0.13948974013328552,0.42021901332354245,0.048407935075410954,-0.5418114745638429,-0.7263008536410555,0.9750325297847529,-0.7562190523279805,-1.6774108579664446
1781515644493368576,0.3717966079711914,0.2775873839855194,-0.9394698143005371,1.4022347927093506,-0.4000703990459442,-0.8232182860374451,-0.4028093218803406,0.051056116819381714,-0.14283090829849243,-0.14524060487747192,0.4225845640755061,0.04177427150857736,-0.5448396551931319,-0.7230677374449674,0.9670566674084448,-0.7819868059477934,-1.6574679851311866
1781515644503402752,0.38183069229125977,0.40310269594192505,-0.9870603084564209,1.4980542659759521,-0.41591253876686096,-0.818648636341095,-0.3960193693637848,0.03602972626686096,-0.15971440076828003,-0.1578441858291626,0.4251499577542695,0.03504364295284297,-0.5484179598671177,-0.7192060414199075,0.9590539558411975,-0.8098943030040289,-1.6352168080712846
1781515644513436672,0.3918647766113281,0.4253760576248169,-1.0351839065551758,1.5525801181793213,-0.43239495158195496,-0.8137971758842468,-0.3882896900177002,0.03249254822731018,-0.23277270793914795,-0.10888749361038208,0.4277889253464892,0.028089417543206777,-0.5523279286337373,-0.7149416858398204,0.9506564998867447,-0.8390885493222838,-1.6118666210841786
1781515644523470592,0.4018986225128174,0.4398396909236908,-1.057968258857727,1.5941914319992065,-0.44925248622894287,-0.8085142970085144,-0.38010111451148987,0.02818623185157776,-0.1922944188117981,-0.052653372287750244,0.43043001376020557,0.02088564133223347,-0.5563391282401542,-0.7104791439298475,0.9416230791227924,-0.8685855704287887,-1.5885271842377358
1781515644533504768,0.41193270683288574,0.36266154050827026,-1.0517747402191162,1.6233158111572266,-0.4662714898586273,-0.8026230931282043,-0.3720041513442993,0.02269846200942993,-0.14377278089523315,-0.010503172874450684,0.4331755285133728,0.013493949063864575,-0.5601926788400939,-0.7059469128449282,0.931679851178788,-0.8973815762784582,-1.5659114710251754
1781515644543538688,0.4219667911529541,0.21759968996047974,-1.0845330953598022,1.6254920959472656,-0.4832474887371063,-0.7959591746330261,-0.3645831346511841,0.013780325651168823,-0.14416533708572388,-0.005625605583190918,0.4358921140514635,0.005781745334198573,-0.5636266517476981,-0.7016335735603084,0.9205904668350445,-0.9244571635866,-1.545430112375751
1781515644553571584,0.43199968338012695,0.09289344400167465,-1.1042567491531372,1.6199284791946411,-0.50010746717453,-0.7885264754295349,-0.3579365611076355,-0.0002434849739074707,-0.09611707925796509,-0.027454674243927002,0.438459190180537,-0.002331171174264329,-0.5665918173854744,-0.6976545561912599,0.9084093374987934,-0.9495982466282157,-1.5276197705261532
1781515644563605760,0.4420337677001953,0.032632239162921906,-1.1145192384719849,1.6501071453094482,-0.5169302225112915,-0.7803869247436523,-0.35182300209999084,-0.003547072410583496,-0.06864261627197266,-0.05728042125701904,0.441026428296075,-0.010721156972593997,-0.5691867506369065,-0.6938351590840959,0.8952843760968238,-0.9732091226806747,-1.5116608972292258
1781515644573639680,0.45206761360168457,0.013239631429314613,-1.1827723979949951,1.653113603591919,-0.5337966084480286,-0.7717515230178833,-0.34563106298446655,0.02802872657775879,-0.0765303373336792,-0.10436582565307617,0.4434823458056201,-0.019378670892486103,-0.5716720475368272,-0.6900282316593329,0.8815908376948466,-0.9961835034531364,-1.496866406603301
1781515644583673600,0.46210169792175293,0.017631983384490013,-1.260793685913086,1.6900484561920166,-0.5508557558059692,-0.7627169489860535,-0.3388521373271942,0.04795658588409424,-0.07830172777175903,-0.13174420595169067,0.4457363751017789,-0.028364784378169167,-0.5742554957834601,-0.6861086990047743,0.8675038131110427,-1.0193204919180423,-1.4827007766421065
1781515644593707776,0.4721357822418213,0.05727899447083473,-1.3455623388290405,1.7375047206878662,-0.5682907104492188,-0.7532289624214172,-0.3311976492404938,0.01151275634765625,-0.10692423582077026,-0.1433202028274536,0.44787390724057125,-0.037691078919446536,-0.5770446784655417,-0.6819148412375673,0.8529574121850879,-1.0431227740331481,-1.468539619498154
1781515644603741696,0.48216962814331055,0.07385344058275223,-1.4044721126556396,1.755313515663147,-0.5859450101852417,-0.7433198690414429,-0.32271379232406616,-0.046165645122528076,-0.0766569972038269,-0.08759507536888123,0.44983706717563193,-0.04732979476210502,-0.5800025829126289,-0.6774980508220251,0.8380196440141401,-1.0673714918610118,-1.4546610884997142
1781515644613775616,0.4922037124633789,0.046652715653181076,-1.4160130023956299,1.7513080835342407,-0.6034433841705322,-0.7330567240715027,-0.31382179260253906,-0.05282193422317505,0.03910219669342041,-0.022726088762283325,0.4516832755618966,-0.057079208878147436,-0.5829503142000647,-0.6729734496354756,0.8228052034682393,-1.0912363076500005,-1.4415014225908909
1781515644623808512,0.5022366046905518,-0.07160761207342148,-1.4659690856933594,1.7221318483352661,-0.6205999255180359,-0.7223588824272156,-0.30504679679870605,-0.04010570049285889,0.0487290620803833,0.008904188871383667,0.4533137454142913,-0.06703194323764045,-0.5856477832469791,-0.668603121683815,0.8072074149480895,-1.1139433527640656,-1.4301295969745094
1781515644633842688,0.5122706890106201,-0.21873927116394043,-1.5040589570999146,1.6737751960754395,-0.6372749209403992,-0.7112229466438293,-0.29672005772590637,-0.0658959150314331,0.01848912239074707,0.014874964952468872,0.4545335470601411,-0.07734126387418033,-0.5879271272116924,-0.6646498386801815,0.7912363700087677,-1.1350391953702925,-1.4215619387679095
1781515644643874560,0.5223026275634766,-0.25458088517189026,-1.4987448453903198,1.6736100912094116,-0.6535417437553406,-0.6996709704399109,-0.2886933386325836,-0.049629032611846924,0.04693049192428589,-0.02818596363067627,0.4555825194617659,-0.08781694600861756,-0.5898656795869786,-0.660901898120013,0.7749368573601304,-1.1548354396352924,-1.414812396814744
1781515644653908480,0.5323364734649658,-0.2744385004043579,-1.5538493394851685,1.6283941268920898,-0.6693879961967468,-0.6879337430000305,-0.28047609329223633,-0.0062406063079833984,0.07166177034378052,-0.07549619674682617,0.4564068020718474,-0.09836486273106602,-0.5916809191984229,-0.6572144879800045,0.7586382481035071,-1.1740155029259443,-1.4091799184739664
1781515644663942656,0.5423705577850342,-0.27788248658180237,-1.6242314577102661,1.5656183958053589,-0.6847131252288818,-0.6763110160827637,-0.2716091275215149,-0.013361215591430664,0.09015989303588867,-0.09333533048629761,0.4567927540550009,-0.10897169914217714,-0.5935660016997993,-0.6535633781849655,0.7427430620463776,-1.1931589001401504,-1.4044623039384443
1781515644673976576,0.5524046421051025,-0.24266192317008972,-1.6783860921859741,1.5536576509475708,-0.6996229290962219,-0.6647908091545105,-0.26187944412231445,-0.0247422456741333,0.11130881309509277,-0.10628458857536316,0.4568110294974354,-0.11961822977887805,-0.5956104070300611,-0.6498179645411651,0.727213782571712,-1.2126262423258762,-1.4001552504578918
1781515644684010496,0.5624384880065918,-0.2570427358150482,-1.7406458854675293,1.5181608200073242,-0.7141839265823364,-0.6532641053199768,-0.25137123465538025,-0.03657907247543335,0.07376575469970703,-0.08090421557426453,0.4565408041651181,-0.13032745374490912,-0.5977701425100018,-0.6459537200259702,0.7118876008961861,-1.2323676936505186,-1.3962059918673395
1781515644694043648,0.5724716186523438,-0.2819267809391022,-1.836303949356079,1.4776145219802856,-0.7283275127410889,-0.6417462825775146,-0.24021020531654358,-0.04312634468078613,0.03957337141036987,-0.042703062295913696,0.4558246584816915,-0.14123099092879338,-0.5999572507296513,-0.6421285908615116,0.69677310439972,-1.2522194909445359,-1.3932496333365878
1781515644704077568,0.582505464553833,-0.2985938787460327,-1.9027127027511597,1.439918041229248,-0.7420485019683838,-0.6302899122238159,-0.22825109958648682,-0.06868141889572144,0.03550237417221069,-0.05414329469203949,0.454670577695735,-0.15229764977179389,-0.6022290884344048,-0.6382790569422088,0.6819265751820092,-1.272385434110912,-1.391033053139389
1781515644714111488,0.5925395488739014,-0.3490842282772064,-1.9579663276672363,1.3961457014083862,-0.7552154660224915,-0.6189329028129578,-0.2158048003911972,-0.08882451057434082,0.07517069578170776,-0.0361025333404541,0.45307776905573743,-0.16349575076445155,-0.60445573661908,-0.6345257524214096,0.6673833571798872,-1.2924612114269127,-1.389923098901218
1781515644724145664,0.6025736331939697,-0.3617371618747711,-1.999825119972229,1.352216124534607,-0.7678362727165222,-0.6076755523681641,-0.20287388563156128,-0.07891964912414551,0.08704566955566406,-0.03870326280593872,0.4511501202219308,-0.17474258781881843,-0.606653181193281,-0.6307935389408824,0.6531304478306118,-1.3124842014360325,-1.3895849488956793
1781515644734179584,0.612607479095459,-0.40728628635406494,-2.0850446224212646,1.2769221067428589,-0.7798066735267639,-0.5966919660568237,-0.18936850130558014,-0.06669002771377563,0.09118348360061646,-0.05658796429634094,0.44874118390834505,-0.18606056114562733,-0.6088490918094407,-0.6271488615922608,0.6393724350912228,-1.3325674516225392,-1.3902065608277905
1781515644744213504,0.6226415634155273,-0.4111609160900116,-2.146575689315796,1.1961026191711426,-0.7909958362579346,-0.586211085319519,-0.17516359686851501,-0.06996607780456543,0.11151015758514404,-0.0773235559463501,0.445724501712553,-0.19741784539198645,-0.6111009704360929,-0.6236277196660817,0.6263741039351827,-1.3528663127101268,-1.3918162147290314
1781515644754247680,0.6326756477355957,-0.41994455456733704,-2.209761142730713,1.1093475818634033,-0.801421582698822,-0.5762603282928467,-0.16014815866947174,-0.0656743049621582,0.11683350801467896,-0.08495377004146576,0.44223657461467253,-0.20868298376632505,-0.61349599474332,-0.6200813414364893,0.6141454560844799,-1.3735641397513056,-1.3937974294605258
1781515644764281600,0.642709493637085,-0.5307515263557434,-2.29549241065979,0.9497114419937134,-0.8107812404632568,-0.567198634147644,-0.14463631808757782,-0.08564209938049316,0.11703383922576904,-0.06852895021438599,0.437989555713908,-0.21988625975289094,-0.6158992399110932,-0.6168333765347556,0.6031004231363993,-1.3942620392845457,-1.3971018944514346
1781515644774314752,0.6527426242828369,-0.5934849381446838,-2.3549602031707764,0.8313208818435669,-0.8190194368362427,-0.5591245293617249,-0.1287897527217865,-0.11486411094665527,0.13438087701797485,-0.03460131585597992,0.4328970811931301,-0.23107392437624605,-0.6182313200869856,-0.6139991053376639,0.593329438534693,-1.4148248212401564,-1.4020768026603383
1781515644784348416,0.6627764701843262,-0.6410197019577026,-2.3843460083007812,0.6809449791908264,-0.8261259198188782,-0.5521050095558167,-0.1126759871840477,-0.11653143167495728,0.14361202716827393,-0.010279349982738495,0.4271383681684221,-0.24204959466711104,-0.6205433092042159,-0.6114660706076062,0.584886820981343,-1.435241930763709,-1.4081144797459468
1781515644794382592,0.6728105545043945,-0.707039475440979,-2.4103198051452637,0.4927372932434082,-0.8318935036659241,-0.5464919209480286,-0.09643412381410599,-0.12239104509353638,0.12864530086517334,0.039549365639686584,0.4206316631703849,-0.2526625880765652,-0.622851951389054,-0.6093323710393145,0.5781695821279214,-1.4553901781536607,-1.4152360747488664
1781515644804416768,0.6828446388244629,-0.7813097238540649,-2.3521978855133057,0.3154013752937317,-0.8362109661102295,-0.5424559116363525,-0.08057811111211777,-0.179002046585083,0.13382560014724731,0.05875808745622635,0.4134238156456446,-0.26277574533090003,-0.6250278824087343,-0.6077580022443929,0.5733577468388993,-1.4747319458658077,-1.4236638064911673
1781515644814450432,0.6928784847259521,-0.7984327673912048,-2.2287020683288574,0.1707347333431244,-0.8392051458358765,-0.5398434996604919,-0.0656033307313919,-0.22327959537506104,0.17070287466049194,0.030202925205230713,0.40589725322788794,-0.27214628725629825,-0.6270045712983892,-0.6066705124719237,0.5702511893150044,-1.492781806873282,-1.432821155105318
1781515644824484608,0.7029125690460205,-0.7327560186386108,-2.100191116333008,0.06664562225341797,-0.8411083221435547,-0.5384039878845215,-0.0515567809343338,-0.2122974395751953,0.15101385116577148,0.003140687942504883,0.39837452762103515,-0.28064511684119825,-0.6288560475215819,-0.6058681559192675,0.5685419905275004,-1.5095766809359223,-1.4418934682059492
1781515644834518784,0.7129466533660889,-0.5877344012260437,-2.085087299346924,-0.037594493478536606,-0.8421522974967957,-0.5379320383071899,-0.03753199055790901,-0.15838170051574707,0.08384573459625244,-0.08984839916229248,0.39090185635524033,-0.2883568945681788,-0.6309392249304864,-0.6049477268497759,0.5679820167306464,-1.5262590483650287,-1.4497673612706652
1781515644844551680,0.7229795455932617,-0.44067513942718506,-2.1097285747528076,-0.12295945733785629,-0.8423363566398621,-0.5384782552719116,-0.02259584702551365,-0.10770630836486816,0.049281537532806396,-0.1288171410560608,0.3832439947506129,-0.2954517656636744,-0.6335695149577885,-0.6036736935757513,0.5686301545902119,-1.5439775501681845,-1.4559366051338896
1781515644854585600,0.7330136299133301,-0.4472499489784241,-2.124617338180542,-0.19371938705444336,-0.8418198823928833,-0.5397132635116577,-0.007000469136983156,-0.0831984281539917,0.06568372249603271,-0.07867765426635742,0.3753853978998748,-0.3021869219760889,-0.6365397314316457,-0.6021512227539804,0.5700964402131369,-1.5624806434611205,-1.4610626038998713
1781515644864619520,0.7430474758148193,-0.5606819987297058,-2.1094982624053955,-0.2779032289981842,-0.8405241370201111,-0.5417128801345825,0.008146150037646294,-0.08202224969863892,0.08513939380645752,0.007768750190734863,0.3671325262173259,-0.30874745557034056,-0.639334093880429,-0.6009497867630267,0.5724735835602816,-1.5804877736318756,-1.4670264459922517
1781515644874653696,0.7530815601348877,-0.7460430860519409,-2.0818467140197754,-0.36713218688964844,-0.838476836681366,-0.5444819331169128,0.022273020818829536,-0.09966403245925903,0.09491223096847534,0.07298755645751953,0.3584323544869138,-0.3152193016370586,-0.6416956464971094,-0.6003247093827424,0.5757713169085694,-1.59735375116076,-1.4746819124094817
1781515644884687616,0.763115644454956,-1.071823000907898,-2.025320053100586,-0.46664172410964966,-0.835603654384613,-0.5482438206672668,0.03457142785191536,-0.14854246377944946,0.14057475328445435,0.17336010932922363,0.34911333724729754,-0.3216638560560097,-0.643286932341487,-0.6006947247626911,0.5802629300510326,-1.6121457411036952,-1.4853223954274604
1781515644894721536,0.7731494903564453,-1.269366979598999,-1.918586254119873,-0.5310090184211731,-0.8320674300193787,-0.552885890007019,0.04450573772192001,-0.1781100630760193,0.17262166738510132,0.20482289791107178,0.33930476893203576,-0.3280570338390894,-0.6439188240221183,-0.6021787804347205,0.5858236383160901,-1.624233544492911,-1.4993065747252046
1781515644904755712,0.7831835746765137,-1.0966668128967285,-1.8442045450210571,-0.5209137797355652,-0.8281987905502319,-0.5578944683074951,0.053297288715839386,-0.14544934034347534,0.12756603956222534,0.07052779942750931,0.3296381395608895,-0.33404619987747,-0.6442528863060036,-0.6038957666178516,0.5918465483204594,-1.635060966377109,-1.513595124359956
1781515644914788608,0.7932164669036865,-0.5884023308753967,-1.9089452028274536,-0.4643207788467407,-0.8243740797042847,-0.562408983707428,0.06406029313802719,-0.05885052680969238,-0.023589611053466797,-0.14715969562530518,0.32069759909142115,-0.33951773890558434,-0.6455678510737333,-0.6042540806789768,0.597296320383789,-1.6483482718264146,-1.523358835612142
1781515644924822528,0.8032505512237549,-0.22663074731826782,-1.9718010425567627,-0.39034509658813477,-0.8205636739730835,-0.5662292242050171,0.07784391194581985,-0.009956955909729004,-0.13958126306533813,-0.21810293197631836,0.31242429692152873,-0.3446281324994429,-0.6481924137366932,-0.6028839730465307,0.6019238281397802,-1.6653796517882846,-1.5276833957671183
1781515644934856704,0.8132846355438232,-0.16089728474617004,-2.019442319869995,-0.29270267486572266,-0.8169635534286499,-0.5691043734550476,0.0932258740067482,0.023872673511505127,-0.12242394685745239,-0.17157971858978271,0.304619775858678,-0.34983552689544023,-0.6513279052337103,-0.6004947791501909,0.6054162258722928,-1.6844174951790916,-1.5293839320012177
1781515644944890624,0.8233184814453125,-0.33130285143852234,-2.0830078125,-0.27898073196411133,-0.813304603099823,-0.5716092586517334,0.1086219921708107,0.05710941553115845,0.022842109203338623,-0.05361400544643402,0.29665618974300684,-0.3554487461074217,-0.6541920101121954,-0.5980670558091513,0.6084657452779028,-1.7035669764684391,-1.5318554004821037
1781515644954924544,0.8333525657653809,-0.6630725264549255,-2.0752272605895996,-0.32268986105918884,-0.8091976046562195,-0.5745605826377869,0.12279914319515228,0.03846085071563721,0.1492370367050171,0.08905386924743652,0.2880520020257285,-0.36144174359009723,-0.656322663261035,-0.5963443236486675,0.612067129705903,-1.7214014466408707,-1.5372312014836413
1781515644964958720,0.8433866500854492,-1.0035651922225952,-1.942168951034546,-0.3946689963340759,-0.8045341372489929,-0.5785444378852844,0.13420499861240387,-0.05546635389328003,0.1451796293258667,0.21078096330165863,0.2787997641168516,-0.36749117778909474,-0.6573071859462738,-0.5959598078743156,0.6169429976989804,-1.7360852686136539,-1.5468079230390372
1781515644974992640,0.8534204959869385,-0.9801562428474426,-1.7772071361541748,-0.39013922214508057,-0.7996390461921692,-0.5831693410873413,0.14314597845077515,-0.10508495569229126,0.05997598171234131,0.16125153005123138,0.2695913138596604,-0.3731369938876257,-0.6575270120215511,-0.5964456849352707,0.6226246627659245,-1.7479333082389892,-1.5584335439650276
1781515644985026560,0.8634545803070068,-0.6878652572631836,-1.7046592235565186,-0.34631237387657166,-0.7949528098106384,-0.5872839093208313,0.15214432775974274,-0.0681302547454834,-0.05558419227600098,-0.01740919053554535,0.26123006554918876,-0.3782358876547801,-0.6580347868322883,-0.5963948230791202,0.6276989758475535,-1.7598974613159992,-1.567705495431693
1781515644995059456,0.8734874725341797,-0.5178519487380981,-1.7351239919662476,-0.33846431970596313,-0.7902788519859314,-0.5908694267272949,0.16227391362190247,-0.015156388282775879,-0.08237886428833008,-0.07459688186645508,0.25344062795586564,-0.38302230321968894,-0.6591137027598523,-0.5955089875608198,0.6321361018075178,-1.7733188353256724,-1.5741108922801408
1781515645005093632,0.883521556854248,-0.34417736530303955,-1.685118317604065,-0.3415786027908325,-0.7854392528533936,-0.5942275524139404,0.17314407229423523,0.035286664962768555,0.00816798210144043,-0.12707781791687012,0.24592656343558436,-0.38759918526533327,-0.6605595441076011,-0.5940943859948429,0.6363049188984806,-1.7877685205183023,-1.578707088493961
1781515645015127552,0.8935556411743164,-0.16042004525661469,-1.726884126663208,-0.33606746792793274,-0.780377984046936,-0.597312331199646,0.18500776588916779,0.09422087669372559,0.05571699142456055,-0.26359060406684875,0.23878219570022477,-0.3918641571006177,-0.6625302769666842,-0.5920127167910465,0.6401457378726704,-1.8035733660029583,-1.5808626597934499
1781515645025161472,0.9035894870758057,-0.06216591224074364,-1.7269372940063477,-0.3525873124599457,-0.7750285863876343,-0.6001476049423218,0.1978723555803299,0.13028377294540405,-0.007899820804595947,-0.21717466413974762,0.23184559685660497,-0.3959557835518064,-0.6649475115112032,-0.5893313349767221,0.6436856207659654,-1.8207661141371787,-1.5810289341683519
1781515645035195648,0.913623571395874,-0.12318532168865204,-1.7332391738891602,-0.4184880256652832,-0.7691715359687805,-0.6032950282096863,0.2107381820678711,0.11963528394699097,-0.0004495382308959961,-0.1216420829296112,0.2247531720994694,-0.39988620158448995,-0.66742798737301,-0.5866148875835592,0.647626255542147,-1.8382146988525434,-1.5808928204247872
1781515645045229568,0.9236576557159424,-0.14422988891601562,-1.674804449081421,-0.45606815814971924,-0.7627959251403809,-0.6069548726081848,0.22304323315620422,0.07938522100448608,0.07993155717849731,-0.07419371604919434,0.21745387546645334,-0.40359651682771114,-0.6697995734675934,-0.5841166255737391,0.6522233481427058,-1.8552682123809145,-1.5810700547778263
1781515645055263488,0.9336915016174316,-0.16700497269630432,-1.5549858808517456,-0.486940860748291,-0.7562271356582642,-0.6108689904212952,0.23443467915058136,0.04620516300201416,0.11343246698379517,-0.03225576877593994,0.21033716995324775,-0.40691078967033667,-0.672042371279111,-0.5818427383887836,0.6571577453393319,-1.8714071365937346,-1.5811974187410454
1781515645065296640,0.9437246322631836,-0.21489952504634857,-1.477750301361084,-0.5363025665283203,-0.7494421005249023,-0.6152204871177673,0.24462276697158813,0.04170900583267212,0.09275960922241211,0.014959797263145447,0.20333200726965628,-0.40979083949001566,-0.6740792600268256,-0.5799523253350968,0.662665607827895,-1.8862998258446373,-1.5816374201262575
1781515645075330560,0.9537584781646729,-0.1425664722919464,-1.428191065788269,-0.5424526333808899,-0.7424704432487488,-0.6197049021720886,0.25436919927597046,0.058327317237854004,0.06686365604400635,-0.035954803228378296,0.19646891975049469,-0.41237503469687503,-0.6761149481752294,-0.5781136992401421,0.6683666095577715,-1.9008621280772147,-1.5816742883992883
1781515645085364480,0.9637925624847412,-0.07548011839389801,-1.3894151449203491,-0.5862645506858826,-0.7353012561798096,-0.6241627335548401,0.2641077935695648,0.07087254524230957,0.06428724527359009,-0.10517227649688721,0.18983358676061932,-0.41464164549083454,-0.6783260327441177,-0.576115705984758,0.6740594428406487,-1.9156285634362369,-1.5806186492811032
1781515645095398656,0.9738266468048096,0.015306243672966957,-1.3889787197113037,-0.6149433255195618,-0.7277808785438538,-0.6286436319351196,0.2741202712059021,0.09603655338287354,0.0973479151725769,-0.13734057545661926,0.1833038530842477,-0.4166350789549018,-0.6807902367288274,-0.5738810558892621,0.6798078594737104,-1.9310147039677692,-1.5783167272485707
1781515645105432576,0.9838604927062988,0.06613799929618835,-1.3841582536697388,-0.658024787902832,-0.719881534576416,-0.6331272721290588,0.28446510434150696,0.11796808242797852,0.14168745279312134,-0.15139329433441162,0.17683274094886064,-0.4184037224723537,-0.6834990011633372,-0.5713996979157728,0.685586748043624,-1.9471194172081603,-1.5748252619793528
1781515645115466496,0.9938945770263672,0.027255048975348473,-1.3884485960006714,-0.6894785761833191,-0.7115625739097595,-0.6378065943717957,0.29475682973861694,0.11881959438323975,0.14328444004058838,-0.12454506754875183,0.17025567705428094,-0.42001095264269495,-0.6862719719672192,-0.5688889590281744,0.6916470477334712,-1.9635169596335937,-1.570910188740177
1781515645125500672,1.0039286613464355,-0.059499021619558334,-1.4009337425231934,-0.7460241317749023,-0.7027580738067627,-0.642937183380127,0.30456945300102234,0.08228999376296997,0.12207847833633423,-0.06352642178535461,0.1633668087203189,-0.42152673500138754,-0.6889121436535594,-0.5665919390716665,0.6983269665431063,-1.9797532352998926,-1.56743098627972
1781515645135534592,1.0139625072479248,-0.07463056594133377,-1.3721436262130737,-0.7633005976676941,-0.6935427188873291,-0.6484810709953308,0.31380051374435425,0.0422213077545166,0.1277748942375183,-0.03563284873962402,0.15624751584952679,-0.42290532819188087,-0.6914125677897193,-0.5645231980377824,0.7055873547946813,-1.9956943075101523,-1.5643208673716242
1781515645145567744,1.0239956378936768,-0.12360476702451706,-1.3263658285140991,-0.8036389350891113,-0.6841651201248169,-0.6541391611099243,0.3225213587284088,0.021567463874816895,0.11480200290679932,-0.027797818183898926,0.14918608696950145,-0.4240738576186658,-0.6938458317714206,-0.562568047086822,0.7130439328707847,-2.011310376720344,-1.5610693590068159
1781515645155601408,1.034029483795166,-0.16817224025726318,-1.338687539100647,-0.8451158404350281,-0.674354076385498,-0.6602908968925476,0.33054909110069275,0.0051035284996032715,0.10596954822540283,0.0029928982257843018,0.14187926666955727,-0.42505839065793866,-0.696132101978161,-0.5608883907939338,0.7212060179169248,-2.026550191492611,-1.5582007487679923
1781515645165635584,1.0440635681152344,-0.07747509330511093,-1.3060142993927002,-0.872697651386261,-0.664186954498291,-0.666460394859314,0.3386536240577698,-0.004956722259521484,0.12156903743743896,-0.0415802001953125,0.13455913349705773,-0.425878600370663,-0.6985372066454523,-0.559076953734721,0.7294509496499371,-2.042314250301199,-1.554537934521414
1781515645175669760,1.0540976524353027,0.004418708384037018,-1.2733296155929565,-0.8956080079078674,-0.6538184881210327,-0.6724307537078857,0.34692707657814026,0.0077765583992004395,0.14879482984542847,-0.09056422114372253,0.1274932272949571,-0.4263931799037598,-0.7011792869230132,-0.5570295996906452,0.7374879955056636,-2.058636332781906,-1.549429373843217
1781515645185703424,1.064131498336792,0.0008716442389413714,-1.3125710487365723,-0.9078396558761597,-0.6431816816329956,-0.6782276034355164,0.35542210936546326,0.043984293937683105,0.13924139738082886,-0.0829000473022461,0.12046696572152119,-0.4268186447795323,-0.703943821585501,-0.5547762800659901,0.745347993660392,-2.0756334199027924,-1.5434428556072324
1781515645195737600,1.0741655826568604,-0.062160052359104156,-1.3544827699661255,-0.946667492389679,-0.6320279836654663,-0.6842879056930542,0.3637182116508484,0.03960543870925903,0.11853772401809692,-0.07274839282035828,0.11309382748631346,-0.42726465761203847,-0.7066144782956953,-0.5525855319724956,0.7536266950198843,-2.0929897658294956,-1.5376198030113664
1781515645205771776,1.0841996669769287,-0.07955821603536606,-1.3707863092422485,-0.9676044583320618,-0.6203698515892029,-0.6905845999717712,0.37179800868034363,0.01917368173599243,0.11587768793106079,-0.10576111078262329,0.10542646706677959,-0.4276835976550699,-0.7092148785055524,-0.5504417347561424,0.7622970278124533,-2.110713250749184,-1.5317940875914569
1781515645215804672,1.0942325592041016,-0.018174750730395317,-1.3843226432800293,-0.9786930680274963,-0.6084105968475342,-0.6967743039131165,0.379923939704895,0.02126765251159668,0.12824708223342896,-0.10250377655029297,0.09773324126389074,-0.4280316033745707,-0.7118643908542134,-0.5481662813331588,0.7708905250857941,-2.1290023109898955,-1.5253243896367585
1781515645225838592,1.10426664352417,0.10927268862724304,-1.4018553495407104,-0.9865043759346008,-0.5961360335350037,-0.7025229930877686,0.38869455456733704,0.024846911430358887,0.09954136610031128,-0.04552429914474487,0.09014399075955909,-0.4283295732650861,-0.7147594376012726,-0.5454602021553756,0.7789365216178153,-2.1485925724274657,-1.5173551759764896
1781515645235872512,1.1143004894256592,0.08963533490896225,-1.371109127998352,-1.0100575685501099,-0.5835979580879211,-0.7079899907112122,0.39769768714904785,-0.017140507698059082,0.022443175315856934,0.02803775668144226,0.0826680336327918,-0.4284885374898563,-0.7178066680616703,-0.5425099985280433,0.7866479753609442,-2.1689695087641794,-1.5082242820784528
1781515645245906688,1.1243345737457275,0.1502014845609665,-1.3255349397659302,-1.051676630973816,-0.5708181262016296,-0.713528037071228,0.4062568247318268,-0.07761937379837036,0.027965903282165527,0.040001749992370605,0.07523502689523462,-0.42839050524935657,-0.7208397834727697,-0.5396400206948759,0.7945209462246137,-2.1893380428540503,-1.4985975710395074
1781515645255940608,1.134368658065796,0.282884418964386,-1.263610601425171,-1.0818876028060913,-0.5577650666236877,-0.7187246680259705,0.4151301681995392,-0.09918683767318726,0.16031402349472046,0.0017704963684082031,0.068066175447896,-0.42796587059436214,-0.7241617848537667,-0.5364717489794697,0.8019663586973389,-2.2106228661065686,-1.4871565065636179
1781515645265974528,1.1444025039672852,0.47753727436065674,-1.1945064067840576,-1.1043806076049805,-0.5447243452072144,-0.7231343984603882,0.4246785640716553,-0.05604463815689087,0.21541351079940796,-0.12015905976295471,0.06152368182025684,-0.42713360730960415,-0.7279396743054736,-0.5327996754779878,0.8083295332797906,-2.2329869752618863,-1.4731138173025082
1781515645276008704,1.1544365882873535,0.4884519577026367,-1.2818292379379272,-1.1096347570419312,-0.5313591957092285,-0.7269716262817383,0.4349362254142761,0.07026916742324829,0.12710291147232056,-0.20768707990646362,0.05511677909010092,-0.4262286684075713,-0.7319817139289652,-0.5286719165336523,0.8139013764714975,-2.256737483865868,-1.457441834301155
1781515645286042624,1.1644706726074219,0.4180569052696228,-1.3975335359573364,-1.1643491983413696,-0.5171422958374023,-0.7309556007385254,0.4452725648880005,0.13393312692642212,0.07841354608535767,-0.22740760445594788,0.04815251951114777,-0.4254640291499155,-0.7359460852331392,-0.5244473387101986,0.8197212054197331,-2.2816564028776143,-1.4416754054517003
1781515645296075520,1.1745035648345947,0.46826812624931335,-1.4644722938537598,-1.1769874095916748,-0.502037763595581,-0.7349458932876587,0.45586472749710083,0.12833482027053833,0.08399075269699097,-0.19962385296821594,0.0407150058601001,-0.42478607119656503,-0.7399251003403952,-0.5200095622615887,0.8255869287761781,-2.308029548905555,-1.425334825405738
1781515645306109696,1.184537649154663,0.48699867725372314,-1.4730390310287476,-1.1818833351135254,-0.4865603446960449,-0.738550066947937,0.46669304370880127,0.07829630374908447,0.06360822916030884,-0.12178349494934082,0.03323084904701143,-0.42412551067885224,-0.7439516646921511,-0.5153145105932159,0.8309172262106462,-2.3353559403806727,-1.4082041965473886
1781515645316143616,1.1945714950561523,0.4623093008995056,-1.4463692903518677,-1.2062015533447266,-0.4707455337047577,-0.7420238256454468,0.4772831201553345,0.029018908739089966,0.03706783056259155,-0.01823773980140686,0.02568561263307196,-0.4233593048458801,-0.7479361328959067,-0.5105865727690174,0.8360842604704282,-2.363090344487631,-1.3906146463914177
1781515645326177536,1.2046055793762207,0.42559364438056946,-1.3673145771026611,-1.2240427732467651,-0.4548910856246948,-0.745521068572998,0.48710599541664124,0.0120353102684021,0.04001575708389282,-0.008163154125213623,0.01825184924301573,-0.4223148804096343,-0.7517999291348634,-0.5060768838101887,0.8413163296728128,-2.3903796903581274,-1.3728425572499001
1781515645336211712,1.214639663696289,0.34502315521240234,-1.3466217517852783,-1.2458083629608154,-0.4389452636241913,-0.7491284608840942,0.4961186945438385,0.04058399796485901,0.06727415323257446,-0.03528803586959839,0.010831640144942315,-0.4210460060503154,-0.7554995767084373,-0.5018200666131696,0.846745414078679,-2.417262334618217,-1.3550744681265672
1781515645346245632,1.2246735095977783,0.3120146095752716,-1.3293505907058716,-1.2437098026275635,-0.42281052470207214,-0.7529091238975525,0.5043401122093201,0.07860279083251953,0.07305383682250977,-0.05054384469985962,0.003291496245384338,-0.4196485661247591,-0.7589895594980393,-0.4978142806895798,0.8524713215641365,-2.4439045524778646,-1.337495280156717
1781515645356279552,1.2347075939178467,0.276715487241745,-1.3301641941070557,-1.239721655845642,-0.4066513776779175,-0.7565371990203857,0.512139081954956,0.1078079342842102,0.012884736061096191,-0.06731480360031128,-0.004228426769958792,-0.4182214398866948,-0.7623387490725371,-0.49387516144269333,0.8580015442505082,-2.4705054695991384,-1.319902493757764
1781515645366313728,1.244741678237915,0.108407162129879,-1.3590694665908813,-1.264295220375061,-0.3901733458042145,-0.7605137825012207,0.5190219283103943,0.10857239365577698,-0.004058361053466797,-0.01798427104949951,-0.012056205598661508,-0.4167566666987774,-0.7653919573425871,-0.4902486531481706,0.8641039751990307,-2.496974204163786,-1.3028000692692998
1781515645376346624,1.254774570465088,-0.02022804692387581,-1.3201817274093628,-1.2745238542556763,-0.3733808398246765,-0.7651824355125427,0.5244832038879395,0.06681650876998901,0.055297791957855225,0.04158735275268555,-0.020279762066779713,-0.4151744972500151,-0.7680310854904704,-0.487182871463159,0.8713246866049488,-2.5229231295800907,-1.2865197289715895
1781515645386380800,1.2648086547851562,-0.0512983500957489,-1.2405897378921509,-1.2769196033477783,-0.3567856252193451,-0.7700362205505371,0.5289125442504883,0.006077587604522705,0.07324349880218506,0.041064321994781494,-0.028411150526850035,-0.41338151366239634,-0.7704362455924492,-0.4844962562947334,0.878897955705255,-2.5481422460169316,-1.270441542191792
1781515645396414464,1.2748425006866455,-0.08531304448843002,-1.1844699382781982,-1.2761715650558472,-0.3404087424278259,-0.7749362587928772,0.5325369238853455,-0.016631633043289185,0.0577273964881897,0.07767719030380249,-0.03637337579001315,-0.41135638735518687,-0.7726929427219456,-0.48208761094356495,0.8866141938203692,-2.572832363010792,-1.2542338592779025
1781515645406448640,1.2848765850067139,-0.012125380337238312,-1.104884386062622,-1.237871527671814,-0.3244718611240387,-0.7794113755226135,0.5359439849853516,0.005090177059173584,0.0150071382522583,0.08487516641616821,-0.04396159484349802,-0.4092343554566146,-0.7749188504737038,-0.47968260502693333,0.8937257420259218,-2.5971964707683455,-1.2376790009042233
1781515645416482560,1.2949106693267822,0.018715091049671173,-1.0708427429199219,-1.1965800523757935,-0.30909204483032227,-0.7832056879997253,0.5394915342330933,0.028284549713134766,-0.04910022020339966,0.04446232318878174,-0.05105990290831212,-0.40708384879186643,-0.777192708432541,-0.4771238497261988,0.8998049949356945,-2.6213137864684195,-1.2206763828807523
1781515645426516480,1.3049445152282715,-0.07133757323026657,-1.0778915882110596,-1.1614950895309448,-0.29397979378700256,-0.7868874669075012,0.5425715446472168,0.03894442319869995,-0.048073410987854004,0.05815166234970093,-0.05811307375841085,-0.4050463918391078,-0.7792452784989756,-0.4746968165383608,0.9057488491077409,-2.6450461394712343,-1.2041849956199944
1781515645436550656,1.3149785995483398,-0.10671846568584442,-1.0650641918182373,-1.1029918193817139,-0.27916258573532104,-0.790646493434906,0.5449280738830566,0.020037800073623657,-0.032489001750946045,0.056008875370025635,-0.06518498946258108,-0.40312663572772933,-0.7809948424723895,-0.47253247875036447,0.9118641291455518,-2.668159446271121,-1.1885100925318588
1781515645446584576,1.3250126838684082,-0.14443016052246094,-1.0644570589065552,-1.085452675819397,-0.26465657353401184,-0.7943382859230042,0.546794056892395,0.006416767835617065,-0.0335732102394104,0.041539132595062256,-0.0721986836460455,-0.4013114002421049,-0.782525526854348,-0.47052137743596095,0.9179175196225792,-2.6908145926610625,-1.1733767820859582
1781515645456617472,1.335045576095581,-0.10745376348495483,-1.06918466091156,-1.039038062095642,-0.2502717077732086,-0.7978225350379944,0.5484918355941772,0.004391580820083618,-0.019361913204193115,0.08068907260894775,-0.07917315812197163,-0.39958672347690777,-0.7839492108859191,-0.46849301813729016,0.9236748637784615,-2.7135197254063796,-1.158315507645521
1781515645466651648,1.3450796604156494,-0.02764681540429592,-1.0146558284759521,-1.0002305507659912,-0.23634421825408936,-0.8006173968315125,0.5505937933921814,-0.007399722933769226,-0.0487479567527771,0.10696858167648315,-0.08578675117211813,-0.39800586586095243,-0.7854223168871368,-0.4662015131429103,0.9283249342894446,-2.73612491011641,-1.1431526833620314
1781515645476685568,1.3551135063171387,-0.10482815653085709,-0.971761167049408,-1.000261902809143,-0.22285005450248718,-0.8032698631286621,0.5523544549942017,-0.034535184502601624,-0.07670450210571289,0.11544644832611084,-0.09214205646033685,-0.39635411156500194,-0.7868167867643614,-0.46403945843500216,0.9327649187890995,-2.758111558534766,-1.128112168539092
1781515645486719488,1.365147590637207,-0.16343127191066742,-0.9455189108848572,-1.0096831321716309,-0.20940449833869934,-0.8062310218811035,0.5533007383346558,-0.03520917892456055,-0.007978081703186035,0.09773093461990356,-0.09854852820187092,-0.3945419460919069,-0.7880272889571952,-0.46220986467683034,0.937753372275856,-2.779788357987726,-1.1131393055250496
1781515645496753664,1.3751816749572754,-0.09010487049818039,-0.870953381061554,-1.0143705606460571,-0.1961369514465332,-0.8090227246284485,0.5540871620178223,-0.016509532928466797,0.07853871583938599,0.041280269622802734,-0.10475740531957428,-0.39257801659059294,-0.7892566669249127,-0.46041538209391203,0.9424875517069086,-2.8013746986427686,-1.0977330577848345
1781515645506787584,1.3852155208587646,-0.0013933742884546518,-0.808522641658783,-1.0078234672546387,-0.18325437605381012,-0.8111842274665833,0.5553357005119324,0.006755992770195007,0.07084310054779053,0.01837944984436035,-0.11049250625925396,-0.3904793671905514,-0.7906919236589809,-0.45839225656058646,0.9461742751098575,-2.822855505444278,-1.0815961822067692
1781515645516821504,1.395249605178833,-0.020321259275078773,-0.7867379784584045,-0.993664026260376,-0.17066049575805664,-0.8130003213882446,0.5566917061805725,0.04172372817993164,0.04238569736480713,0.048456668853759766,-0.11596372924193682,-0.38833090244011687,-0.7921773539859791,-0.4562966486924339,0.9492866304372237,-2.8441266381756485,-1.0652435447840283
1781515645526854400,1.4052824974060059,-0.08485737442970276,-0.783044159412384,-0.9713405966758728,-0.15822568535804749,-0.8149269819259644,0.5575471520423889,0.04460872709751129,0.023697614669799805,0.07201522588729858,-0.12144929459317999,-0.3861869682889114,-0.7934942964593953,-0.454396918905628,0.9526032212870814,-2.8650739710320328,-1.0492200499227424
1781515645536888576,1.4153165817260742,-0.11977328360080719,-0.7401278614997864,-0.924182653427124,-0.14619404077529907,-0.8169568181037903,0.5578612089157104,0.02407793700695038,0.016465365886688232,0.06695574522018433,-0.12684900659526732,-0.38408492294198715,-0.794612715632501,-0.45274585207847856,0.9561141975412298,-2.8852944261269218,-1.0338296377362803
1781515645546922752,1.4253506660461426,-0.11530555784702301,-0.7105043530464172,-0.8677018284797668,-0.13477127254009247,-0.8189135193824768,0.5578688979148865,0.032674700021743774,0.050770699977874756,0.044258296489715576,-0.1320072296162467,-0.3820584644006116,-0.7955914727834956,-0.451264613145757,0.9595153493150019,-2.9045520535579734,-1.0191522105134272
1781515645556956416,1.4353845119476318,-0.05026983469724655,-0.6920480728149414,-0.7984511256217957,-0.12402383983135223,-0.8204326033592224,0.5581293702125549,0.08453409373760223,0.06954759359359741,0.010123133659362793,-0.13683290108804208,-0.3802769579383556,-0.7965262792612832,-0.4496799445553579,0.9621672155004214,-2.922932084761162,-1.0053108599769207
1781515645566990592,1.4454185962677002,-0.09655078500509262,-0.7267641425132751,-0.813740074634552,-0.11346332728862762,-0.8217585682868958,0.5584258437156677,0.11704909801483154,0.08265316486358643,-0.006027102470397949,-0.14158597288167007,-0.37861270089200877,-0.7974116513308921,-0.4480408852880963,0.9644902328687627,-2.9411372060365406,-0.9917615318560417
1781515645577024768,1.4554526805877686,-0.16448722779750824,-0.740972101688385,-0.8336954116821289,-0.10251033306121826,-0.8234061002731323,0.5581168532371521,0.10389886051416397,0.090129554271698,0.027530789375305176,-0.14664902869353766,-0.37686641119448266,-0.7981416814356798,-0.44658230007362654,0.9673875476695907,-2.959945434233458,-0.9779021493249709
1781515645587058432,1.4654865264892578,-0.13204725086688995,-0.7046799659729004,-0.8535889387130737,-0.09150122851133347,-0.8250669836997986,0.5575767159461975,0.07273293286561966,0.07683712244033813,0.01944965124130249,-0.1517078080497773,-0.3749911424173475,-0.7988554343287307,-0.44519243883968457,0.9703207074523895,-2.9789372638123783,-0.9636424198040802
1781515645597092608,1.4755206108093262,-0.11567947268486023,-0.6802982091903687,-0.8660858273506165,-0.08050832897424698,-0.8264957070350647,0.5571561455726624,0.06433402001857758,0.09254807233810425,0.009814560413360596,-0.15662915086715637,-0.3729908344120184,-0.7996598796809758,-0.44372192722161136,0.9728540083188286,-2.998087269640973,-0.9488573671782679
1781515645607125504,1.485553503036499,-0.12277413159608841,-0.6569811701774597,-0.8300018310546875,-0.06971351057291031,-0.8278296589851379,0.5566309690475464,0.0789603441953659,0.10851508378982544,0.018320202827453613,-0.16143301650214625,-0.370961647598762,-0.800439220284707,-0.44229390252948464,0.9752277781433378,-3.0169995009028954,-0.9340976579985384
1781515645617159680,1.4955875873565674,-0.09968585520982742,-0.6286086440086365,-0.7856804728507996,-0.05942409113049507,-0.828985869884491,0.5561032891273499,0.10391873121261597,0.07015109062194824,0.0011320114135742188,-0.16601466041943597,-0.369057944926616,-0.8011540965212336,-0.4408938294273546,0.9772918995206048,-3.0351386072560853,-0.9199976884214986
1781515645627193600,1.5056216716766357,-0.07605616003274918,-0.6139854788780212,-0.7738142013549805,-0.049500636756420135,-0.8298797607421875,0.5557422041893005,0.12556569278240204,0.03692626953125,-0.06013667583465576,-0.17037038477406685,-0.3672174075428702,-0.8018868192226382,-0.4394347346587513,0.978892188997858,-3.052755870537111,-0.9062208294004597
1781515645637227520,1.515655517578125,-0.099614217877388,-0.6535115838050842,-0.7766802906990051,-0.039495982229709625,-0.8307108879089355,0.5553016662597656,0.12918712198734283,0.05977565050125122,-0.058322787284851074,-0.17479573146419905,-0.365420022699437,-0.802570268822536,-0.43794493595845274,0.9803834330348861,-3.0705869533900336,-0.892428178854904
1781515645647262208,1.5256900787353516,-0.10451550036668777,-0.6397840976715088,-0.7568525075912476,-0.029476122930645943,-0.8315548300743103,0.5546602606773376,0.0940818265080452,0.08189040422439575,-0.014331281185150146,-0.17928882531723964,-0.36366511085461795,-0.8031673724739021,-0.4364922334547865,0.9819010944765864,-3.0884999352868,-0.8787299573206663
1781515645657296128,1.53572416305542,-0.07525987178087234,-0.5952427387237549,-0.7488505244255066,-0.019790317863225937,-0.832227349281311,0.5540813207626343,0.061492592096328735,0.08620989322662354,-0.010593771934509277,-0.1835749686698951,-0.36191723920943436,-0.8037764394729927,-0.43503977199920785,0.9831129545982413,-3.1058904784446564,-0.8652746100991425
1781515645667330048,1.5457580089569092,-0.06059570983052254,-0.5723186135292053,-0.779306173324585,-0.010181313380599022,-0.8327097296714783,0.5536165237426758,0.05496586114168167,0.09731221199035645,-0.01044929027557373,-0.18770252533930817,-0.3600394465201411,-0.8044748915281533,-0.43354312144524837,0.9839836141281726,-3.1232041738093246,-0.8514781264754511
1781515645677364224,1.5557920932769775,-0.051691699773073196,-0.5429521799087524,-0.7913681864738464,-0.0004785912751685828,-0.8330774307250977,0.5531560778617859,0.0364130437374115,0.07927799224853516,0.008168935775756836,-0.19178336325748718,-0.358015799730497,-0.8052345856512356,-0.43201973989857373,0.9846479816570786,-3.1407274527131643,-0.8371900982037008
1781515645687397120,1.5658249855041504,-0.001194436103105545,-0.4765477478504181,-0.7935916185379028,0.008966770023107529,-0.8331860899925232,0.5529196262359619,0.026891395449638367,0.038722097873687744,-0.02601855993270874,-0.19560375593523993,-0.35589745602159895,-0.8060997628686309,-0.4304407174344435,0.9848444432536778,3.1253769449696236,-0.8228348254912564
1781515645697431040,1.5758590698242188,-0.048664748668670654,-0.4654248058795929,-0.828697681427002,0.018317626789212227,-0.8331789970397949,0.5526996850967407,0.05645044893026352,0.03212320804595947,-0.05163168907165527,-0.19926443967736548,-0.35360319925795125,-0.8070406598959774,-0.4288866486469972,0.9848316690110909,3.108462681923294,-0.8081329747878905
1781515645707465216,1.585893154144287,-0.07150828093290329,-0.47685667872428894,-0.8434321880340576,0.02795928716659546,-0.8333494067192078,0.552038848400116,0.07435090839862823,0.03458237648010254,-0.010001003742218018,-0.2031071623984114,-0.3511634775538814,-0.8079007602336427,-0.42746696996504147,0.9851398767093636,3.090988576734209,-0.792888138928453
1781515645717499136,1.5959270000457764,-0.03371695801615715,-0.3964550495147705,-0.8565181493759155,0.037463732063770294,-0.8333438634872437,0.5514839887619019,0.05120507627725601,-0.004638314247131348,-0.032334208488464355,-0.20678620879410062,-0.3486241117752231,-0.8088282965066848,-0.42602524271889014,0.9851298260016179,3.073764281749528,-0.7775107434623781
1781515645727533056,1.6059610843658447,-0.064908966422081,-0.38254669308662415,-0.9118705987930298,0.04697582498192787,-0.8332197666168213,0.5509426593780518,0.050726212561130524,0.02653348445892334,-0.04906588792800903,-0.21030001517566957,-0.3457894654566561,-0.8098771308418677,-0.42462039633390913,0.9849053464308054,3.056533923519133,-0.7614108879662861
1781515645737567232,1.615995168685913,-0.05018860846757889,-0.38894280791282654,-0.9363019466400146,0.05687326192855835,-0.8331134915351868,0.5501701831817627,0.06217581778764725,0.08541762828826904,0.01997441053390503,-0.21397603922136885,-0.3427863239004583,-0.8109146803840813,-0.4232364904333618,0.9847131846171279,3.0385845874852055,-0.744578019436334
1781515645747601152,1.6260290145874023,-0.0034980704076588154,-0.30145370960235596,-0.9554979801177979,0.06668920069932938,-0.8326276540756226,0.5498033165931702,0.018683724105358124,0.030381619930267334,0.038026273250579834,-0.21742867655795947,-0.3396624784687622,-0.8121151756903466,-0.42169075514785714,0.983835379488287,3.0208858579485396,-0.7275318408318184
1781515645757635072,1.6360630989074707,-0.04850682243704796,-0.26204851269721985,-0.9932714700698853,0.07635362446308136,-0.8320631384849548,0.5494005680084229,0.005250364542007446,-0.01443338394165039,0.029136359691619873,-0.22065197049089363,-0.336237809825462,-0.8134152823553852,-0.42025277760337815,0.9828168708466816,3.003500938522242,-0.7099595618876863
1781515645767667968,1.6460959911346436,-0.016890307888388634,-0.2582513689994812,-0.9880298376083374,0.08605381846427917,-0.831477701663971,0.5488534569740295,0.03800014406442642,0.008418440818786621,0.026860833168029785,-0.2238679611931431,-0.332697381538259,-0.8147018888454317,-0.41887537669114416,0.9817622441656784,2.9860704423322253,-0.6921474272445479
1781515645777702144,1.656130075454712,0.035809919238090515,-0.23763182759284973,-0.9976523518562317,0.09566960483789444,-0.8304862976074219,0.5487618446350098,0.039950497448444366,0.022655606269836426,-0.012186586856842041,-0.22693254209302346,-0.32919122552337476,-0.8160968506540807,-0.41727761979456973,0.9799801366799862,2.968990170200222,-0.6745952407494451
1781515645787736064,1.6661641597747803,0.009512004442512989,-0.23591355979442596,-1.037110447883606,0.10542807728052139,-0.8292798399925232,0.5487982034683228,0.018946290016174316,0.00828087329864502,-0.055023908615112305,-0.22996394597924552,-0.3255514498781486,-0.8175667212928862,-0.41559277009949225,0.977817745439969,2.9517977165283487,-0.6567133038966819
1781515645797769984,1.6761980056762695,-0.0805949866771698,-0.2533487379550934,-1.0726410150527954,0.1155691146850586,-0.8283591270446777,0.5481469631195068,0.0034341961145401,0.017537474632263184,-0.0008904337882995605,-0.23324388879172347,-0.32166700120733943,-0.8189040376585136,-0.4141543993011447,0.976172242061324,2.933799898056909,-0.637961799411034
1781515645807804160,1.686232089996338,0.046519290655851364,-0.19670863449573517,-1.0568439960479736,0.12567569315433502,-0.8271942734718323,0.5476818680763245,-0.004902377724647522,-0.0026549696922302246,0.04290962219238281,-0.236438884284359,-0.31775086438864586,-0.8202897852070966,-0.4126206162211439,0.9740960336467592,2.9160292120851237,-0.6193080020773084
1781515645817838080,1.6962661743164062,0.11746403574943542,-0.1103801429271698,-1.0957472324371338,0.13541465997695923,-0.8252882957458496,0.5482354760169983,-0.0023122280836105347,-0.04897928237915039,0.015683531761169434,-0.23913118383136087,-0.31373290463506825,-0.8220032897834278,-0.41072927450202007,0.9707124852055026,2.899438651544541,-0.6010354082817838
1781515645827872000,1.7063000202178955,0.11226927489042282,-0.12267422676086426,-1.096286416053772,0.14511053264141083,-0.8231279253959656,0.5490021705627441,0.04420526325702667,-0.002830326557159424,0.05021047592163086,-0.24167409952099042,-0.3095622914732678,-0.823815682461194,-0.4087695703567714,0.9668975648616249,2.8831853388616158,-0.5826715202918896
1781515645837906176,1.7163341045379639,0.11335185170173645,-0.10295432060956955,-1.0919489860534668,0.1547548621892929,-0.8208433389663696,0.5497887134552002,0.052367955446243286,0.0340084433555603,0.07710349559783936,-0.24420472357669903,-0.3054178685028171,-0.8255993555405055,-0.40677984659427985,0.9628859956799255,2.8672115310667263,-0.5646389632229748
1781515645847939072,1.7263669967651367,0.02333674021065235,-0.08287927508354187,-1.0729153156280518,0.16416004300117493,-0.818731963634491,0.5502083897590637,0.017144888639450073,0.012015163898468018,0.06173008680343628,-0.246677277769588,-0.30119174229462203,-0.8272773020103175,-0.4050260245656034,0.9591991320166813,2.8516413592884273,-0.5467394580725838
1781515645857972992,1.736401081085205,0.02062031626701355,-0.08080600202083588,-0.985372006893158,0.17309272289276123,-0.8168922662734985,0.5502055287361145,0.022189244627952576,-0.011247992515563965,0.08932089805603027,-0.24909003315444456,-0.2970876001157198,-0.8287591456982,-0.4035485787567593,0.9560023060876698,2.836798955887876,-0.5296012439159817
1781515645868007168,1.7464351654052734,0.0042456029914319515,-0.0721462070941925,-0.910652220249176,0.18125595152378082,-0.8151388764381409,0.5501773357391357,0.02960526943206787,-0.03097635507583618,0.09716159105300903,-0.2512963896113283,-0.29331786444760116,-0.8300923450380906,-0.40219586516090516,0.9529688691551176,2.823341113895482,-0.5140333867129784
1781515645878041088,1.7564690113067627,0.04854382574558258,-0.08551979809999466,-0.8105141520500183,0.18872906267642975,-0.8134182691574097,0.5502106547355652,0.04402849078178406,-0.010586738586425781,0.033666789531707764,-0.2533306432751315,-0.28992010904662163,-0.8312951762772454,-0.4008966925072459,0.9500047517278126,2.811156424311291,-0.500054268581609
1781515645888075008,1.766503095626831,0.08041919767856598,-0.1337011754512787,-0.740822970867157,0.19564060866832733,-0.8115450739860535,0.550562858581543,0.08454127609729767,0.05506008863449097,-0.005061149597167969,-0.2552406577098203,-0.2869991076607841,-0.8324139267019672,-0.39946317037198786,0.9467916771147814,2.8001627329476984,-0.4878746910777658
1781515645898109184,1.7765371799468994,0.07964315265417099,-0.1675555408000946,-0.7008398771286011,0.2023264318704605,-0.8096479177474976,0.5509399175643921,0.09917201101779938,0.10469168424606323,-0.006368875503540039,-0.2571940112423427,-0.28440807565841625,-0.8334158696731052,-0.39797165703862875,0.9435519458514432,2.7896437584252425,-0.4767812554530289
1781515645908143104,1.7865710258483887,0.07574242353439331,-0.18729276955127716,-0.6564127206802368,0.20881876349449158,-0.807804524898529,0.55122309923172,0.10027855634689331,0.132343590259552,-0.01380842924118042,-0.2591773167129801,-0.2820265717298898,-0.8343096375027798,-0.39650431225320676,0.940417927070108,2.7794701408626112,-0.46640893554824936
1781515645918177024,1.796605110168457,0.11754073947668076,-0.20409491658210754,-0.5719172954559326,0.2148985117673874,-0.8059967160224915,0.5515329241752625,0.120977982878685,0.10029280185699463,0.039684295654296875,-0.2611002555812764,-0.2799565417874627,-0.8350992771852662,-0.39504480642687434,0.9373574087324773,2.770050317762722,-0.45719001071034265
1781515645928209920,1.8066380023956299,0.05740363150835037,-0.20441968739032745,-0.5269050598144531,0.2204216718673706,-0.8042646050453186,0.5518807768821716,0.1246863305568695,0.056370437145233154,0.05045974254608154,-0.26288963095784623,-0.27820094029137366,-0.8357898168143665,-0.3936350415451312,0.9344369541303621,2.7616028447098295,-0.449219680145778
1781515645938244096,1.8166720867156982,-0.04302870109677315,-0.25349161028862,-0.48017510771751404,0.22577260434627533,-0.8031172156333923,0.5513884425163269,0.13087104260921478,0.08368068933486938,0.02096867561340332,-0.2648467870073903,-0.27653532653818935,-0.8361952081415018,-0.39263451556378565,0.9325086722915884,2.7529560976934677,-0.44132744674956176
1781515645948278272,1.8267061710357666,0.01960325427353382,-0.2706853747367859,-0.4252045154571533,0.23089668154716492,-0.8021731376647949,0.5506402254104614,0.1251671314239502,0.10980570316314697,0.022800207138061523,-0.26688610221333525,-0.2751469918733489,-0.8364294606994683,-0.3917289987288104,0.9309259586334951,2.744539394536857,-0.434201466632627
1781515645958311936,1.8367400169372559,0.10173460841178894,-0.23495003581047058,-0.40958642959594727,0.23563149571418762,-0.8008577227592468,0.5505496263504028,0.07753992080688477,0.06784063577651978,-0.010632574558258057,-0.2686800761665719,-0.2739935477594343,-0.8367809408123122,-0.39055890010267597,0.9287260872531569,2.7371894647637225,-0.4282174943503564
1781515645968346112,1.8467741012573242,0.16543209552764893,-0.18961264193058014,-0.4144091308116913,0.24009229242801666,-0.7991507053375244,0.5511026382446289,0.05313590168952942,0.028841137886047363,-0.08348184823989868,-0.2701860739276166,-0.27285564966998466,-0.8373178180098114,-0.3891635429270261,0.9258811018328669,2.73072933085158,-0.42277697836835626
1781515645978380288,1.8568081855773926,0.24222300946712494,-0.20067541301250458,-0.4033820629119873,0.2444574385881424,-0.7970254421234131,0.5522596836090088,0.07240656018257141,0.03188884258270264,-0.11176902055740356,-0.2715203976249203,-0.27177459369021933,-0.8380145674815862,-0.38748775038769295,0.9223538932822878,2.7248682392277166,-0.4178527569836651
1781515645988413952,1.8668420314788818,0.20828022062778473,-0.19492045044898987,-0.4114075005054474,0.2488008588552475,-0.7946966886520386,0.5536742210388184,0.07869851589202881,-0.004589080810546875,-0.08852535486221313,-0.27282548354313907,-0.2707942671482612,-0.8387535858916589,-0.3856541256560591,0.9185077762769437,2.719268370901436,-0.41335841777573534
1781515645998448128,1.8768761157989502,0.060911811888217926,-0.2283172905445099,-0.4014832079410553,0.2532493770122528,-0.7929260730743408,0.5541964173316956,0.06654438376426697,-0.055386483669281006,-0.0068634748458862305,-0.27432616020521544,-0.26964671507141647,-0.8392787722094194,-0.3842488280686412,0.9155963018667752,2.712960239305464,-0.4080657865920472
1781515646008482048,1.8869099617004395,-0.011696078814566135,-0.17435047030448914,-0.37804368138313293,0.2574724555015564,-0.7918117642402649,0.5538428425788879,0.041630297899246216,-0.11256134510040283,0.09154278039932251,-0.27591600066162847,-0.26845763387150856,-0.8395545909248733,-0.3833391316546807,0.9137697117896809,2.7064306739483213,-0.4024681284380025
1781515646018515200,1.8969430923461914,-0.026658250018954277,-0.1105661690235138,-0.38280779123306274,0.26127907633781433,-0.790969729423523,0.5532628893852234,-0.0013762116432189941,-0.097503662109375,0.08476805686950684,-0.2772735459386624,-0.26707828434942527,-0.8398217901208145,-0.3827372983422462,0.9123922819013686,2.700389447105113,-0.3966005149275266
1781515646028549120,1.9069771766662598,0.10246457904577255,-0.07070756703615189,-0.3702233135700226,0.2647648751735687,-0.7898011207580566,0.5532753467559814,-0.010217785835266113,-0.012048125267028809,0.01819676160812378,-0.2783344235631784,-0.26571108666340926,-0.8402590621248859,-0.3819584285280719,0.9104847271137768,2.6952592526309602,-0.39125969770090946
1781515646038583040,1.917011022567749,0.25708985328674316,-0.0317913256585598,-0.4004025161266327,0.2680804431438446,-0.7877293825149536,0.5546309351921082,-0.021132200956344604,0.04731190204620361,-0.07912123203277588,-0.2790268039910213,-0.26444570796764444,-0.8410611918844448,-0.38056356226353066,0.907114298602755,2.691354167724479,-0.38693213243478036
1781515646048617216,1.9270451068878174,0.3021816909313202,0.01194736734032631,-0.4168033301830292,0.27136439085006714,-0.7850148677825928,0.5568779706954956,-0.015367686748504639,-0.0049784183502197266,-0.1563957929611206,-0.27946460470734075,-0.2631360380710409,-0.8421391786905343,-0.37876187533414163,0.9027200935929849,2.688159807947426,-0.38298565399629125
1781515646058650880,1.9370789527893066,0.24378815293312073,-0.048433952033519745,-0.42670947313308716,0.2747427225112915,-0.7823492884635925,0.5589691400527954,0.04321998357772827,-0.1242671012878418,-0.13382863998413086,-0.2799534076465836,-0.2617473324152005,-0.8431920911825822,-0.3770167898519533,0.8984287946000913,2.6847546082537277,-0.37876962192648456
1781515646068685056,1.947113037109375,0.2819768190383911,-0.08427131175994873,-0.4443816840648651,0.2785373330116272,-0.7796300649642944,0.5608868598937988,0.0829281210899353,-0.21774542331695557,-0.03560304641723633,-0.2807269403844651,-0.2604467623963565,-0.8441628515883995,-0.3751653004952068,0.894074876537354,2.680667436914397,-0.37449604191806996
1781515646078719232,1.9571471214294434,0.16059233248233795,-0.09475431591272354,-0.4606325626373291,0.2825997769832611,-0.7770997285842896,0.562364399433136,0.06453767418861389,-0.17523193359375,-0.016053855419158936,-0.28167156732610127,-0.25899311686498877,-0.8450471925941515,-0.37346892175536217,0.8900444466401858,2.675930475917028,-0.36955528292777706
1781515646088752896,1.9671809673309326,0.04770040139555931,-0.10630417615175247,-0.4437161684036255,0.28669872879981995,-0.7752444744110107,0.5628497004508972,0.06559619307518005,-0.08504605293273926,-0.03927493095397949,-0.2828218399367509,-0.25740799654111546,-0.8456748546676918,-0.3722726653417309,0.8871020312882897,2.6704772060642665,-0.3638515495082075
1781515646098786048,1.9772140979766846,-0.04544658586382866,-0.10275764018297195,-0.4401576519012451,0.290729284286499,-0.7739315032958984,0.5625890493392944,0.05750676989555359,-0.05275911092758179,-0.02993530035018921,-0.2840865184842378,-0.2557372398081877,-0.84610459623444,-0.37148392086264,0.8850260908781704,2.6646190445094415,-0.3576545612539818
1781515646108820224,1.987248182296753,-0.1592722237110138,-0.09518934041261673,-0.44018426537513733,0.2946825623512268,-0.7731966376304626,0.5615420937538147,0.03844735026359558,-0.03124690055847168,0.016247272491455078,-0.2854413106680904,-0.25391435229434234,-0.8463442174075376,-0.3711500344405162,0.8838665085924402,2.658322992350106,-0.3507731509064625
1781515646118854144,1.9972820281982422,-0.2598009705543518,-0.0874406024813652,-0.41592952609062195,0.2985619902610779,-0.7731131315231323,0.5596042275428772,0.008231252431869507,0.008586764335632324,0.10520589351654053,-0.2869161611918181,-0.25194886864219934,-0.8463591901868505,-0.3713179556033979,0.8837348043763341,2.651487315079506,-0.3431524652839766
1781515646128888064,2.0073161125183105,-0.2614281475543976,-0.012395122088491917,-0.37563830614089966,0.301914244890213,-0.7734237909317017,0.5573716759681702,-0.0197945237159729,0.08035439252853394,0.14625680446624756,-0.2882155818107555,-0.24999933970273847,-0.846277831927755,-0.3718143055743664,0.8842247849665607,2.6451635261711224,-0.33568363784376637
1781515646138921984,2.0173499584198,-0.2092038244009018,0.06872343271970749,-0.36592841148376465,0.3046097159385681,-0.7735965251922607,0.5556630492210388,-0.024671941995620728,0.08316683769226074,0.0964975357055664,-0.2890626842673947,-0.24803261991738876,-0.846351778723033,-0.37230532843277886,0.884497251029687,2.6401390512943776,-0.32877827531513615
1781515646148956160,2.027384042739868,-0.20381811261177063,0.0953810065984726,-0.355066180229187,0.30693623423576355,-0.7736363410949707,0.5543252825737,0.010232925415039062,0.032501816749572754,0.05747568607330322,-0.28963358083538354,-0.24604887234820216,-0.8465356394941496,-0.37275943453037413,0.8845600941389934,2.6359044695942964,-0.3222158032769993
1781515646158990080,2.0374181270599365,-0.21746627986431122,0.11602183431386948,-0.33884087204933167,0.30905985832214355,-0.7737548351287842,0.5529782772064209,0.02883070707321167,-0.033450186252593994,0.09309399127960205,-0.2901059846198581,-0.2440607449114881,-0.846713340241664,-0.3732950996663656,0.884747168541835,2.631941694281698,-0.31573822202366136
1781515646169024000,2.047451972961426,-0.24658289551734924,0.15742014348506927,-0.31836196780204773,0.31084898114204407,-0.7739879488945007,0.5516477227210999,0.009219318628311157,-0.12473934888839722,0.09881901741027832,-0.2904169029851848,-0.24208453170833524,-0.8468877898473338,-0.373943912742318,0.8851152166644818,2.6284500567471842,-0.3094600900289444
1781515646179057152,2.0574851036071777,-0.4075603187084198,0.13791462779045105,-0.3011808395385742,0.31239205598831177,-0.774809718132019,0.5496187210083008,0.010178685188293457,-0.1246500015258789,0.04483306407928467,-0.29073549041611635,-0.24002269552719654,-0.8468757138034188,-0.3750511788607741,0.8864140273738661,2.6247480358872237,-0.30270193043223326
1781515646189091072,2.067518949508667,-0.4707057476043701,0.07475295662879944,-0.25708770751953125,0.31399911642074585,-0.7763786911964417,0.5464798808097839,0.027263641357421875,-0.027713537216186523,0.010542154312133789,-0.29135378507092347,-0.23798275370183103,-0.8465247412567728,-0.3766602029464968,0.8888996660435445,2.620070338454297,-0.29531543323983767
1781515646199124992,2.0775530338287354,-0.5280409455299377,0.03626975417137146,-0.23632784187793732,0.31557223200798035,-0.7783439755439758,0.5427654981613159,0.010004490613937378,0.05193418264389038,-0.0044356584548950195,-0.2921604249796497,-0.23611182493096466,-0.8459515134592652,-0.3784962203248304,0.8920238059073916,2.6149503796259443,-0.28797841301293076
1781515646209159168,2.0875871181488037,-0.5269985795021057,0.00014783302322030067,-0.1988542228937149,0.31721577048301697,-0.7805349230766296,0.5386455655097961,-0.02649015188217163,0.026842474937438965,0.03516113758087158,-0.2931472928878319,-0.23436901803609234,-0.845218283297836,-0.3804494291613632,0.8955210681067408,2.6093646835178204,-0.28062800891076334
1781515646219193088,2.097620964050293,-0.474569708108902,0.0007955138571560383,-0.19308236241340637,0.31870386004447937,-0.7826228737831116,0.534723699092865,-0.04117697477340698,-0.01809746026992798,0.05177837610244751,-0.29408948258459977,-0.23281260968184553,-0.8444880864305244,-0.3822951593158236,0.8988682401922575,2.6041077238816137,-0.27386525507142506
1781515646229227008,2.1076550483703613,-0.315192312002182,-0.015785060822963715,-0.1813889592885971,0.32023295760154724,-0.7841640710830688,0.5315425992012024,-0.018841326236724854,-0.0008090734481811523,0.03307831287384033,-0.2949553288213829,-0.2314365649561782,-0.8439244056457232,-0.3837056762795126,0.9013478999477362,2.5993665469724174,-0.26792178940204714
1781515646239261184,2.1176891326904297,-0.2448616921901703,0.01252301037311554,-0.18308165669441223,0.321653813123703,-0.7850393652915955,0.5293887257575989,-0.008543431758880615,-0.04363507032394409,0.005142033100128174,-0.2956137001947613,-0.23025328770906014,-0.843609977450703,-0.3846014961266877,0.9027596839838831,2.59560748966396,-0.26309751878041404
1781515646249295104,2.127722978591919,-0.25952398777008057,-0.011041304096579552,-0.20544607937335968,0.323154091835022,-0.7857170701026917,0.5274656414985657,0.01067766547203064,-0.10539615154266357,-0.021926820278167725,-0.296254369263476,-0.2290674583544963,-0.8433628706177305,-0.3853576008913459,0.903854460357272,2.591920454702742,-0.2583606550146317
1781515646259329024,2.1377570629119873,-0.3066246509552002,-0.06596953421831131,-0.229552760720253,0.32506468892097473,-0.786521852016449,0.5250869989395142,0.02455994486808777,-0.10158538818359375,-0.042924463748931885,-0.29715841287307543,-0.22778983961060795,-0.8430037256922015,-0.3862038328948923,0.9051565992834449,2.5872702436502144,-0.25290991854550227
1781515646269361920,2.14778995513916,-0.3211420774459839,-0.0943918526172638,-0.24646969139575958,0.3273715078830719,-0.7874047160148621,0.5223233699798584,0.0036984682083129883,-0.05736762285232544,-0.0514371395111084,-0.29832314337909394,-0.22646612102568187,-0.8425406750574491,-0.3870937968913569,0.9065874491127839,2.581728586050908,-0.24689871574375719
1781515646279396096,2.1578240394592285,-0.2877795994281769,-0.11639142781496048,-0.27075982093811035,0.3299593925476074,-0.7881885766983032,0.5195052623748779,-0.008777141571044922,0.00033152103424072266,-0.08440077304840088,-0.2996244847869918,-0.22511524881082348,-0.8420663538177332,-0.3879079611793041,0.9078600794171042,2.5757337037743566,-0.2406361657938088
1781515646289430016,2.167858123779297,-0.20542213320732117,-0.12958860397338867,-0.3361004889011383,0.33297276496887207,-0.7884432673454285,0.5171908736228943,-0.005534440279006958,0.04015231132507324,-0.1404666304588318,-0.3009901346256797,-0.22370399795867715,-0.8417552831969967,-0.38834200215283055,0.9082740290451464,2.569581104811155,-0.23434868858689747
1781515646299463936,2.177891969680786,-0.19557936489582062,-0.1547650545835495,-0.34424230456352234,0.3364148736000061,-0.7883356809616089,0.515123188495636,-0.002934068441390991,0.07449907064437866,-0.146135151386261,-0.3024893148604234,-0.22224858517465712,-0.8415266881156174,-0.38850820721618395,0.9080991807351654,2.5630577215159405,-0.22792211983580443
1781515646309498112,2.1879260540008545,-0.17257976531982422,-0.16652770340442657,-0.4036198854446411,0.3401760160923004,-0.7880240678787231,0.5131257176399231,0.003985941410064697,0.041289567947387695,-0.14125388860702515,-0.30409771726896917,-0.2207246189890771,-0.8413343638080559,-0.38853778414001394,0.9075928641816603,2.556168487570887,-0.22124462461949723
1781515646319532032,2.197960138320923,-0.14347834885120392,-0.1711442917585373,-0.4663738012313843,0.34449681639671326,-0.7873486876487732,0.5112771391868591,0.01533597707748413,-0.019902408123016357,-0.10827714204788208,-0.3058396584740728,-0.21896571153283056,-0.8412446641182636,-0.38836021545999505,0.9064966207036225,2.5486701396829,-0.21387973748566738
1781515646329565952,2.207993984222412,-0.16848117113113403,-0.15405625104904175,-0.5425136089324951,0.34932130575180054,-0.7863422632217407,0.5095498561859131,0.004667401313781738,-0.054508745670318604,-0.059918999671936035,-0.3076685945644756,-0.21691600181289947,-0.8412623732189027,-0.3880274353659746,0.9048657848916728,2.5406314595839614,-0.20572224448233517
1781515646339600128,2.2180280685424805,-0.22295266389846802,-0.10453423857688904,-0.5830434560775757,0.35446175932884216,-0.7853174805641174,0.5075758099555969,-0.029342740774154663,-0.03801614046096802,-0.037086308002471924,-0.3095377280276827,-0.21449137437347787,-0.8412974184609618,-0.3878124124012044,0.9032088204477605,2.5319799706506556,-0.1964118634367958
1781515646349634048,2.228062152862549,-0.1878838837146759,-0.03289800137281418,-0.5873447060585022,0.359416663646698,-0.7843191623687744,0.5056313872337341,-0.045787513256073,-0.03739708662033081,0.01760774850845337,-0.31120182390293827,-0.21183276507324816,-0.841393241145077,-0.3877340887196794,0.9015978825614162,2.523636891468361,-0.18668874838523092
1781515646359666944,2.2380950450897217,-0.1632688194513321,0.030971791595220566,-0.6333774924278259,0.36420395970344543,-0.7829703688621521,0.5042942762374878,-0.07509571313858032,-0.06383132934570312,0.05391794443130493,-0.31255665693463397,-0.20897737894087068,-0.8417099139531491,-0.38750631164220195,0.899426600986435,2.5161187502760285,-0.17705042885509603
1781515646369701120,2.24812912940979,-0.14673778414726257,0.06034965440630913,-0.6402444243431091,0.36899057030677795,-0.7814109325408936,0.5032323598861694,-0.10902661085128784,-0.03675001859664917,0.03496032953262329,-0.3137627088533808,-0.20592792421087433,-0.842145995789207,-0.38721667883183786,0.8969237167841223,2.5089039251949283,-0.16720698469019882
1781515646379735040,2.2581629753112793,-0.10903435200452805,0.05616715922951698,-0.6293854117393494,0.37365078926086426,-0.779702365398407,0.5024433135986328,-0.12258267402648926,0.009957551956176758,-0.0002766251564025879,-0.31487055006638415,-0.2029260723457402,-0.8426402970582546,-0.38682667439232304,0.8941903523877294,2.502156649376934,-0.1577834219965462
1781515646389768960,2.2681970596313477,-0.12065292149782181,0.01123111043125391,-0.6355247497558594,0.37840142846107483,-0.7778952121734619,0.5016881227493286,-0.1273944079875946,0.01822131872177124,-0.013300180435180664,-0.3160537043672947,-0.1999983425182875,-0.8431160753613013,-0.3863493878066312,0.8913093362322844,2.4953730380053067,-0.14858917333441435
1781515646399803136,2.278231143951416,-0.11829309165477753,-0.03807199001312256,-0.615360677242279,0.3833458423614502,-0.7761173844337463,0.5006875395774841,-0.1347801387310028,-0.006551802158355713,0.00033479928970336914,-0.3174435473623978,-0.197184355467573,-0.8434821326120208,-0.3858573759076098,0.8884851749207132,2.4881575808293825,-0.13947602960866246
1781515646409837056,2.2882649898529053,-0.09532759338617325,-0.08632221072912216,-0.587133526802063,0.3883363902568817,-0.7743330001831055,0.4996027946472168,-0.11874416470527649,-0.03149878978729248,0.01809731125831604,-0.3189790002409347,-0.1945906128318222,-0.8437629356215882,-0.3852932819417787,0.8856603634062388,2.480853297400807,-0.13087040721893908
1781515646419870976,2.2982990741729736,-0.11018696427345276,-0.12746299803256989,-0.5618532299995422,0.39333656430244446,-0.7725843191146851,0.4983973205089569,-0.08768779039382935,-0.05206167697906494,0.0435338020324707,-0.320640178957949,-0.1921968166212496,-0.8439544071219285,-0.38469629196760435,0.8829014674452319,2.4734701050661747,-0.12270655073936121
1781515646429905152,2.308333158493042,-0.07186620682477951,-0.19099855422973633,-0.5328679084777832,0.3983652591705322,-0.7708908319473267,0.4970241189002991,-0.055759578943252563,-0.039732515811920166,0.048050522804260254,-0.32245590251210704,-0.19002461936020107,-0.844039514085134,-0.38407072678529053,0.8802385658844658,2.465937217806741,-0.11499199310035961
1781515646439939072,2.3183670043945312,0.04882612079381943,-0.22607478499412537,-0.5149930119514465,0.4034669101238251,-0.7688660025596619,0.4960436522960663,-0.03399065136909485,0.001974642276763916,0.04008907079696655,-0.3243729232560556,-0.18817892284419632,-0.8441626110720837,-0.38309308747274307,0.8770657714714339,2.4587524183620046,-0.10840126496034687
1781515646449972224,2.328400135040283,0.11505547165870667,-0.232191264629364,-0.5114939212799072,0.4085206985473633,-0.7663210034370422,0.49584582448005676,-0.024182230234146118,-0.0042479634284973145,0.05289071798324585,-0.326227510690223,-0.18661985313350254,-0.8444500835165947,-0.38164479283574404,0.8730950052780673,2.452455492723328,-0.10318781141256102
1781515646460005888,2.3384339809417725,0.1241360530257225,-0.26400911808013916,-0.5098302364349365,0.41368499398231506,-0.7636250853538513,0.4957231283187866,-0.02472323179244995,-0.026459693908691406,0.06186351180076599,-0.32814291745326013,-0.18510634758707617,-0.8447468253744725,-0.38007981632855453,0.8689092072586788,2.446161419124534,-0.09818918724714497
1781515646470040064,2.348468065261841,0.22852636873722076,-0.3030080497264862,-0.5186141133308411,0.4189964234828949,-0.7606177926063538,0.4958852529525757,-0.0070549845695495605,-0.0038779377937316895,0.0007882416248321533,-0.33015062357306585,-0.18377074040956104,-0.845086347335633,-0.37822984904734047,0.8642642369726523,2.4400398345833527,-0.09388193389953636
1781515646480074240,2.358502149581909,0.276607871055603,-0.35852667689323425,-0.5467672348022461,0.4246933162212372,-0.7570616006851196,0.4964808225631714,0.014607220888137817,0.030377089977264404,-0.06468760967254639,-0.33230992685830424,-0.1825562713722446,-0.8455256493153098,-0.3759383922413128,0.8588038820296802,2.433967756955348,-0.09020645419707848
1781515646490107904,2.3685359954833984,0.2785378694534302,-0.41775113344192505,-0.5612854361534119,0.43082597851753235,-0.753290593624115,0.49693259596824646,0.008001476526260376,-0.013326108455657959,-0.05209320783615112,-0.33474690783828925,-0.18141136630942406,-0.8459055615846673,-0.37346769953719633,0.8530511249023073,2.4273284020588752,-0.08659214609286393
1781515646500142080,2.378570079803467,0.2079944759607315,-0.4338566064834595,-0.5556169152259827,0.4371751844882965,-0.7496082782745361,0.4969560503959656,-0.02283802628517151,-0.05198168754577637,-0.02103447914123535,-0.33737623068992945,-0.1802500597173884,-0.8461607105827982,-0.3710785227207195,0.8474700895394012,2.4201035860002595,-0.08266914259882635
1781515646510176256,2.388604164123535,0.1734311729669571,-0.45063772797584534,-0.5166133046150208,0.4434230327606201,-0.7463405132293701,0.4963381588459015,-0.00789150595664978,-0.029339969158172607,0.004455149173736572,-0.3400970787706875,-0.17909411927476962,-0.8462235977241601,-0.36900514413827806,0.8425466458039788,2.412442078407896,-0.0783779905977395
1781515646520209920,2.3986380100250244,0.20420053601264954,-0.44292041659355164,-0.5082421898841858,0.44945287704467773,-0.7431106567382812,0.49576112627983093,0.008341431617736816,-0.054924190044403076,0.02348029613494873,-0.342763942920007,-0.17808407059764866,-0.8462662822649591,-0.3669229624532818,0.8377069814723124,2.405147691678507,-0.07460520941733835
1781515646530244096,2.4086720943450928,0.20303966104984283,-0.4279000461101532,-0.464599609375,0.45525839924812317,-0.7398720979690552,0.4953076243400574,-0.010373055934906006,-0.05874258279800415,0.06879472732543945,-0.345328415042666,-0.1771589464911587,-0.8463264826579918,-0.364821415500791,0.8328802034905936,2.3983015418416063,-0.07126414000301289
1781515646540276992,2.4187049865722656,0.3029894232749939,-0.3768922686576843,-0.40780237317085266,0.46048504114151,-0.7366552948951721,0.4952700138092041,-0.029836297035217285,-0.042427897453308105,0.11793488264083862,-0.34761660551996554,-0.17647200917825567,-0.8464588782816254,-0.36266741564974847,0.8281111394568702,2.392573717467875,-0.06898319922616719
1781515646550311168,2.428739070892334,0.38201767206192017,-0.30884942412376404,-0.3708536624908447,0.4650605320930481,-0.733104944229126,0.4962621331214905,-0.02383732795715332,-0.0768621563911438,0.09854072332382202,-0.3494676059318886,-0.17605046344596403,-0.846839592544409,-0.3601963480066387,0.8228760789658436,2.3886400279343327,-0.06830487344860604
1781515646560345088,2.4387731552124023,0.37523165345191956,-0.3035220205783844,-0.3168303966522217,0.46908891201019287,-0.7296018600463867,0.4976311922073364,0.001659989356994629,-0.10188007354736328,0.047260165214538574,-0.35103651159500543,-0.17580350073061082,-0.8472949453578756,-0.3577119037827526,0.8177396012013425,2.385710776501602,-0.068450665762811
1781515646570379008,2.4488070011138916,0.4544444680213928,-0.302583783864975,-0.26489076018333435,0.47275519371032715,-0.7261497974395752,0.49920853972435,0.011055290699005127,-0.0817267894744873,-0.03665357828140259,-0.35248917753353104,-0.17582267109483604,-0.8477562486736686,-0.35517205017192116,0.8127053078849584,2.383404147452246,-0.06946442299330878
1781515646580413184,2.45884108543396,0.477628618478775,-0.3010178506374359,-0.23221325874328613,0.47605401277542114,-0.7226001620292664,0.5012200474739075,0.01228824257850647,-0.07732659578323364,-0.10336244106292725,-0.35378541248562895,-0.1761435937030235,-0.8482826498635236,-0.35245685396713333,0.8075563721512831,2.3819400401985114,-0.071597878550011
1781515646590447104,2.4688751697540283,0.38823428750038147,-0.32781073451042175,-0.17529670894145966,0.4791385233402252,-0.7193942070007324,0.5028899312019348,0.03695946931838989,-0.1269497275352478,-0.08908683061599731,-0.355109154640332,-0.17661577119560584,-0.8486765143381948,-0.3499321810289053,0.8029297729453937,2.3803758354936186,-0.07385191466213496
1781515646600481024,2.4789090156555176,0.2178468406200409,-0.32459551095962524,-0.13033615052700043,0.4818851351737976,-0.717141330242157,0.5034831166267395,0.05388152599334717,-0.1562412977218628,-0.0017587542533874512,-0.35649887957919085,-0.17707427904157813,-0.848755718479843,-0.3480906122278331,0.7996918397329751,2.3781096925415213,-0.07525496780485927
1781515646610515200,2.488943099975586,0.11864514648914337,-0.2905552387237549,-0.06420985609292984,0.4841589629650116,-0.7158447504043579,0.503146767616272,0.059923768043518066,-0.12990421056747437,0.0727657675743103,-0.3578513412294924,-0.17749837119459158,-0.8485680423279569,-0.3469425475395925,0.7978331901837463,2.375424093830441,-0.07587724048324211
1781515646620549120,2.4989771842956543,0.07600634545087814,-0.220012366771698,0.0013086970429867506,0.4856935739517212,-0.7152029871940613,0.5025794506072998,0.05341464281082153,-0.09378743171691895,0.09709078073501587,-0.3589167029791284,-0.17797215041837616,-0.8483016208900351,-0.34624984857972646,0.796914470570951,2.3732790686517493,-0.07647621112006077
1781515646630582016,2.509010076522827,0.160551056265831,-0.12255718559026718,0.11472660303115845,0.48618078231811523,-0.7148998975753784,0.5025400519371033,0.054102420806884766,-0.09155762195587158,0.185829758644104,-0.35946688919784314,-0.17872103797179448,-0.8481325482732551,-0.34570735165568905,0.7964809455493911,2.372738877972856,-0.07819102146268934
1781515646640616960,2.519044876098633,0.2399127185344696,-0.00023552915081381798,0.2112102508544922,0.485291451215744,-0.7146770358085632,0.5037155151367188,0.05250462889671326,-0.14460647106170654,0.23329931497573853,-0.359241561966365,-0.17988044936297493,-0.8482339164589816,-0.3450911186163423,0.7961622797121193,2.3748211660438834,-0.0818970389530063
1781515646650650880,2.529078960418701,0.2999510169029236,0.04728991538286209,0.31270360946655273,0.4832810163497925,-0.7145938873291016,0.5057619214057922,0.07696068286895752,-0.11336326599121094,0.12367844581604004,-0.35842506061364954,-0.1814082720711097,-0.8485116312756555,-0.3444568704461729,0.7960433579394677,2.378920515603137,-0.08721081057320558
1781515646660685056,2.5391130447387695,0.33530768752098083,0.0802806168794632,0.4268704056739807,0.4803057014942169,-0.7147672772407532,0.5083450675010681,0.08487996459007263,-0.05703771114349365,0.04153597354888916,-0.35722819392415334,-0.18344944084542728,-0.8488338073603161,-0.34382503723897045,0.7962912549242199,2.384548113092727,-0.09420807820996444
1781515646670718976,2.549146890640259,0.24651603400707245,0.1054803803563118,0.49787506461143494,0.47649019956588745,-0.7154416441917419,0.510979950428009,0.06710419058799744,-0.11321741342544556,0.013998627662658691,-0.35573935060630046,-0.1857981088464572,-0.8490989512417082,-0.3434524557508959,0.7972560110468888,2.3911076806558267,-0.1020313121177763
1781515646680752896,2.559180974960327,0.06726185232400894,0.11132921278476715,0.6013039350509644,0.4720085859298706,-0.7172225117683411,0.5126399993896484,0.08429637551307678,-0.17352455854415894,0.030954360961914062,-0.35418843531675354,-0.18822497312263392,-0.8490532089720534,-0.3438467196475004,0.7998083284353329,2.3974359759438624,-0.10935696872461852
1781515646690787072,2.5692150592803955,-0.04657603055238724,0.14749068021774292,0.7045989036560059,0.46664854884147644,-0.7202791571617126,0.513261079788208,0.11634397506713867,-0.14414644241333008,0.05976742506027222,-0.3525200671712021,-0.19079854637466867,-0.8486615652510007,-0.34510724682343313,0.8042046446103165,2.4037268574211605,-0.11635599972342729
1781515646700820992,2.5792489051818848,-0.11299766600131989,0.20915058255195618,0.8028213381767273,0.4602566361427307,-0.7241722345352173,0.5135550498962402,0.11876866221427917,-0.11960834264755249,0.08585613965988159,-0.3505170363917897,-0.19356316845688407,-0.8481219338674224,-0.34692999013533726,0.8098333285755782,2.4108716626064246,-0.12374688599777975
1781515646710854912,2.589282989501953,-0.21829159557819366,0.2576274275779724,0.9288312196731567,0.4527274966239929,-0.7290256023406982,0.5133801698684692,0.10885694622993469,-0.10306662321090698,0.10560780763626099,-0.3481684774628288,-0.19653020373323998,-0.8473877289223191,-0.34941168280822005,0.8168973032405181,2.4188926562786475,-0.13152288038476287
1781515646720887808,2.599315881729126,-0.1441582441329956,0.2877083718776703,1.0545884370803833,0.44403383135795593,-0.7344813346862793,0.513197124004364,0.11016541719436646,-0.13470512628555298,0.159959614276886,-0.3454503268595556,-0.19992694873689543,-0.8465387003238375,-0.35222943915284305,0.8249021218841643,2.428322646629039,-0.14065221331800454
1781515646730921984,2.6093499660491943,-0.0019430506508797407,0.36006179451942444,1.1607670783996582,0.43414461612701416,-0.7397097945213318,0.5141477584838867,0.11514130234718323,-0.1648159623146057,0.20506000518798828,-0.34217051208487004,-0.20396192137461655,-0.8458566225899729,-0.35474704784338174,0.8326389897621651,2.4403606955662447,-0.15257999913274387
1781515646740956160,2.6193840503692627,0.01941576786339283,0.4138379395008087,1.2486369609832764,0.4231667220592499,-0.7448158860206604,0.515925407409668,0.12268587946891785,-0.12733066082000732,0.17837995290756226,-0.33835963670336133,-0.2084085589824293,-0.8452979136435845,-0.357141410270801,0.840258848182123,2.4546499351157065,-0.16659470896232786
1781515646750989824,2.629417896270752,0.04121773689985275,0.48743000626564026,1.3447496891021729,0.41110771894454956,-0.7501123547554016,0.5179981589317322,0.10280832648277283,-0.11704462766647339,0.2112804651260376,-0.3340977352058882,-0.2131482982720889,-0.8447288741253243,-0.3596938884877766,0.8482319591327442,2.4707374428100866,-0.18209852164970344
1781515646761024000,2.6394519805908203,0.1403597593307495,0.6090797185897827,1.4236558675765991,0.3977799117565155,-0.7552688717842102,0.5209033489227295,0.07890471816062927,-0.16004496812820435,0.21382254362106323,-0.3291648759589757,-0.21817424253831783,-0.844305442787754,-0.3622138643195228,0.8560642498989487,2.4894222448822214,-0.19960202804586294
1781515646771057920,2.6494858264923096,0.18190507590770721,0.6865746378898621,1.5056359767913818,0.38317903876304626,-0.7601061463356018,0.5247975587844849,0.11125147342681885,-0.1622113585472107,0.11973369121551514,-0.3235171506211794,-0.22347910466678023,-0.844071017152174,-0.36460647595510604,0.8634764797523513,2.5109194273978583,-0.21928444052900642
1781515646781091840,2.659519910812378,0.14593589305877686,0.69756019115448,1.6130037307739258,0.3675417900085449,-0.7651194334030151,0.5286825299263,0.13988924026489258,-0.1505299210548401,0.059452176094055176,-0.31750696518814175,-0.229067038556498,-0.8437236280794317,-0.36721663403091953,0.8712268421216283,2.534093263239733,-0.24047476361712783
1781515646791126016,2.6695539951324463,0.0842517539858818,0.6970648765563965,1.6825804710388184,0.3510640859603882,-0.7704375386238098,0.5321466326713562,0.1208139955997467,-0.16495674848556519,0.0017888545989990234,-0.3113423836386342,-0.23497153988219702,-0.8431261462281601,-0.3701251130039157,0.8795271548607683,2.5584195731988144,-0.2630156956597474
1781515646801159936,2.6795878410339355,0.017753954976797104,0.6843128800392151,1.7308952808380127,0.3341425359249115,-0.7760478258132935,0.5348818898200989,0.1067754328250885,-0.13439834117889404,-0.0456392765045166,-0.3051815661028785,-0.24094646376754825,-0.8422503982368083,-0.3733942842574537,0.8883748098747983,2.5832066417180752,-0.28607361402115605
1781515646811193856,2.689621925354004,0.04951801151037216,0.7175396680831909,1.813437819480896,0.3165096342563629,-0.7816674113273621,0.5374175310134888,0.1150546669960022,-0.17316651344299316,0.060116589069366455,-0.298851323014701,-0.24718005550394118,-0.8411960381846684,-0.37680114701621675,0.8973348364341605,2.609341092317816,-0.3106314896200129
1781515646821227008,2.699655055999756,0.04380339756608009,0.768263578414917,1.8570669889450073,0.2980481684207916,-0.7870725989341736,0.540077805519104,0.10374626517295837,-0.22359329462051392,0.124106764793396,-0.2921732656566839,-0.2535787159778008,-0.8400813911136659,-0.38025763639910154,0.9060488332139723,2.6373213830794704,-0.3367970970257719
1781515646831260928,2.709688901901245,0.043572504073381424,0.7886508703231812,1.9101637601852417,0.2788941562175751,-0.7922866940498352,0.5426784753799438,0.13861680030822754,-0.1537734866142273,0.08943212032318115,-0.2852194407888998,-0.2600642561345767,-0.83887175170342,-0.3838107114440168,0.914547689401434,2.6668699170527805,-0.3642777664226324
1781515646841295104,2.7197229862213135,0.04788123071193695,0.8125830888748169,1.9906882047653198,0.25898632407188416,-0.7972886562347412,0.5452126264572144,0.15545761585235596,-0.1415387988090515,0.14886385202407837,-0.27802796786003037,-0.266788679913251,-0.837514243506057,-0.3874198141223448,0.9227898253395109,2.69812885489608,-0.39353222539099414
1781515646851328768,2.7297568321228027,0.018000563606619835,0.8603526949882507,2.035904884338379,0.23818998038768768,-0.8021383881568909,0.5475757718086243,0.12026944756507874,-0.17285233736038208,0.15611368417739868,-0.27052194525766415,-0.2736777948497395,-0.8359954230452034,-0.39119035831024507,0.930867729227284,2.7312908994244505,-0.42449119270107755
1781515646861362944,2.739790916442871,-0.0039944835007190704,0.8705467581748962,2.045445680618286,0.21697643399238586,-0.8067865967750549,0.5495604276657104,0.11709947884082794,-0.09696096181869507,0.06060802936553955,-0.2628758146293763,-0.28051255460929836,-0.8343218260966905,-0.3951153292668979,0.9386931028328649,2.7655613298212995,-0.45630006104443027
1781515646871397120,2.7498250007629395,0.02350638248026371,0.9009498357772827,2.070498466491699,0.19536274671554565,-0.8109679222106934,0.5515109896659851,0.10601356625556946,-0.026754796504974365,0.05346947908401489,-0.2550505628095605,-0.28738694545579896,-0.8325648515761512,-0.3989908560953419,0.9458045487746927,2.801152817931659,-0.4893261690691979
1781515646881430784,2.7598588466644287,0.010057685896754265,0.9353988766670227,2.0884437561035156,0.17329318821430206,-0.8147149682044983,0.5533618927001953,0.08425995707511902,-0.007627129554748535,0.08103764057159424,-0.24699357688668208,-0.29422634274048,-0.830729676654614,-0.40288133114339486,0.9522375104243882,2.8381026950281707,-0.5233917813456581
1781515646891464960,2.769892930984497,0.055079489946365356,0.9543508291244507,2.1326143741607666,0.1507747769355774,-0.8179756999015808,0.5551425218582153,0.0987979918718338,-0.033846378326416016,0.11423015594482422,-0.23874428204298137,-0.3011350026460003,-0.8287876457402242,-0.4067309379934767,0.9578831414872829,2.8763933647189224,-0.558724617098575
1781515646901499136,2.7799270153045654,0.07453068345785141,1.0170164108276367,2.1763346195220947,0.12755276262760162,-0.8205829858779907,0.5571123361587524,0.10271763801574707,-0.11359071731567383,0.17459243535995483,-0.23012595576875752,-0.30816109038728107,-0.8267967789104183,-0.41047043065195327,0.9624303304121022,2.9165185057103775,-0.5956492669089262
1781515646911532800,2.7899608612060547,0.015251116827130318,1.0211187601089478,2.2018303871154785,0.10381718724966049,-0.8229074478149414,0.558610200881958,0.1090734526515007,-0.1177663803100586,0.188826322555542,-0.22131286706819778,-0.31514013120379925,-0.8246161508109952,-0.41438572416745656,0.9665093930891956,2.9578400389939676,-0.633454387448023
1781515646921565952,2.7999939918518066,0.021554552018642426,1.0313061475753784,2.2759640216827393,0.0795268639922142,-0.8248472809791565,0.559734046459198,0.1240558996796608,-0.060971081256866455,0.12477517127990723,-0.21236086682049704,-0.32229033145025493,-0.8221897467863055,-0.41837275923321243,0.9699320410335431,3.0004575500225372,-0.6727057789942825
1781515646931599872,2.810027837753296,-0.09062125533819199,1.0263707637786865,2.3007402420043945,0.054783713072538376,-0.826557993888855,0.5601792931556702,0.11208638548851013,-0.02999413013458252,0.1332564353942871,-0.20333644446630392,-0.3294965590046668,-0.8194642584961607,-0.4225691837293746,0.9729646536258522,3.0441059131275217,-0.713021828022484
1781515646941634048,2.8200619220733643,-0.19448426365852356,1.0269619226455688,2.3562448024749756,0.029671132564544678,-0.8283436894416809,0.5594338178634644,0.09300953149795532,-0.049738526344299316,0.18101412057876587,-0.19440461631424202,-0.33674557536716565,-0.8162838586192377,-0.42718834169581144,0.9761446460381746,3.088604514774493,-0.7543938391704332
1781515646951667968,2.8300960063934326,-0.24727877974510193,1.0336945056915283,2.3527750968933105,0.004281639587134123,-0.8300119638442993,0.5577290058135986,0.06310116499662399,-0.06148272752761841,0.10669964551925659,-0.1854834054468431,-0.3439142286691717,-0.8127653499466307,-0.43212421239521814,0.97912908813258,3.133915887258472,-0.7964992754104163
1781515646961701888,2.840129852294922,-0.28796815872192383,1.034458041191101,2.3748207092285156,-0.021188946440815926,-0.8313080072402954,0.5554081797599792,0.08132383972406387,-0.022634923458099365,0.06902718544006348,-0.17659626119582586,-0.3510384532106067,-0.8089969743833829,-0.4371609808938462,0.9814568343391991,-3.1034609222016853,-0.8391766896607684
1781515646971736064,2.8501639366149902,-0.38238757848739624,1.048416018486023,2.3677611351013184,-0.04680311307311058,-0.8323334455490112,0.5522959232330322,0.09317456185817719,-0.023074328899383545,0.07688504457473755,-0.16772126159101047,-0.3580620784680156,-0.804946902752998,-0.44240447700513563,0.983304428489202,-3.057051823593879,-0.8823794461345472
1781515646981769984,2.8601980209350586,-0.45280903577804565,1.0219652652740479,2.351086378097534,-0.07222077995538712,-0.8332496881484985,0.5481602549552917,0.08061309158802032,-0.06576782464981079,0.06097078323364258,-0.15904876517707828,-0.364898462768307,-0.8005805635910707,-0.44791019371544205,0.984959484981386,-3.0105959205308177,-0.9256825340629194
1781515646991803904,2.870231866836548,-0.46063631772994995,1.0171961784362793,2.3524699211120605,-0.0974469780921936,-0.833798348903656,0.5434005856513977,0.0872846394777298,-0.06671428680419922,0.059489309787750244,-0.15052517189216208,-0.37165553930717576,-0.7959726537933076,-0.45347746179397175,0.9859525558083024,-2.964150638883506,-0.969173388770565
1781515647001838080,2.880265951156616,-0.46220600605010986,1.0299266576766968,2.3445146083831787,-0.12270240485668182,-0.8336639404296875,0.5384688377380371,0.10367467999458313,-0.03784191608428955,0.08460861444473267,-0.1419120349769351,-0.3783494244411569,-0.7912560422951408,-0.45894072230574406,0.9857090937274523,-2.9175455134906567,-1.0127379851787237
1781515647011870976,2.890298843383789,-0.5398007035255432,1.0282955169677734,2.328260898590088,-0.14771877229213715,-0.8332045078277588,0.5328690409660339,0.09168849885463715,-0.010453939437866211,0.12335038185119629,-0.13341727358976666,-0.38486005807820206,-0.7863315151116003,-0.4645054489553901,0.9848777672718111,-2.871169239546097,-1.0560449696480447
1781515647021904896,2.9003329277038574,-0.49772536754608154,1.0707238912582397,2.343897581100464,-0.17279471457004547,-0.8322638273239136,0.5267627239227295,0.05562247335910797,-0.052028775215148926,0.15391647815704346,-0.12485204592301936,-0.3912357762533551,-0.7812271986684739,-0.4701389344084583,0.9831787726539614,-2.824621412259995,-1.0993048869151543
1781515647031939072,2.910367012023926,-0.4989592134952545,1.132336139678955,2.3298537731170654,-0.19816280901432037,-0.830418586730957,0.5207078456878662,0.029064878821372986,-0.01095116138458252,0.06590110063552856,-0.11591540883520086,-0.3974767703652718,-0.776122503012224,-0.4756151243453474,0.9798585408261462,-2.7779526459898114,-1.1420804462501184
1781515647041972992,2.920400857925415,-0.5247546434402466,1.0672119855880737,2.2664124965667725,-0.2230023592710495,-0.8283013701438904,0.513991117477417,0.0644635409116745,0.16523069143295288,-0.04394412040710449,-0.10717041734464011,-0.4034291071508426,-0.7708699677406463,-0.4811641777799523,0.9760691003090838,-2.732237940515204,-1.1838068980881646
1781515647052006912,2.9304349422454834,-0.4676303267478943,1.017497181892395,2.2653756141662598,-0.24713270366191864,-0.8254492878913879,0.5075027346611023,0.11503736674785614,0.18674689531326294,-0.05718541145324707,-0.0986622304934663,-0.4093993480858113,-0.7656001187218643,-0.48632750971904787,0.9709977035560471,-2.6884326843240527,-1.2241930574544997
1781515647062041088,2.9404690265655518,-0.5278801321983337,1.032743215560913,2.2625174522399902,-0.27098116278648376,-0.8220971822738647,0.5007248520851135,0.10108980536460876,0.010131239891052246,0.0647047758102417,-0.09024093100143903,-0.4153071461217996,-0.7601857630902656,-0.4914205117246971,0.9650847305122197,-2.645547960545779,-1.263805828954708
1781515647072075008,2.950502872467041,-0.7525667548179626,1.0845372676849365,2.266197919845581,-0.2949422597885132,-0.8187990784645081,0.492521196603775,0.07069909572601318,-0.12011998891830444,0.09015095233917236,-0.08191551809798042,-0.42103168362429183,-0.7543161913006434,-0.4970203761350705,0.95931600386751,-2.6020252476301513,-1.3039020873783005
1781515647082108928,2.9605369567871094,-0.894058346748352,1.0740926265716553,2.264843702316284,-0.3187732696533203,-0.8159740567207336,0.4822552800178528,0.10725587606430054,-0.08359271287918091,0.12000912427902222,-0.07396394585637184,-0.4265035359370579,-0.7478117280813699,-0.5033902814109849,0.9544122005989922,-2.557519773952206,-1.3450675073310994
1781515647092143104,2.9705710411071777,-0.8286013007164001,1.173417329788208,2.263186454772949,-0.3426785171031952,-0.8125694394111633,0.4714895486831665,0.11997649073600769,-0.02732008695602417,0.067038893699646,-0.06589004638481209,-0.4318621881576233,-0.7411071613879163,-0.5098173801721829,0.9485470020545181,-2.5131057307643023,-1.3858893767052323
1781515647102177024,2.980604887008667,-0.6840843558311462,1.1984140872955322,2.155355930328369,-0.36624088883399963,-0.8082700967788696,0.4610499441623688,0.12187141180038452,0.0923582911491394,-0.19663038849830627,-0.057421322986633175,-0.4367092799223184,-0.7347176132983454,-0.5159242417778953,0.9412082197731685,-2.4702985224513774,-1.4238471305826677
1781515647112210944,2.9906389713287354,-0.4938238263130188,1.0487998723983765,2.1293811798095703,-0.3887162208557129,-0.8028645515441895,0.45200490951538086,0.2551407217979431,0.1985248327255249,-0.21268600225448608,-0.04901095166361641,-0.4414782097655578,-0.7287656954951907,-0.5211482953041014,0.9320847529902879,-2.431331794033558,-1.4581678799743178
1781515647122243840,3.000671863555908,-0.47357529401779175,0.9912034273147583,2.0398757457733154,-0.40993785858154297,-0.7966092824935913,0.4442572593688965,0.27614882588386536,0.16874068975448608,-0.10325387120246887,-0.04092333411103047,-0.44632229477063134,-0.7231355626310881,-0.5255441097357879,0.9216650933087875,-2.396350358397378,-1.489316551081806
1781515647132278016,3.0107059478759766,-0.5621967911720276,1.0093899965286255,1.9863996505737305,-0.4303376078605652,-0.7903996109962463,0.43597954511642456,0.2049652338027954,0.07636445760726929,-0.07666558027267456,-0.03315785741589358,-0.45085463452325086,-0.7174398049317005,-0.5300102239873021,0.9114610513999822,-2.362706969419903,-1.519126339209676
1781515647142311936,3.020740032196045,-0.7308739423751831,1.0063399076461792,1.9656049013137817,-0.4503362774848938,-0.7845064997673035,0.4263177216053009,0.2108343541622162,0.03273648023605347,-0.0342126190662384,-0.02574273309137229,-0.45513984962964243,-0.7113413959689886,-0.5349564829260148,0.9018998646700008,-2.3288033565482587,-1.5492850503212285
1781515647152345856,3.030773878097534,-0.7560828924179077,1.003411054611206,1.97366201877594,-0.46997392177581787,-0.7786468863487244,0.4157325029373169,0.24664628505706787,0.020132482051849365,0.0907372236251831,-0.018630570740009327,-0.45933373065165833,-0.7048962825169693,-0.5401727990860815,0.8925064505655284,-2.2950299956378593,-1.5796388178942873
1781515647162380032,3.0408079624176025,-0.7401785254478455,1.055482029914856,1.9677314758300781,-0.48960646986961365,-0.77214515209198,0.4050649106502533,0.19318917393684387,0.01446986198425293,0.07752484083175659,-0.011310924250155997,-0.4634294495897344,-0.6984021776760778,-0.545288634031769,0.8822101103783261,-2.261979706462719,-1.6089096353171974
1781515647172413952,3.050842046737671,-0.7184085249900818,1.0325114727020264,1.9158743619918823,-0.5087248682975769,-0.7654037475585938,0.3941524922847748,0.1676604151725769,0.14438629150390625,-0.024767637252807617,-0.004072417409072657,-0.4672857986162367,-0.6918961122023939,-0.5503700541876615,0.8716685022636882,-2.2299722052198954,-1.6369254728652083
1781515647182447872,3.06087589263916,-0.5146106481552124,1.0179888010025024,1.8450782299041748,-0.5271192789077759,-0.758094847202301,0.38397616147994995,0.2304883599281311,0.295951783657074,-0.1171608567237854,0.0031701211763641114,-0.4709832755864099,-0.685684210621212,-0.5549792235406208,0.8603867455462495,-2.200357389836408,-1.66239854413162
1781515647192482048,3.0709099769592285,-0.23683758080005646,0.9617732167243958,1.7137080430984497,-0.5444604158401489,-0.7499095797538757,0.37576428055763245,0.2802543640136719,0.35652267932891846,-0.3226941227912903,0.01072232160254753,-0.4743073809829389,-0.680378316064602,-0.55857228984351,0.8479254106224661,-2.174887076704942,-1.6828012823066805
1781515647202515968,3.080944061279297,-0.25062158703804016,0.7298086881637573,1.5685782432556152,-0.5598779916763306,-0.7417043447494507,0.3693388104438782,0.38533276319503784,0.33748382329940796,-0.31605520844459534,0.017664601907383004,-0.4774958558600756,-0.6757714966347683,-0.5612650987248688,0.8356078694220234,-2.153944538436317,-1.6994319289299449
1781515647212549888,3.090977907180786,-0.43552592396736145,0.5641763210296631,1.5020897388458252,-0.5735592246055603,-0.7342020273208618,0.363286554813385,0.3729825019836426,0.10837811231613159,-0.03888466954231262,0.023336851585598485,-0.4809213327260223,-0.6710871371074603,-0.5637482476209317,0.8244905786698009,-2.1354059909957916,-1.7159368999442155
1781515647222583040,3.101011037826538,-0.5177675485610962,0.5727277398109436,1.4604920148849487,-0.5863823294639587,-0.727340042591095,0.35655635595321655,0.12639081478118896,-0.1477515697479248,0.05913880467414856,0.02822657575270307,-0.48435743336937076,-0.6660901267159509,-0.5665025689018734,0.8144380095907459,-2.117122114053636,-1.7333327228969433
1781515647232616960,3.1110448837280273,-0.5573892593383789,0.6478813290596008,1.481989860534668,-0.5990923047065735,-0.7206172347068787,0.34899717569351196,-0.04324162006378174,-0.13894081115722656,0.16984745860099792,0.03303093264683956,-0.4875901747419965,-0.6608739697312924,-0.5695702941497639,0.8046921668426961,-2.098281048255556,-1.7510629743645634
1781515647242650880,3.1210789680480957,-0.22961269319057465,0.8509878516197205,1.617173671722412,-0.6127780675888062,-0.7126210331916809,0.3415766954421997,-0.12219208478927612,-0.11976122856140137,0.2502659857273102,0.03891945374739048,-0.49064000594359664,-0.6557901533273298,-0.5724482982450059,0.793227219300449,-2.0793208282933153,-1.7671223883219533
1781515647252685056,3.131113052368164,-0.2054429054260254,0.9485805630683899,1.6054712533950806,-0.6274017691612244,-0.7031669616699219,0.33454960584640503,-0.1749206781387329,-0.0074196457862854,0.07401970028877258,0.04610947711449021,-0.49337892630415225,-0.651039194543134,-0.5749775355558263,0.7798417869995281,-2.060673397468132,-1.7805427954970703
1781515647262718976,3.1411468982696533,-0.2481464296579361,0.8529453873634338,1.5254582166671753,-0.6413527131080627,-0.6940163373947144,0.3271210789680481,-0.022908151149749756,0.34500205516815186,0.00449824333190918,0.05298347321320341,-0.49589858456785063,-0.6462546985923706,-0.5776090924823364,0.7670527015680004,-2.042450507566308,-1.7936137041583593
1781515647272752896,3.1511809825897217,-0.16412129998207092,0.7819548845291138,1.4709712266921997,-0.6543525457382202,-0.6849088668823242,0.3205035924911499,0.08022534847259521,0.4038877487182617,-0.0737842321395874,0.05944499021584092,-0.4984653561440298,-0.64170404260602,-0.5798400529510958,0.7544786286948901,-2.0262527926502525,-1.8053847096947937
1781515647282786816,3.161214828491211,-0.3869461119174957,0.7248476147651672,1.3635188341140747,-0.6663949489593506,-0.6763761639595032,0.3137403130531311,0.008603870868682861,0.17419421672821045,-0.12627080082893372,0.06532504290915725,-0.5008845103002628,-0.6371694153625758,-0.5821189471246602,0.742831492697601,-2.010814186368489,-1.8169708211532354
1781515647292820992,3.1712489128112793,-0.4260226786136627,0.6440960764884949,1.3859895467758179,-0.6777005195617676,-0.6684441566467285,0.3064388036727905,0.0030025839805603027,-0.02879101037979126,-0.03236040472984314,0.070443269263489,-0.503389946021837,-0.6323116045217549,-0.5846524328157789,0.7321149765745516,-1.99545699656714,-1.8297292722921883
1781515647302854912,3.1812829971313477,-0.417141854763031,0.5907492637634277,1.4083075523376465,-0.6888982057571411,-0.6601685881614685,0.2993270456790924,-0.014318346977233887,-0.1362486481666565,0.04483497142791748,0.07541871184048263,-0.5061431708490778,-0.627281920752236,-0.5870677139364967,0.7210431969937793,-1.9806868914135933,-1.8426094276770497
1781515647312888832,3.191316843032837,-0.18982639908790588,0.6538079380989075,1.5069007873535156,-0.7001903653144836,-0.6510248780250549,0.293087363243103,-0.10150641202926636,-0.17818349599838257,0.12530863285064697,0.08075293961542743,-0.5090422972400356,-0.6224304142106399,-0.5890121722324985,0.7089338285197868,-1.9672186618249026,-1.8540181971409246
1781515647322923008,3.2013509273529053,-0.09981794655323029,0.8268654942512512,1.5664093494415283,-0.7123695611953735,-0.640379011631012,0.28713172674179077,-0.21940845251083374,-0.1355457305908203,0.01625874638557434,0.08734771133051082,-0.5117179047960615,-0.6178273607766103,-0.5905968474292717,0.6949916254425833,-1.9539427304173937,-1.8630953165074713
1781515647332956160,3.2113840579986572,-0.10792354494333267,0.8367982506752014,1.6144472360610962,-0.7248649001121521,-0.6292511224746704,0.28038159012794495,-0.09408950805664062,0.029061973094940186,0.023268312215805054,0.09439042456870014,-0.514149402487769,-0.6130588780146232,-0.5923678259304543,0.680589313221044,-1.9398764761990128,-1.8719003691532328
1781515647342989824,3.2214179039001465,-0.18847724795341492,0.7406075596809387,1.5796180963516235,-0.7370886206626892,-0.6178854703903198,0.2737109065055847,0.06625133752822876,0.12124252319335938,-0.031141936779022217,0.10118479279815219,-0.5168101859422427,-0.6080811495207544,-0.5940589941874843,0.6660505518846986,-1.926354877731593,-1.88098314882908
1781515647353024000,3.231451988220215,-0.2913394570350647,0.6628959774971008,1.5095117092132568,-0.7484763264656067,-0.607037365436554,0.2669995129108429,0.12359845638275146,0.17683112621307373,-0.1188977062702179,0.10730795646584357,-0.5195181382155285,-0.6029930910839167,-0.5958063640692203,0.6523271639088551,-1.9134488070714761,-1.8905192824673027
1781515647363057920,3.241485834121704,-0.35155829787254333,0.5289485454559326,1.494803547859192,-0.7590672373771667,-0.5966062545776367,0.2605336308479309,0.16958975791931152,0.137332022190094,-0.02461758255958557,0.11269039343867857,-0.5224423836596915,-0.5977631436241395,-0.5975232291331295,0.6392656385015008,-1.9014260893040988,-1.9006706111027356
1781515647373091840,3.2515199184417725,-0.2722512483596802,0.5877692699432373,1.5049757957458496,-0.769381582736969,-0.5857890844345093,0.2547609806060791,0.046313345432281494,-0.06188547611236572,0.0274045467376709,0.11807895823679171,-0.5254830537839346,-0.5926618398665192,-0.5988964027902042,0.625853361859384,-1.8905574899644684,-1.9099320574105212
1781515647383126016,3.261554002761841,-0.5181864500045776,0.766584575176239,1.5149075984954834,-0.7798491716384888,-0.5752093195915222,0.24691998958587646,-0.05094611644744873,-0.024613678455352783,0.015210747718811035,0.12349959049534995,-0.5281080132443928,-0.5869939705224958,-0.6010722480118311,0.6128600205287973,-1.8774350635389014,-1.9206392481155892
1781515647393159936,3.27158784866333,-0.35419216752052307,0.6975631713867188,1.5766843557357788,-0.7905163168907166,-0.5639970302581787,0.23872852325439453,0.11331599950790405,-0.010450601577758789,0.06751537322998047,0.12922118193375287,-0.5307125646152344,-0.5811268698504664,-0.6032724350361329,0.59921817629718,-1.8640783938687988,-1.9311677288213818
1781515647403193856,3.2816219329833984,-0.42122021317481995,0.6943420767784119,1.533486008644104,-0.8008137345314026,-0.5525419116020203,0.23107276856899261,0.07261866331100464,-0.08658766746520996,0.053808778524398804,0.13489166611636094,-0.5333661246496393,-0.5753754983273741,-0.6052006276038473,0.5854109323735086,-1.8517133727316741,-1.9409165233993013
1781515647413228032,3.291656017303467,-0.7530855536460876,0.7403969168663025,1.545436978340149,-0.8108981251716614,-0.5413748025894165,0.22216592729091644,0.07472258806228638,0.054909348487854004,0.03651630878448486,0.14009318705249113,-0.5360195499373689,-0.5690043986359068,-0.6076931552964324,0.5720713752072324,-1.8382094909725,-1.952529512900353
1781515647423261952,3.301689863204956,-0.7992149591445923,0.6732106804847717,1.454491376876831,-0.8205475807189941,-0.5307576060295105,0.21212755143642426,0.19821786880493164,0.1511494517326355,0.02267467975616455,0.14464016203487262,-0.5386411108728331,-0.5620760879006216,-0.6107499212422502,0.5594941874551886,-1.8237771289300875,-1.966007724591451
1781515647433295104,3.311722993850708,-0.9613338112831116,0.5877053737640381,1.3124891519546509,-0.8291432857513428,-0.5211320519447327,0.20234337449073792,0.23559165000915527,0.14552170038223267,-0.014492392539978027,0.14826517588344953,-0.5412439025321008,-0.5551817024948229,-0.6138776490451483,0.5481767923480937,-1.8101568947899824,-1.9800017269852253
1781515647443328768,3.3217568397521973,-1.0623493194580078,0.5345553159713745,1.1694015264511108,-0.8367038369178772,-0.5127869844436646,0.19229286909103394,0.23523277044296265,0.18339544534683228,0.00037994980812072754,0.150830431211824,-0.5437409664475376,-0.5481716827303482,-0.6173361244369928,0.5384279493462338,-1.7966955586322626,-1.9951983467667385
1781515647453362944,3.3317909240722656,-0.9302850961685181,0.4491432011127472,1.0458548069000244,-0.8432697057723999,-0.5053690075874329,0.18302582204341888,0.2439807653427124,0.12626445293426514,0.05542324483394623,0.15286178475567694,-0.5459967486516892,-0.541664529499767,-0.6205806778335621,0.5298095458051246,-1.7845244487756353,-2.009414781803822
1781515647463397120,3.341825008392334,-0.7964093089103699,0.3978520631790161,0.9846777319908142,-0.8491060137748718,-0.4983561038970947,0.17510168254375458,0.16783148050308228,0.014408290386199951,0.0894247442483902,0.15476505936069068,-0.5480863764147492,-0.535865811031007,-0.6232953626294233,0.5217016114765367,-1.774164363145876,-2.021678231596372
1781515647473430784,3.3518588542938232,-0.7282877564430237,0.4195174276828766,0.9913590550422668,-0.8546856641769409,-0.4912841022014618,0.16778793931007385,0.06740826368331909,-0.01610127091407776,0.13461081683635712,0.1567774865652441,-0.5500670725532286,-0.5303962537853651,-0.6257212148075871,0.5135634363395001,-1.764646486760774,-2.0327486631262435
1781515647483464960,3.3618929386138916,-0.476399302482605,0.5030170679092407,1.0327919721603394,-0.8603746891021729,-0.4835677444934845,0.16098877787590027,-0.005988717079162598,0.004350244998931885,0.11403559148311615,0.1595179153366588,-0.5517869030909197,-0.5253813888134301,-0.6277416160003838,0.5047261219211853,-1.7557720677494153,-2.041619430933705
1781515647493499136,3.37192702293396,-0.4590506851673126,0.6240617632865906,1.0268079042434692,-0.8662769198417664,-0.47528591752052307,0.15384195744991302,0.016804993152618408,0.17191073298454285,0.0010042041540145874,0.16304834038118954,-0.5530655900199529,-0.5206144736948651,-0.6296778192952587,0.4952889743622189,-1.746553737654372,-2.0488286969730414
1781515647503532800,3.381960868835449,-0.5873793959617615,0.4631386399269104,0.8774130344390869,-0.8716720342636108,-0.4676833748817444,0.146493598818779,0.2374250888824463,0.3698897361755371,-0.04166577756404877,0.16608747997820406,-0.554235856820758,-0.5158191658573649,-0.6317976338422652,0.48666804002831854,-1.7373008130618128,-2.0565784492730566
1781515647513566976,3.3919949531555176,-0.871427059173584,0.28960880637168884,0.6334826350212097,-0.8757228851318359,-0.46210452914237976,0.1398887038230896,0.31957054138183594,0.29676032066345215,-0.06861495971679688,0.16744738558055866,-0.5555934960826818,-0.5111362007014902,-0.6340481248003256,0.4803668543601999,-1.7291988768707862,-2.0659656798231314
1781515647523601152,3.402029037475586,-1.1201109886169434,0.14808602631092072,0.4343608021736145,-0.8784822225570679,-0.45878955721855164,0.133346825838089,0.2512695789337158,0.15210309624671936,-0.04829441010951996,0.16689327326396436,-0.5571089659588759,-0.5062637806949302,-0.6367678746906331,0.47663243028917285,-1.7214386657971392,-2.078116013893928
1781515647533634816,3.412062883377075,-1.1542060375213623,0.014007056131958961,0.2738227844238281,-0.8801907896995544,-0.4572327435016632,0.12728871405124664,0.23056310415267944,0.08778694272041321,0.08152782917022705,0.16497260533438257,-0.5586894655598584,-0.5015081641940219,-0.6396402803056561,0.47488112809572625,-1.7144155716286489,-2.091636533794317
