time,seconds_elapsed,rotationRateX,rotationRateY,rotationRateZ,gravityX,gravityY,gravityZ,accelerationX,accelerationY,accelerationZ,quaternionW,quaternionX,quaternionY,quaternionZ,pitch,roll,yaw
1781515396245662464,0.07177543640136719,0.1885848194360733,0.06498967856168747,0.22108206152915955,0.953719437122345,-0.004897827748209238,-0.30065780878067017,0.05398613214492798,0.006973032373934984,0.053648561239242554,-0.7980583819582927,-0.08798627273342143,-0.584747390856453,0.11589494802618883,0.00489784754314871,1.2654102264361886,-0.2920174074972444
1781515396255696640,0.08180952072143555,0.15987834334373474,0.037217702716588974,0.17478486895561218,0.9538788795471191,-0.007424769923090935,-0.30010002851486206,-0.06220102310180664,0.051949914544820786,-0.01494818925857544,-0.7979183212661355,-0.08941362240863866,-0.5847693484008448,0.11565651078962451,0.0074248382952251885,1.2659901565711438,-0.2933383285190205
1781515396265729792,0.0918428897857666,0.09567804634571075,-0.023499174043536186,0.125334233045578,0.9538816809654236,-0.009226043708622456,-0.3000412583351135,0.001547396183013916,-0.04514102637767792,0.049568235874176025,-0.7979350444995805,-0.09034565392669942,-0.5846512103396416,0.11541401123700441,0.009226174944608421,1.2660470661472765,-0.2940591295808835
1781515396275763712,0.10187673568725586,0.13776211440563202,0.004897580482065678,0.10973690450191498,0.9538190364837646,-0.010714434087276459,-0.30019086599349976,0.0025866031646728516,-0.08410368859767914,0.055714547634124756,-0.7979992464894274,-0.09115566177797155,-0.584461477179977,0.11529405265416055,0.010714639187323217,1.265885551134617,-0.2948326845426437
1781515396285796864,0.11190986633300781,0.19122560322284698,0.05403343588113785,0.0807100459933281,0.9538983702659607,-0.012118903920054436,-0.2998853623867035,-0.03638726472854614,0.03668553754687309,-0.02979603409767151,-0.7978904476776449,-0.09211194141052263,-0.5844422187743183,0.11538486482873221,0.01211920017580806,1.2662007855229942,-0.2961276531471501
1781515396295830784,0.12194371223449707,0.14881743490695953,0.05674746260046959,0.05336044728755951,0.9540663361549377,-0.013290251605212688,-0.29930058121681213,-0.026240408420562744,0.032348472625017166,-0.03689628839492798,-0.797678106713515,-0.09303270889061897,-0.5845465076338268,0.11558537831687216,0.013290642998985556,1.266809071782266,-0.2975613881054353
1781515396305864704,0.13197779655456543,0.09682480245828629,0.051665619015693665,0.03651648759841919,0.9542169570922852,-0.014066793024539948,-0.29878443479537964,-0.0016870498657226562,-0.060853857547044754,0.013124704360961914,-0.7974944881597962,-0.09366846576227414,-0.5846657129180676,0.1157356881020712,0.014067257082727477,1.2673466816183696,-0.2985720487779604
1781515396315898880,0.1420118808746338,0.07864580303430557,0.06146552041172981,0.01978437788784504,0.9543818235397339,-0.014602231793105602,-0.2982318699359894,0.0008641481399536133,-0.02526899240911007,0.025297939777374268,-0.7973038176411545,-0.09413832925333154,-0.5848265055024648,0.11585612603133945,0.014602750921208035,1.2679233433595491,-0.29933587898211494
1781515396325932800,0.15204572677612305,0.01846501976251602,0.05971675366163254,0.029441531747579575,0.9545657634735107,-0.014972840435802937,-0.29762426018714905,-0.022024810314178467,0.019153738394379616,-0.0073532164096832275,-0.7971089618917354,-0.09444635207996897,-0.585036547808867,0.11588611654187697,0.014973399707077879,1.2685582498255812,-0.29975899715060245
1781515396335966720,0.1620798110961914,-0.08652611076831818,0.008836795575916767,0.03567119687795639,0.9546675086021423,-0.01518719270825386,-0.2972869277000427,-0.015977203845977783,-0.03272541984915733,0.026641756296157837,-0.7970379581819701,-0.09443450603655294,-0.5851825888612808,0.11564645065511119,0.015187776856358234,1.268910600223293,-0.29935723567560474
1781515396346000896,0.17211389541625977,-0.1559121161699295,-0.021294474601745605,0.05191541463136673,0.9546304941177368,-0.015214203856885433,-0.29740437865257263,0.021962523460388184,-0.05135990306735039,0.07729631662368774,-0.7971524904990169,-0.09404574134756229,-0.5851950118245711,0.11510982409754537,0.015214791129170076,1.268787426736418,-0.29801611231672975
1781515396356034816,0.18214774131774902,-0.13156841695308685,0.0069147925823926926,0.057356253266334534,0.9545971751213074,-0.015280872583389282,-0.2975073754787445,0.010109186172485352,-0.008629641495645046,0.05509105324745178,-0.7972780159220677,-0.09360066850600862,-0.5852223699763957,0.11446130954677373,0.015281467619829285,1.2686791701917004,-0.2964255131815569
1781515396366067968,0.19218087196350098,-0.10716720670461655,0.04515325650572777,0.06254249066114426,0.9546716213226318,-0.015500790439546108,-0.29725706577301025,-0.01592046022415161,0.030118713155388832,-0.02113279700279236,-0.797284913422977,-0.0933217572100389,-0.5853738274019218,0.11386507358461141,0.015501411180028901,1.268940337599139,-0.29512242502827857
1781515396376101632,0.20221471786499023,-0.0774785503745079,0.07014942169189453,0.05440094321966171,0.9548363089561462,-0.0157933346927166,-0.29671192169189453,-0.006533205509185791,-0.0022730547934770584,-0.02459236979484558,-0.7971914442972972,-0.0931534729140539,-0.5856333938195455,0.11332086727524546,0.015793991668843783,1.2695098733587715,-0.2940393556930376
1781515396386135808,0.2122488021850586,-0.04715127497911453,0.07975797355175018,0.03193984180688858,0.9550551772117615,-0.01601613499224186,-0.2959951162338257,0.0029678940773010254,-0.02458750084042549,0.008275330066680908,-0.7970222948484469,-0.09307040008333411,-0.5859525138505239,0.1129291454606998,0.016016819187389418,1.2702594312531128,-0.2933083368061206
1781515396396169984,0.22228288650512695,-0.028577856719493866,0.07458984106779099,0.018499135971069336,0.9552852511405945,-0.016145577654242516,-0.2952447533607483,-0.00017660856246948242,-0.015943659469485283,0.012499392032623291,-0.7968212434229718,-0.09304277003707241,-0.5862769525098118,0.11268678887035179,0.016146278643751837,1.2710443629827788,-0.2928872837400389
1781515396406203648,0.2323167324066162,-0.06081302464008331,0.059907570481300354,0.012413280084729195,0.9554847478866577,-0.016168441623449326,-0.2945973575115204,-0.0061286091804504395,-0.009023822844028473,0.026180028915405273,-0.7966494089750435,-0.0929551749219179,-0.5865668366276774,0.11246538302717934,0.01616914695864971,1.2717218808965776,-0.29242747136695524
1781515396416237824,0.24235081672668457,-0.10386009514331818,0.022491753101348877,0.007844893261790276,0.9556037187576294,-0.016014615073800087,-0.2942191958427429,-0.0002662539482116699,-0.011878438293933868,0.03645250201225281,-0.7965751095510196,-0.09266402881994193,-0.5867740456482545,0.11214973055447042,0.01601530020393782,1.2721183650755015,-0.2915675070923628
1781515396426272000,0.25238490104675293,-0.10132529586553574,0.01179889589548111,-0.0004545819538179785,0.9556441903114319,-0.015728546306490898,-0.2941034138202667,-0.005418360233306885,-0.0016206949949264526,0.02153569459915161,-0.7965866640544854,-0.09224869225656819,-0.5868888034701412,0.11180960407432328,0.015729195131789962,1.272240937084148,-0.2905163354473823
1781515396436305664,0.2624187469482422,-0.10426969081163406,0.0039558871649205685,-0.0024583444464951754,0.9556717276573181,-0.015425208024680614,-0.2940301299095154,-0.004499852657318115,-0.01919698715209961,0.02558225393295288,-0.7966048168854964,-0.09185310975896889,-0.5869820642549396,0.11151622763124051,0.015425820144271988,1.2723191007838128,-0.28956457569808036
1781515396446338816,0.27245187759399414,-0.11066580563783646,-0.004158631432801485,-0.010383112356066704,0.9556679129600525,-0.01502286083996296,-0.29406285285949707,0.010579526424407959,-0.01244294736534357,0.009593278169631958,-0.7966564245614834,-0.09138453065285983,-0.5870412597160405,0.11121985371833798,0.015023425968941233,1.2722867055011287,-0.2885193754202657
1781515396456372736,0.2824857234954834,-0.09728874266147614,0.0052255489863455296,-0.014008739963173866,0.9556704759597778,-0.014605122618377209,-0.2940756678581238,-0.012097537517547607,0.0040307845920324326,-0.004889696836471558,-0.7966964507394804,-0.09093665619169027,-0.5871053447917159,0.11096194327121296,0.014605641819395406,1.272275205116,-0.28756183169846156
1781515396466406912,0.29251980781555176,-0.08229327946901321,0.011359208263456821,-0.01801093854010105,0.9557060599327087,-0.014204684644937515,-0.2939799427986145,-0.0022911429405212402,-0.0056927744299173355,0.020649194717407227,-0.7966938777740983,-0.09055425143479803,-0.5872052095001359,0.11076481358541831,0.014205162046175149,1.2723771707294937,-0.2867825962611618
1781515396476440832,0.3025538921356201,-0.13473545014858246,0.011887580156326294,-0.016936618834733963,0.9557389616966248,-0.013711802661418915,-0.2938961386680603,0.005702018737792969,-0.02213108539581299,0.02698943018913269,-0.7967005129952663,-0.0900840899954951,-0.5873131951450336,0.11052729627334726,0.013712232077900833,1.272466954748507,-0.28583217952876483
1781515396486474752,0.3125877380371094,-0.21455331146717072,0.019192231819033623,0.0017126984894275665,0.9557923078536987,-0.013103554956614971,-0.2937503159046173,-0.010525643825531006,-0.00595466885715723,0.013644784688949585,-0.7967209321404753,-0.0893713238597595,-0.587484133702396,0.1100493157383493,0.013103930078115696,1.2726220306611478,-0.28420010204274354
1781515396496508928,0.32262182235717773,-0.3462338447570801,-0.007037508767098188,0.047560349106788635,0.9558080434799194,-0.01251451950520277,-0.29372474551200867,0.000368654727935791,-0.0073524173349142075,0.04251930117607117,-0.7968402005207917,-0.08832900783020388,-0.5876526310037352,0.10912372543784994,0.012514846585023704,1.272651104022874,-0.28144453825006394
1781515396506542848,0.3326559066772461,-0.38880446553230286,-0.022712342441082,0.08169887959957123,0.955746054649353,-0.0120278000831604,-0.2939469516277313,0.0034977197647094727,0.017810877412557602,0.017320334911346436,-0.7970975364767607,-0.08699284564835019,-0.5877574038030036,0.10774493445169597,0.01202809004742227,1.2724204555474348,-0.27759929706432424
1781515396516575744,0.34268879890441895,-0.3011699616909027,0.0068016075529158115,0.09353476762771606,0.9557142853736877,-0.011842327192425728,-0.2940578758716583,-0.005168020725250244,0.04849393665790558,-0.020898818969726562,-0.7973176231536372,-0.08585162639058612,-0.5878780133730512,0.10636535057065219,0.011842604238380804,1.2723050918804022,-0.2739886786503903
1781515396526609920,0.3527228832244873,-0.25376009941101074,0.01866479218006134,0.10164595395326614,0.9557456374168396,-0.012001348659396172,-0.2939494848251343,0.0164223313331604,0.007728886790573597,0.019962698221206665,-0.7974435883417057,-0.08506967446171607,-0.5880377667020579,0.10515921880300326,0.012001636693304056,1.272417930362116,-0.27109306135019573
1781515396536643840,0.36275672912597656,-0.27368295192718506,0.02100997231900692,0.10074953734874725,0.9557905793190002,-0.012184563092887402,-0.2937961220741272,0.007741034030914307,-0.01522024068981409,0.01301911473274231,-0.7975510655164896,-0.08432153784066594,-0.588210686468511,0.10397371590294992,0.012184864603827665,1.272577719195194,-0.2682724017619856
1781515396546677760,0.3727908134460449,-0.30832400918006897,0.05257255956530571,0.11002718657255173,0.9558853507041931,-0.01233656331896782,-0.29348087310791016,-0.027861058712005615,0.00029737688601017,-0.013983726501464844,-0.7976199478170035,-0.08348693578221646,-0.5884636725518002,0.10267849417427377,0.01233687611624627,1.2729069370814259,-0.2651715555870196
1781515396556711936,0.3828248977661133,-0.37809616327285767,0.022731838747859,0.12863148748874664,0.9559986591339111,-0.012463926337659359,-0.29310640692710876,0.004694700241088867,-0.012880933471024036,0.03297460079193115,-0.7976951363530438,-0.08248565496155029,-0.5887638818241482,0.10117203962040114,0.0124642487387401,1.273298188569352,-0.2615292680225942
1781515396566745856,0.39285874366760254,-0.39557716250419617,0.005640069954097271,0.1427379846572876,0.956009566783905,-0.01260264590382576,-0.29306483268737793,0.017684340476989746,-0.0016032969579100609,0.03715965151786804,-0.7978972935632207,-0.08131151418571061,-0.588944835122995,0.09946078262914824,0.01260297938506624,1.2733411510014987,-0.25734634369957093
1781515396576779776,0.4028928279876709,-0.35486090183258057,0.02234128676354885,0.13888545334339142,0.9560356140136719,-0.012859106995165348,-0.2929686903953552,-0.013484954833984375,0.022609468549489975,-0.006271421909332275,-0.7980751206383166,-0.08023534476847867,-0.5891332109047709,0.09777802038651598,0.012859461114800946,1.27344070539298,-0.2533286417375136
1781515396586812672,0.41292572021484375,-0.2971518039703369,0.020575476810336113,0.13747239112854004,0.9560786485671997,-0.01323846634477377,-0.29281118512153625,0.00018966197967529297,0.012048281729221344,-0.012669742107391357,-0.7982113983051055,-0.07935436794502443,-0.5893193412424862,0.09625057869154512,0.013238853460110235,1.273603912747912,-0.24979818076513227
1781515396596846848,0.4229598045349121,-0.22973918914794922,0.03772676736116409,0.1317386031150818,0.9561482667922974,-0.01377368625253439,-0.2925589978694916,0.004606127738952637,0.019999276846647263,0.011415839195251465,-0.7982916715931334,-0.07872242779597213,-0.5895110496050203,0.0949203841078566,0.013774121973944647,1.273865459566603,-0.24688744186481631
1781515396606881024,0.43299388885498047,-0.23357415199279785,0.03752410039305687,0.1278245598077774,0.9562411904335022,-0.014356330037117004,-0.29222673177719116,-0.002841651439666748,-0.0041983462870121,0.03816792368888855,-0.7983285087862243,-0.07822706631037687,-0.5897178596034477,0.09372741744252477,0.014356823583634524,1.2742104109066386,-0.24436400122951377
1781515396616914688,0.4430277347564697,-0.28935670852661133,0.03808709233999252,0.140297994017601,0.9563294649124146,-0.01486005075275898,-0.2919130325317383,0.004058718681335449,-0.021516907960176468,0.018673837184906006,-0.798383166251629,-0.07759435287450156,-0.5899344092961352,0.09241705353414809,0.014860597447737533,1.2745362776123068,-0.2414862374201381
1781515396626948864,0.4530618190765381,-0.4427952766418457,0.025472231209278107,0.1800752431154251,0.9564091563224792,-0.01532797235995531,-0.2916273772716522,0.016155481338500977,0.012245704419910908,0.0645003616809845,-0.7984888249044948,-0.07664746702900449,-0.5901791969184352,0.09071509086378908,0.015328573084077693,1.2748327812163591,-0.2375983252512694
1781515396636983040,0.46309590339660645,-0.6528662443161011,-0.02036822773516178,0.22422991693019867,0.9563801884651184,-0.015674224123358727,-0.29170405864715576,0.029261291027069092,0.014209387823939323,0.11056700348854065,-0.7987869346207924,-0.07504749379864312,-0.5903523107076986,0.08826906320305065,0.015674866074539162,1.2747509692347208,-0.23172163633183823
1781515396647016704,0.4731297492980957,-0.7975105047225952,-0.014805283397436142,0.262170672416687,0.9562874436378479,-0.01589544303715229,-0.2919957935810089,0.006923556327819824,0.013896549120545387,0.04639032483100891,-0.7992163171376886,-0.07286007334950584,-0.5905027660543368,0.08515326345201071,0.015896113210468233,1.274444828343753,-0.22405796877180084
1781515396657050880,0.48316383361816406,-0.9314597845077515,-0.025287486612796783,0.30548352003097534,0.9561800360679626,-0.016111036762595177,-0.2923359274864197,0.0041776299476623535,0.04369891807436943,0.05556529760360718,-0.7997060710884559,-0.07025205422691319,-0.5906747699974036,0.08147542218010935,0.016111733089602308,1.2740880991484194,-0.21498492440370875
1781515396667083776,0.4931967258453369,-1.028240442276001,-8.89413058757782e-06,0.3205799162387848,0.9561014175415039,-0.01626812107861042,-0.2925841808319092,0.005843162536621094,-0.00047077424824237823,0.01797175407409668,-0.8001966454891724,-0.06725895781035175,-0.5909180495200906,0.07731415835131118,0.01626883918141306,1.273827676237614,-0.2046750683691627
1781515396677117952,0.5032308101654053,-1.1012656688690186,-0.01067165844142437,0.32810840010643005,0.9560273289680481,-0.016245201230049133,-0.2928272485733032,0.02723371982574463,-0.03769461810588837,0.0008503496646881104,-0.8006942589610231,-0.06390842126156408,-0.5911870125927668,0.07281706870687649,0.016245915998392722,1.2735735282920648,-0.19340084217305833
1781515396687151872,0.5132648944854736,-1.083394169807434,0.01059994101524353,0.3411080837249756,0.9559714794158936,-0.016213223338127136,-0.2930111289024353,0.012854695320129395,0.02332383207976818,0.013988912105560303,-0.8011574662719941,-0.06047359998942598,-0.5914705269955889,0.06820671982832023,0.016213933653364064,1.2733813423444529,-0.18184974034683662
1781515396697185792,0.5232987403869629,-0.9881536960601807,0.022502407431602478,0.3397517502307892,0.9559647440910339,-0.01647978462278843,-0.2930185794830322,0.0037215352058410645,0.03651456534862518,-0.017116248607635498,-0.8015249853627113,-0.05736507335935454,-0.5917769438909016,0.0637734330592144,0.016480530565166976,1.2733722243019876,-0.17098164518870357
1781515396707219712,0.5333328247070312,-1.022740125656128,0.01857544295489788,0.3514353036880493,0.9559730887413025,-0.01685771346092224,-0.29296985268592834,0.00664287805557251,-0.021441848948597908,0.006180942058563232,-0.801842181441817,-0.05440791011487096,-0.5920767338113649,0.059447870548022544,0.01685851116270754,1.273421282037295,-0.16047350071318592
1781515396717253888,0.5433669090270996,-1.1905517578125,-0.0333748385310173,0.38416847586631775,0.9558747410774231,-0.017145192250609398,-0.2932738959789276,0.01472163200378418,-0.027029002085328102,0.1162109375,-0.802277474660384,-0.051036465856545705,-0.592248540810761,0.05466085438533375,0.017146031491912052,1.2731017142526757,-0.14872837938223815
1781515396727287808,0.5534007549285889,-1.3303723335266113,-0.04275808855891228,0.3998933732509613,0.9556869268417358,-0.017157765105366707,-0.29388487339019775,0.02197432518005371,0.008383950218558311,0.048340409994125366,-0.8028137042408914,-0.047076543344766394,-0.5923186365092632,0.04932279669279956,0.01715860687325661,1.2724624379586063,-0.13539583321982843
1781515396737320960,0.5634338855743408,-1.3075761795043945,-0.04588144272565842,0.41511279344558716,0.9554897546768188,-0.017134184017777443,-0.2945266366004944,0.004745900630950928,0.027189720422029495,-0.005613744258880615,-0.8033382364081895,-0.04289960706812155,-0.5923650144512496,0.04371595498996574,0.017135023237913525,1.2717909608413704,-0.121377435959754
1781515396747354624,0.5734677314758301,-1.0799040794372559,0.02286965772509575,0.3934650421142578,0.9553876519203186,-0.017479563131928444,-0.29483717679977417,-0.0006299614906311035,0.0629660114645958,-0.05384141206741333,-0.8037003465616336,-0.03927699305682841,-0.5924852165030345,0.03852779864484561,0.01748045384629273,1.2714640786717573,-0.108702207956468
1781515396757388800,0.5835018157958984,-0.9081414341926575,0.0682523176074028,0.3669319450855255,0.955456554889679,-0.01823689043521881,-0.29456815123558044,0.032092392444610596,0.023287538439035416,-0.04907509684562683,-0.8038173740800862,-0.03648068730735283,-0.5927774270148052,0.034085921177844494,0.01823790228057823,1.2717414851372826,-0.098221732096511
1781515396767422976,0.5935359001159668,-0.9709973335266113,0.1297549605369568,0.3536933958530426,0.9556692838668823,-0.01889398694038391,-0.29383522272109985,0.0479469895362854,-0.03088017925620079,0.10294777154922485,-0.8037576161488279,-0.0337884488689366,-0.593245928992396,0.02985394197281715,0.018895111471567597,1.2725047183911602,-0.0882104627895208
1781515396777456640,0.603569746017456,-1.1879184246063232,0.13815909624099731,0.35371363162994385,0.9559903740882874,-0.019084224477410316,-0.29277682304382324,0.048083722591400146,-0.04993128404021263,0.10842013359069824,-0.8035882782312145,-0.030487525792881973,-0.5938704344158169,0.025186144247420023,0.019085382494379494,1.2736109191992357,-0.0767792443218096
1781515396787490816,0.6136038303375244,-1.4656600952148438,0.1620805412530899,0.3867722451686859,0.9563618898391724,-0.018697921186685562,-0.2915859520435333,0.04229539632797241,-0.06998616456985474,0.09393879771232605,-0.8033710665435778,-0.026214584104900053,-0.5945753288540185,0.01969654219131565,0.01869901035641366,1.274858620302703,-0.06287275270162625
1781515396797524736,0.6236376762390137,-1.7291796207427979,0.161232590675354,0.4248213469982147,0.9567854404449463,-0.017888717353343964,-0.2902442216873169,0.08352828025817871,-0.049173664301633835,0.1609107255935669,-0.8030856649641946,-0.020960657887159267,-0.5953474088752905,0.013250826542732196,0.017889671480287347,1.2762657565667725,-0.046264747483709304
1781515396807557888,0.6336708068847656,-1.9055564403533936,0.18699121475219727,0.45087000727653503,0.9571875929832458,-0.0167932640761137,-0.288981169462204,0.1323358416557312,-0.09024715423583984,0.11196395754814148,-0.8027794879436346,-0.014904016022791471,-0.5960598055126926,0.005985987883734535,0.016794052576464408,1.2775913702445811,-0.027385510598001966
1781515396817591808,0.643704891204834,-2.0115058422088623,0.23961901664733887,0.47030016779899597,0.9577153325080872,-0.015551995486021042,-0.2872971296310425,0.1281154751777649,-0.08034950494766235,0.09117594361305237,-0.80227513825556,-0.008347206482219368,-0.5968934201386318,-0.0018080974050553582,0.015552622338228777,1.279356255000277,-0.00706451519444984
1781515396827625728,0.6537387371063232,-1.9243762493133545,0.3065112233161926,0.4680157005786896,0.9584428668022156,-0.014378051273524761,-0.28492236137390137,0.16075891256332397,-0.04769471660256386,0.08634445071220398,-0.8014786121792085,-0.001761435369704631,-0.5979429073418087,-0.009661914239750624,0.014378547171077125,1.2818402042464463,0.013382942490704038
1781515396837659904,0.6637728214263916,-1.7469420433044434,0.3161904811859131,0.4732975363731384,0.9592689275741577,-0.013640749268233776,-0.2821652293205261,0.14180535078048706,-0.09407105296850204,-0.0036014020442962646,-0.8004937743370063,0.00427856668319805,-0.5990818683131959,-0.01710173733285432,0.013641172577473559,1.2847187012660086,0.0325148454945664
1781515396847693824,0.67380690574646,-1.372937560081482,0.30175283551216125,0.4101811647415161,0.9600735306739807,-0.013476039282977581,-0.27942317724227905,0.08321571350097656,-0.07853446900844574,-0.058986276388168335,-0.7994705696501448,0.009312934205265256,-0.6001680490454023,-0.023632441977761393,0.01347644747986258,1.2875766284684733,0.04898957486769451
1781515396857727744,0.6838407516479492,-0.7818777561187744,0.29235026240348816,0.3180043697357178,0.9608600735664368,-0.014025520533323288,-0.2766784429550171,0.02310281991958618,0.005328024737536907,-0.1156250536441803,-0.798458560362982,0.01255548264751637,-0.6012513136148173,-0.02833722371527398,0.014025980646855245,1.2904320896517394,0.060392840427390536
1781515396867761920,0.6938748359680176,-0.290534645318985,0.18874850869178772,0.30341848731040955,0.9614931344985962,-0.015527943149209023,-0.2743901312351227,-0.02469503879547119,0.0013982979580760002,-0.1643306016921997,-0.7976367773575874,0.013787816278334352,-0.6021750794505017,-0.03115645548024586,0.015528567498636308,1.292806494368179,0.06636512862150612
1781515396877795584,0.7039086818695068,-0.06363411247730255,0.0895090103149414,0.30589309334754944,0.9618175625801086,-0.01797243021428585,-0.2731006443500519,-0.07845574617385864,-0.0948663130402565,-0.17459219694137573,-0.797163459971782,0.013582951164173218,-0.602714836565847,-0.032874663931684873,0.017973398385438905,1.294135714665009,0.06885175249110737
1781515396887828736,0.7139418125152588,0.06990157812833786,0.07902947068214417,0.32543617486953735,0.9619601964950562,-0.021031711250543594,-0.2723785638809204,-0.0933690071105957,-0.162638321518898,-0.015692055225372314,-0.7968841859787892,0.01263023209236416,-0.603034980648092,-0.034128513734785974,0.021033261611419787,1.2948694548649655,0.06969770888936569
1781515396897862912,0.7239758968353271,0.10773071646690369,0.16970770061016083,0.40445271134376526,0.9622145295143127,-0.02481413632631302,-0.2711597681045532,-0.13320451974868774,-0.3099637031555176,0.12098276615142822,-0.7964528106778188,0.011139082623074172,-0.6035694169795374,-0.035254970355461275,0.02481668370003172,1.2961118480468887,0.06968207625639822
1781515396907896832,0.7340097427368164,-0.24882526695728302,0.23494477570056915,0.49179479479789734,0.9626599550247192,-0.029012780636548996,-0.26915451884269714,-0.20367252826690674,-0.3979739248752594,0.10640424489974976,-0.7957353059561403,0.010013338265058392,-0.6044191195832398,-0.03718339849572798,0.029016852140181185,1.2981635858093794,0.07137138849157332
1781515396917930752,0.7440438270568848,-0.6020960211753845,0.16823898255825043,0.47525790333747864,0.9630597233772278,-0.03257116675376892,-0.26731130480766296,-0.12757986783981323,-0.25806301832199097,0.031486719846725464,-0.7949931049558413,0.01035894578623098,-0.6051752085525779,-0.04051863570702926,0.03257692845170876,1.3000473570426305,0.07707918376264965
1781515396927964928,0.7540779113769531,-0.46723830699920654,0.13163502514362335,0.3975766897201538,0.9633073210716248,-0.03536827117204666,-0.2660602331161499,-0.09126758575439453,0.06240684539079666,-0.1605907678604126,-0.7944162426500624,0.011259264851481102,-0.6056757437165066,-0.043965239856874595,0.035375650875494186,1.3013198817477112,0.08364209103492766
1781515396937998848,0.7641117572784424,-0.24994194507598877,0.039632126688957214,0.27832433581352234,0.9634309411048889,-0.037657227367162704,-0.2652975022792816,-0.11211264133453369,0.2778763473033905,-0.34424537420272827,-0.7940372292309383,0.011704227637175428,-0.605982063760665,-0.046407653336735875,0.037666131880416155,1.3020885619184233,0.0880600591909089
1781515396948032768,0.7741458415985107,-0.013038844801485538,-0.12105315923690796,0.11637137085199356,0.9632429480552673,-0.039195816963911057,-0.2657569944858551,-0.033524930477142334,0.27441003918647766,-0.367925226688385,-0.79411179541947,0.011626824649129472,-0.6057939605847854,-0.04759193496363785,0.03920585946479242,1.3015952644919337,0.08986341572925864
1781515396958065664,0.7841787338256836,0.1904924362897873,-0.14793430268764496,0.015445022843778133,0.9628087878227234,-0.04005928337574005,-0.26719745993614197,-0.08750367164611816,0.34807321429252625,-0.19889751076698303,-0.7945673133014763,0.011013936855257658,-0.6052106712341503,-0.047555269347869085,0.040070006442683014,1.3000899794053737,0.0890924636210968
1781515396968099840,0.794212818145752,0.13378176093101501,0.041379690170288086,-0.07948042452335358,0.962679386138916,-0.040176209062337875,-0.26764556765556335,-0.1873040795326233,0.3518064618110657,0.17925146222114563,-0.7947508862809075,0.010380613114259016,-0.6050367449738873,-0.046836999868700546,0.04018702505834338,1.2996232298267478,0.08718953324782952
1781515396978134016,0.8042469024658203,-0.3283112943172455,0.15019351243972778,-0.09758272767066956,0.9629990458488464,-0.03916061297059059,-0.26664406061172485,-0.11674672365188599,0.11490526050329208,0.34428080916404724,-0.7944427711725127,0.010957032202359364,-0.6054402644991197,-0.046718138907867406,0.03917063076606688,1.30067457426163,0.08767688975278581
1781515396988167680,0.8142807483673096,-0.8908593654632568,0.143916055560112,0.030028225854039192,0.9634256958961487,-0.03705566003918648,-0.2654009461402893,-0.05001944303512573,-0.06470518559217453,0.1841173768043518,-0.7939529904200056,0.013571838275086403,-0.6059004369701941,-0.04836311423665342,0.03706414649869084,1.301987367537559,0.09344244915263296
1781515396998201856,0.8243148326873779,-1.436508297920227,0.12596209347248077,0.165699765086174,0.9637627601623535,-0.03501836955547333,-0.26445260643959045,-0.07869195938110352,-0.05366571992635727,0.10225170850753784,-0.7934062030512808,0.017873157913901178,-0.60618004270007,-0.05227796367812986,0.0350255288372404,1.3029917686498542,0.10488040635038452
1781515397008235776,0.8343486785888672,-1.8409838676452637,0.07126621901988983,0.2556414008140564,0.963943600654602,-0.032826978713274,-0.2640742361545563,-0.06964123249053955,-0.021097585558891296,0.1285914182662964,-0.7928815699373495,0.02371725831080307,-0.6061356116470031,-0.058103279843116196,0.03283287876925353,1.3034047484001055,0.12125186739264916
1781515397018269696,0.8443827629089355,-2.036876678466797,-0.04604629427194595,0.2340143769979477,0.9639252424240112,-0.029991550371050835,-0.2644783556461334,-0.02387702465057373,0.01093331165611744,0.07227861881256104,-0.792469822084866,0.03078838434805848,-0.6056508104685074,-0.06504513782638664,0.029996047969459125,1.3030099617904465,0.1409157217411534
1781515397028302848,0.8544158935546875,-1.9643340110778809,-0.1819562017917633,0.14498862624168396,0.9635545611381531,-0.026471029967069626,-0.266198992729187,0.051887333393096924,0.020504847168922424,-0.009344220161437988,-0.7924157099573453,0.03818669164830451,-0.6045182226130732,-0.07195027061974375,0.02647412309496264,1.3012519388204846,0.1609482849763285
1781515397038336768,0.8644497394561768,-1.7643194198608398,-0.22071370482444763,0.053637683391571045,0.9629722237586975,-0.022420907393097878,-0.26866665482521057,0.02157062292098999,-0.10070225596427917,0.08812463283538818,-0.7926192491612762,0.04521700260845018,-0.6030108625074788,-0.07802565934658424,0.022422785879367472,1.2987176699413292,0.17922473426307373
1781515397048370944,0.8744838237762451,-1.4697173833847046,-0.1971263587474823,-0.0049153766594827175,0.9623937010765076,-0.0182624664157629,-0.27104422450065613,0.018578648567199707,-0.10626451671123505,0.17831656336784363,-0.7928553835269875,0.051514938458698006,-0.6015181657982255,-0.08308166233642893,0.01826348099690938,1.296271692503671,0.1949832892713735
1781515397058404864,0.8845179080963135,-1.3484392166137695,-0.1294812709093094,-0.0512613020837307,0.9619536995887756,-0.014219346456229687,-0.2728425860404968,-0.008950769901275635,-0.09570498019456863,0.08755511045455933,-0.792984956970098,0.05700997040919929,-0.600273746988917,-0.08715643887250574,0.014219825620240873,1.2944211835988697,0.20819228910011886
1781515397068438784,0.8945517539978027,-1.6662003993988037,-0.19025567173957825,-0.000802657101303339,0.9615278244018555,-0.009768549352884293,-0.27453404664993286,-0.0708112120628357,-0.2090577483177185,-0.01869410276412964,-0.7930173490496087,0.06302640286126526,-0.5989663181901375,-0.09159998445258492,0.009768704399902062,1.2926776196135281,0.22262712652894076
1781515397078472960,0.9045858383178711,-1.8734773397445679,-0.18302811682224274,0.007884307764470577,0.9609973430633545,-0.004825842101126909,-0.27651581168174744,-0.05563229322433472,-0.021449796855449677,-0.0026894807815551758,-0.7929917300726844,0.07007728725469192,-0.597353558979546,-0.09706752296452,0.004825860822075226,1.2906263507669649,0.23996855932194291
1781515397088506624,0.9146196842193604,-1.7646377086639404,-0.17120061814785004,0.038043275475502014,0.9605037569999695,-3.786389424931258e-05,-0.27826744318008423,-0.07254898548126221,0.19007082283496857,-0.07453101873397827,-0.7928307608057842,0.07716808197247552,-0.5957443833166421,-0.10272889313021467,3.786389300924176e-05,1.2888065260298687,0.25768032849381395
1781515397098540800,0.9246537685394287,-1.1839556694030762,-0.13890206813812256,0.017455177381634712,0.9600687623023987,0.003980605863034725,-0.2797360122203827,0.005080163478851318,0.3271045982837677,-0.1972995102405548,-0.7926714235258857,0.08305658545266935,-0.5943345780790235,-0.10742480978915216,-0.003980616157761239,1.2872748843580764,0.27239000087080734
1781515397108573952,0.9346868991851807,-0.17537821829319,-0.05014130473136902,-0.011786864139139652,0.9597821831703186,0.005873038899153471,-0.28068462014198303,0.13848453760147095,0.38266149163246155,-0.26796039938926697,-0.7926785730383268,0.08574162182243188,-0.5935537537330491,-0.10955878296066976,-0.005873072874178603,1.286283969578755,0.2790880217265186
1781515397118607872,0.9447207450866699,0.5677486062049866,0.11580505222082138,-0.09535925835371017,0.9598753452301025,0.0056919557973742485,-0.28036946058273315,0.08637404441833496,0.19403032958507538,-0.24634867906570435,-0.7927126510960254,0.08493134470322525,-0.5938029482950173,-0.10858850340492991,-0.005691986631562252,1.2866126378578098,0.2765395835943099
1781515397128641792,0.9547548294067383,0.5392946004867554,0.1996351182460785,-0.1435997635126114,0.9603286385536194,0.005181674379855394,-0.27882274985313416,-0.012818872928619385,-0.1281980276107788,-0.11055099964141846,-0.7925336184452135,0.08304462957930522,-0.5947202809540462,-0.10631018564381453,-0.005181697785185483,1.288224402079183,0.2705786014856487
1781515397138675712,0.9647886753082275,0.3186187148094177,0.22225573658943176,-0.156257763504982,0.9609123468399048,0.00553273456171155,-0.27679723501205444,-0.0029656291007995605,-0.21624135971069336,-0.001080542802810669,-0.7921599808473244,0.08193786829256666,-0.5957244031817931,-0.10431255237931572,-0.005532762561160491,1.2903323830032678,0.2660197230142802
1781515397148709888,0.9748227596282959,0.20159275829792023,0.2418326437473297,-0.11789918690919876,0.9615446925163269,0.00613191956654191,-0.2745797634124756,-0.006253063678741455,-0.06928804516792297,0.008466511964797974,-0.7916466248783718,0.08142557474751343,-0.5967243828331571,-0.1028855589507542,-0.006131957948427264,1.292638292465309,0.263105211478786
1781515397158743808,0.9848568439483643,0.10202249884605408,0.20702432096004486,-0.06417497247457504,0.9621638655662537,0.006579602602869272,-0.2723919153213501,-0.021963119506835938,0.00776366563513875,0.00415763258934021,-0.7910743618433125,0.0811965258172852,-0.5976714548098597,-0.10196687187435688,-0.006579649852527236,1.294912111025585,0.2613552767610654
1781515397168777728,0.9948906898498535,0.004392076749354601,0.14014221727848053,-0.00976099818944931,0.9626343250274658,0.0067975400015711784,-0.2707193195819855,0.006100356578826904,0.034233346581459045,0.07818391919136047,-0.7905916189421601,0.08120369701163305,-0.5983697072071971,-0.10160974337426003,-0.0067975921340846625,1.2966496671550871,0.2607955118187674
1781515397178810880,1.0049238204956055,0.08918392658233643,0.09648049622774124,-0.001397873624227941,0.962958574295044,0.0066927094012498856,-0.26956620812416077,0.02101963758468628,0.12375468015670776,0.05087730288505554,-0.7902467831582826,0.08111882447262748,-0.598862784861793,-0.10145485212196405,-0.006692759591868276,1.2978475200902506,0.260447099835074
1781515397188844800,1.0149579048156738,0.24590696394443512,0.03312775492668152,-0.05758045241236687,0.9631333351135254,0.006522662937641144,-0.26894527673721313,0.040864408016204834,0.05658769607543945,0.03844597935676575,-0.7901322070364541,0.08058050863494702,-0.5991945835506283,-0.1008152030549366,-0.006522709295698793,1.2984926006064117,0.2587650677745303
1781515397198878720,1.024991750717163,0.4523884952068329,0.00964027177542448,-0.14787200093269348,0.96318119764328,0.006581652909517288,-0.2687724232673645,0.01167231798171997,-0.03093467466533184,0.015720665454864502,-0.7902617179666273,0.07952880101429745,-0.5994071738676698,-0.09936107386534264,-0.006581700397041643,1.2986719541977125,0.2551476074162872
1781515397208912896,1.0350258350372314,0.5738933086395264,0.002506994642317295,-0.20951353013515472,0.9631937742233276,0.0068895393051207066,-0.26871979236602783,0.015352368354797363,-0.02521534636616707,0.016049504280090332,-0.7905299306023829,0.07798609404617439,-0.5996317822679911,-0.09706885721776567,-0.006889593820159263,1.298726025639974,0.24958662805862744
1781515397218946816,1.0450596809387207,0.5048250555992126,-0.03679806739091873,-0.28697848320007324,0.963129460811615,0.007818890735507011,-0.26892438530921936,0.056340694427490234,-0.08432645350694656,0.053958624601364136,-0.7909128282089098,0.07655494827350016,-0.5997308985418245,-0.09444043246600307,-0.007818970131965084,1.2985116773480398,0.2436231989083483
1781515397228980736,1.055093765258789,0.46545103192329407,-0.038417138159275055,-0.33220773935317993,0.9629867672920227,0.00954879354685545,-0.2693798542022705,0.0037339329719543457,-0.07911361753940582,0.00489923357963562,-0.7913703453473105,0.07557760221604277,-0.5996649849645187,-0.09177703854785974,-0.009548938565602353,1.2980345641154185,0.23815745645602202
1781515397239014912,1.0651278495788574,0.42423197627067566,-0.008990271016955376,-0.32923007011413574,0.9628891944885254,0.011560510843992233,-0.2696496248245239,-0.03481912612915039,-0.04009445011615753,-0.005786776542663574,-0.7917617394908073,0.0747792969478374,-0.5996526015044877,-0.08909680489918399,-0.011560768288591556,1.2977484651734905,0.23288490305175918
1781515397249048832,1.0751616954803467,0.24555356800556183,-0.022093556821346283,-0.2883113920688629,0.9628052711486816,0.013629855588078499,-0.26985207200050354,0.026162564754486084,-0.04925912246108055,0.04034462571144104,-0.7920746936054922,0.07435469504515227,-0.5996209995278279,-0.0868541035152614,-0.013630277911294598,1.297530873846678,0.22877048518281357
1781515397259081728,1.0851948261260986,0.16216705739498138,-0.002890301402658224,-0.23234747350215912,0.9627218842506409,0.015652282163500786,-0.27004021406173706,0.02148526906967163,-0.019436461851000786,0.02509087324142456,-0.7923106561216144,0.0743704729140713,-0.5995405924115704,-0.08522922061224916,-0.015652920737390757,1.2973271775196469,0.22618336873521805
1781515397269116160,1.095229148864746,0.14001035690307617,0.07111561298370361,-0.16234920918941498,0.9627805948257446,0.01714397594332695,-0.2697398066520691,-0.027264297008514404,0.05873797833919525,-0.03188067674636841,-0.7923481377486228,0.07438376150158874,-0.5996641998705817,-0.08399008462183855,-0.017144815951067406,1.2976323393306999,0.2242159530035917
1781515397279150080,1.1052629947662354,0.09773533791303635,0.11044544726610184,-0.11522909998893738,0.9630101323127747,0.018140019848942757,-0.2688537836074829,-0.009702086448669434,0.06401330232620239,-0.0461181104183197,-0.7921674381403533,0.07435824778959914,-0.600036630471931,-0.08305188484449479,-0.018141014046652453,1.2985475801436317,0.22268968045296364
1781515397289184000,1.1152970790863037,0.2135958969593048,0.1682199239730835,-0.11669223755598068,0.9633582234382629,0.01887873373925686,-0.26755332946777344,0.00017338991165161133,0.06391545385122299,-0.06347087025642395,-0.7918524576264229,0.07421905437347386,-0.6005954326897416,-0.08213711047334345,-0.01887985600496836,1.2998939874360866,0.2210675042482454
1781515397299217920,1.125330924987793,0.4950139820575714,0.20866428315639496,-0.16777300834655762,0.963835597038269,0.019265517592430115,-0.2658003568649292,0.012055516242980957,0.041601791977882385,-0.0878068208694458,-0.7914744742129163,0.07328625070961785,-0.6014390643898205,-0.08042616647124301,-0.019266708829430934,1.3017111047366783,0.21720889129791351
1781515397309252096,1.1353650093078613,0.6817718744277954,0.22863201797008514,-0.2155330777168274,0.964397132396698,0.019556690007448196,-0.2637341618537903,0.029880821704864502,-0.028803516179323196,-0.006315857172012329,-0.7910870939793334,0.07159163244243119,-0.6025010816933664,-0.0777706019368897,-0.0195579361789269,1.3038526254987586,0.21091504038813313
1781515397319286016,1.1453990936279297,0.6801939606666565,0.1600572168827057,-0.2672886550426483,0.9648703932762146,0.02009671740233898,-0.26195627450942993,0.021228790283203125,-0.12512294948101044,0.07053476572036743,-0.790824468341804,0.06968073000370978,-0.6034620634029721,-0.0746639607669326,-0.020098069881518937,1.3056927790731339,0.2036368574164096
1781515397329318912,1.1554319858551025,0.7090053558349609,0.0800558477640152,-0.3046927750110626,0.965117871761322,0.02108757756650448,-0.26096493005752563,0.019577503204345703,-0.08720390498638153,0.06423339247703552,-0.7908128767282092,0.06787023338725318,-0.604078771989871,-0.07139609581349522,-0.0210891404548618,1.3067145453860092,0.19621992193450633
1781515397339353088,1.165466070175171,0.8249759078025818,0.08986533433198929,-0.29859891533851624,0.9652647972106934,0.02200310304760933,-0.2603452205657959,0.008001744747161865,0.025116045027971268,0.033843785524368286,-0.7909284600647978,0.065778593167406,-0.6045664257039522,-0.06785790250916202,-0.02200487945154962,1.3073512693888603,0.1880277837296179
1781515397349387264,1.1755001544952393,0.7677022218704224,0.08787022531032562,-0.2964766323566437,0.9654475450515747,0.02280750870704651,-0.2595973312854767,0.024832546710968018,0.014774885028600693,-0.0025486350059509277,-0.791000679186112,0.06349996870092889,-0.6051190653840114,-0.0641605366246187,-0.02280948663515307,1.3081211521224243,0.17935864696921444
1781515397359420928,1.1855340003967285,0.7742522358894348,0.052686408162117004,-0.2587737441062927,0.9655470252037048,0.023513605818152428,-0.2591645419597626,0.03750485181808472,-0.024703795090317726,-0.016195565462112427,-0.7911361225169826,0.061329315898195534,-0.6055216262544929,-0.06071300015397625,-0.02351577245391919,1.3085650492240786,0.17121941228456278
1781515397369455104,1.1955680847167969,0.8023017644882202,0.09562735259532928,-0.1612948775291443,0.9656857252120972,0.023546330630779266,-0.2586437463760376,0.04090607166290283,0.047361262142658234,-0.010658621788024902,-0.7912158645657379,0.05887163509260157,-0.6059804095997884,-0.05743916099533284,-0.023548507042839246,1.3091041444514742,0.16300962162303076
1781515397379489024,1.2056019306182861,0.8187150359153748,0.07978686690330505,-0.08063783496618271,0.9658961296081543,0.022624660283327103,-0.2579396367073059,0.0577397346496582,0.0358012393116951,-0.03203839063644409,-0.7912025374223268,0.05606443468071665,-0.6065368594693205,-0.05448307380527559,-0.02262659160909311,1.3098389139919455,0.15488256563068575
1781515397389522944,1.2156360149383545,0.9732434153556824,0.09829211235046387,-0.011669685132801533,0.9661113023757935,0.02080366760492325,-0.2572861313819885,0.03959548473358154,0.01369645819067955,-0.041419923305511475,-0.7911898082405052,0.05273543511942341,-0.6071045296623668,-0.05159227691718426,-0.02080516847970293,1.310525962862951,0.14622245024714986
1781515397399557120,1.2256700992584229,1.1816368103027344,0.1265338659286499,0.06456569582223892,0.9664038419723511,0.01772002875804901,-0.2564173936843872,0.07137703895568848,0.012583917006850243,-0.03958788514137268,-0.7911199974141084,0.04834947532137839,-0.6078269760431039,-0.04835294195220812,-0.01772095608073828,1.3114408612271173,0.13571970571793346
1781515397409590016,1.2357029914855957,1.2514572143554688,0.13575665652751923,0.131369486451149,0.9667698740959167,0.01363188587129116,-0.25528430938720703,0.10259652137756348,-0.09760099649429321,-0.011683434247970581,-0.7909630600404277,0.043199771538669704,-0.6086802307865649,-0.04493899982153939,-0.013632307646820925,1.3126300272974167,0.12400895999254452
1781515397419624192,1.245737075805664,1.3068647384643555,0.11960272490978241,0.2039233148097992,0.9671028256416321,0.008780393749475479,-0.25423380732536316,0.10560518503189087,-0.20976915955543518,0.03351542353630066,-0.7908092125586094,0.03767737435630355,-0.6094780645109469,-0.04168389201832857,-0.008780506659860632,1.3137307652387558,0.11209398736346879
1781515397429658112,1.2557711601257324,1.3031829595565796,0.1265726238489151,0.21788494288921356,0.967464029788971,0.003301365999504924,-0.252987265586853,0.03754085302352905,-0.26152586936950684,0.07369649410247803,-0.7905783943096771,0.03178258498848765,-0.6103246914566979,-0.03846467673191332,-0.003301372094616477,1.3150281835968243,0.09978010751612172
1781515397439692032,1.2658050060272217,1.138994574546814,-0.023198768496513367,0.1972007006406784,0.9676001667976379,-0.0019548467826098204,-0.252480149269104,-0.02793341875076294,-0.2142927199602127,0.109840989112854,-0.7905564770492322,0.02619569393289817,-0.6107975998777498,-0.03550537670090222,0.0019548479694814712,1.3155532484126373,0.08825323077375252
1781515397449726208,1.27583909034729,1.123843789100647,-0.09788365662097931,0.16165921092033386,0.9674133062362671,-0.006459010764956474,-0.2531203329563141,-0.03116452693939209,0.009114038199186325,0.0995711088180542,-0.7908765305900548,0.02123020337311818,-0.6107283485302935,-0.03278049090959897,0.006459055890789649,1.3148866244883544,0.07786268965092273
1781515397459759872,1.2858729362487793,1.2179011106491089,-0.09906583279371262,0.24704521894454956,0.9671512842178345,-0.011446400545537472,-0.25394392013549805,-0.08797037601470947,-0.007581312209367752,0.10677284002304077,-0.7912489182890122,0.01587944840607682,-0.6105537569001919,-0.029952803763679463,0.01144665095271168,1.3140234793698071,0.06684490554674366
1781515397469794048,1.2959070205688477,1.0642731189727783,-0.151741161942482,0.32327476143836975,0.9667946696281433,-0.017234446480870247,-0.2549722492694855,-0.12800389528274536,-0.1274341195821762,0.11756691336631775,-0.791659480140235,0.010383851703419825,-0.6102508046706714,-0.027591439442235566,0.01723530025485778,1.3129381179758297,0.05639782173813498
1781515397479827200,1.3059401512145996,0.7901153564453125,-0.1299828737974167,0.3061237335205078,0.9663573503494263,-0.022680403664708138,-0.25620153546333313,-0.108614981174469,0.02498447522521019,0.10237765312194824,-0.7921020024018874,0.0056888412476782555,-0.6098088802404634,-0.025985755138301963,0.02268234831838549,1.3116376242488907,0.048135913422734745
1781515397489861120,1.3159739971160889,0.42479655146598816,-0.09583981335163116,0.26043400168418884,0.9660078883171082,-0.027054570615291595,-0.2570929229259491,-0.12617945671081543,0.3063819706439972,0.004849940538406372,-0.7924084292379486,0.002314787870731513,-0.6094654913133664,-0.025204942783875275,0.0270578723521287,1.310686108821105,0.04279550687884291
1781515397499895040,1.3260080814361572,-0.217910498380661,-0.13104866445064545,0.1728314459323883,0.9656595587730408,-0.02942940592765808,-0.2581387162208557,-0.17426246404647827,0.4308881461620331,-0.03920930624008179,-0.7927215488452636,0.0012042059654056906,-0.6090395663906656,-0.025727889998966365,0.02943365564404728,1.309585424409992,0.04228783730649251
1781515397509928960,1.3360419273376465,-0.5204349756240845,-0.0363788865506649,0.2678101658821106,0.9653497338294983,-0.03023979440331459,-0.25920137763023376,-0.17210638523101807,0.4409300982952118,0.010071128606796265,-0.7929863286196259,0.002275173503665145,-0.6086001463905792,-0.027808207117124093,0.03024440554745545,1.3084782983773426,0.04691104770182346
1781515397519963136,1.3460760116577148,-0.6714404821395874,0.03739280626177788,0.3808762729167938,0.9652824997901917,-0.03207460790872574,-0.259231299161911,-0.14847952127456665,0.11023013293743134,0.0057370662689208984,-0.7928826968177296,0.0034638741918008244,-0.6085822472420676,-0.03086476880958512,0.032080111074066116,1.3084319331158776,0.05321286269404605
1781515397529997056,1.3561100959777832,-0.9716010689735413,0.02679622173309326,0.39950427412986755,0.9652248024940491,-0.03368190675973892,-0.2592426836490631,-0.016021311283111572,-0.030359234660863876,-0.065784752368927,-0.7927158065205689,0.0056034167772245095,-0.6085616317934988,-0.03497241669757989,0.03368827962437303,1.3084059556257492,0.0623421484552565
1781515397540030976,1.3661439418792725,-1.0476633310317993,0.06788001209497452,0.3894695043563843,0.9652220010757446,-0.034850526601076126,-0.2590986490249634,0.14061301946640015,0.08227483183145523,-0.10862290859222412,-0.7924490028832404,0.008479488821427811,-0.608587527835499,-0.039673545280636414,0.03485758329134901,1.3085444293637234,0.07330968535832542
1781515397550065152,1.3761780261993408,-1.097211480140686,0.043515413999557495,0.43262627720832825,0.9652289748191833,-0.036082178354263306,-0.25890398025512695,0.1971094012260437,-0.02731810137629509,-0.055243998765945435,-0.7921293417746261,0.011441149901261157,-0.608619017499641,-0.044533541556363264,0.036090013499277596,1.3087343704385759,0.08463530538862356
1781515397560098048,1.3862111568450928,-1.2575340270996094,-0.015008348971605301,0.4276541471481323,0.9651166796684265,-0.03716953843832016,-0.25916847586631775,0.12442189455032349,-0.08717434108257294,0.009977161884307861,-0.7918964684084714,0.014826684832192702,-0.6084372907196658,-0.04984238854066707,0.037178101052432126,1.3084496238233188,0.09720229595000529
1781515397570131968,1.396245002746582,-1.2405073642730713,-0.045000072568655014,0.43685218691825867,0.9648658037185669,-0.038009632378816605,-0.25997933745384216,0.03229600191116333,0.00036619603633880615,0.013549864292144775,-0.7917817804176854,0.018553357668408068,-0.6080017295952543,-0.055419295106254776,0.038018791665991085,1.3076008194956794,0.11062620740458952
1781515397580166144,1.4062790870666504,-1.0546040534973145,-0.041808273643255234,0.45160582661628723,0.9645817279815674,-0.039331983774900436,-0.2608352601528168,0.021685302257537842,0.061075761914253235,0.04121550917625427,-0.7916650082293283,0.021739202155999966,-0.6075440500465635,-0.06069709275515971,0.03934213200480681,1.306699762742822,0.12292278019497817
1781515397590200064,1.4163129329681396,-0.823966383934021,-0.05820668488740921,0.4577833116054535,0.9642621278762817,-0.04124389961361885,-0.26172029972076416,-0.02841007709503174,0.011504516005516052,0.01838839054107666,-0.7915727346158836,0.024080536213905043,-0.6070914026014833,-0.06536650937722666,0.041255601931204484,1.305761172529923,0.1332296865860495
1781515397600233984,1.426347017288208,-0.6480728387832642,-0.011359285563230515,0.4754866659641266,0.9639633297920227,-0.043847594410181046,-0.2623968720436096,-0.0676162838935852,-0.016043152660131454,0.01488405466079712,-0.791439479714351,0.025535130099424097,-0.6067532654705561,-0.0694405940197822,0.043861656679626077,1.3050292727676727,0.14151057350658666
1781515397610268160,1.4363811016082764,-0.6450868844985962,0.03312895447015762,0.48586127161979675,0.9637848138809204,-0.04685524106025696,-0.26253247261047363,-0.0072724223136901855,-0.040196143090724945,0.027409881353378296,-0.7911336817457673,0.02659850559183804,-0.6066516967710075,-0.07330498685713477,0.046872403401539774,1.3048513324834905,0.1489735807159533
1781515397620302080,1.4464149475097656,-0.7856873869895935,0.06934501230716705,0.4795197546482086,0.9636833667755127,-0.04964560270309448,-0.2623921036720276,-0.03294306993484497,-0.10883217304944992,0.0012074410915374756,-0.7907020157131133,0.027967848117516132,-0.6066479639973476,-0.07737112419797254,0.049666018290799405,1.3049602522472223,0.15712699253507553
1781515397630336000,1.456449031829834,-0.8834230303764343,0.14710599184036255,0.4337594509124756,0.9637298583984375,-0.05188770592212677,-0.26178690791130066,-0.083648681640625,-0.06407909095287323,-0.019890308380126953,-0.7900707268317946,0.02994315025630735,-0.6068030549243001,-0.08174161273396004,0.051911019098621565,1.305557194180211,0.16649388811598168
1781515397640369152,1.466482162475586,-0.8361306190490723,0.22123028337955475,0.34241142868995667,0.9640231132507324,-0.05335723236203194,-0.26040834188461304,-0.016925334930419922,-0.021624457091093063,-0.05167967081069946,-0.789195378971116,0.03227372601928912,-0.6072513821236738,-0.08587694138008821,0.05338258226393044,1.3069664528905776,0.17589884107593756
1781515397650403072,1.4765160083770752,-0.7318511009216309,0.2600786089897156,0.2535257637500763,0.9644838571548462,-0.05418992415070534,-0.2585235834121704,0.014489531517028809,-0.06968092918395996,-0.05710446834564209,-0.7882047788360597,0.03458545930402866,-0.607899713345561,-0.08941505523546892,0.054216481282802896,1.3089090041687959,0.1843148401750677
1781515397660436992,1.4865500926971436,-0.5853995680809021,0.3228732943534851,0.19265760481357574,0.9651130437850952,-0.05463162809610367,-0.256071001291275,-0.04441291093826294,-0.04813632369041443,-0.05972486734390259,-0.7870994281443046,0.03664691686301536,-0.6087869134748439,-0.0922499807554736,0.05465883978289315,1.3114446390362522,0.19128852649251807
1781515397670470912,1.4965839385986328,-0.3989250361919403,0.35138508677482605,0.1545991748571396,0.9658915996551514,-0.05502970144152641,-0.25303182005882263,-0.04184991121292114,-0.009896442294120789,-0.005131572484970093,-0.7858839407440542,0.0382168184249229,-0.6099373405768425,-0.09435204281781151,0.05505751244514655,1.3145865973291075,0.19647670957080163
1781515397680505088,1.5066180229187012,-0.2706112563610077,0.3513818681240082,0.1278194934129715,0.9666998386383057,-0.055577050894498825,-0.24980567395687103,0.0026911497116088867,-0.011210687458515167,0.007389277219772339,-0.7846768121355813,0.039236884085034014,-0.6111936132524878,-0.09584000568972795,0.05560570348887823,1.3179174261918671,0.20000741682938855
1781515397690539008,1.5166521072387695,-0.34977078437805176,0.32547998428344727,0.14015844464302063,0.9674792289733887,-0.05610803887248039,-0.24664908647537231,0.009602069854736328,-0.03379674628376961,0.04019773006439209,-0.783504015113722,0.040162757449686164,-0.6124233893159265,-0.09719044263024018,0.05613751797547288,1.321173748794861,0.2032049176987708
1781515397700572928,1.5266859531402588,-0.5413216352462769,0.23223713040351868,0.18531633913516998,0.968077540397644,-0.056592732667922974,-0.2441784143447876,0.03807175159454346,-0.025346964597702026,0.0924755334854126,-0.7824675299723505,0.041567744544355544,-0.6133375202905256,-0.09916526417975878,0.05662298589419654,1.3237197309590616,0.20800495907880437
1781515397710606080,1.5367190837860107,-0.6567006707191467,0.17401643097400665,0.2189169079065323,0.9684475660324097,-0.05711685121059418,-0.24258410930633545,0.03155243396759033,0.03477797657251358,0.08891284465789795,-0.7816219806908247,0.04339735659234121,-0.6138604190666922,-0.10178006451814038,0.057147951875679254,1.325358794356034,0.21437236173920288
1781515397720640000,1.5467529296875,-0.7223910093307495,0.1598058044910431,0.20861446857452393,0.9687390327453613,-0.05749811232089996,-0.24132689833641052,-0.002338886260986328,0.04234613850712776,0.04061277210712433,-0.7808337378624159,0.045540436321157535,-0.6142170802033472,-0.10470006000418028,0.05752984107405971,1.3266512878163002,0.2216235599269973
1781515397730673920,1.5567870140075684,-0.7264478206634521,0.1379857212305069,0.1819932460784912,0.9689725041389465,-0.057666417211294174,-0.24034763872623444,-0.012292146682739258,-0.005093000829219818,0.059286803007125854,-0.7801119976143029,0.04786692758389255,-0.6144387171489825,-0.10769954897895337,0.05769842515223112,1.3276596257068158,0.2292386422280292
1781515397740708096,1.5668210983276367,-0.625819742679596,0.1758849024772644,0.13361719250679016,0.9692552089691162,-0.05755883827805519,-0.23923109471797943,-0.06445467472076416,-0.057736586779356,-0.0036430656909942627,-0.7793809881637846,0.0501229047816132,-0.6147130630378439,-0.11036736151423263,0.05759066933610742,1.3288133066504213,0.23623810017957805
1781515397750742016,1.576854944229126,-0.5253418684005737,0.22262965142726898,0.06688371300697327,0.9696855545043945,-0.057182177901268005,-0.2375713437795639,-0.06351184844970703,-0.083229199051857,-0.0484546422958374,-0.7785443701144882,0.05216877428800887,-0.6152176420578178,-0.11249156297628497,0.057213385551819824,1.33053062784179,0.24210001153338234
1781515397760775936,1.5868890285491943,-0.4030790328979492,0.1694263517856598,0.011614065617322922,0.9701268672943115,-0.05646251514554024,-0.23593610525131226,0.03646492958068848,-0.07293201982975006,-0.018046438694000244,-0.7777943159580147,0.05397730926628021,-0.6157259123608445,-0.11403532086213367,0.056492558966782874,1.3322266183957645,0.2467484145470161
1781515397770810112,1.5969231128692627,-0.2755620777606964,0.1696552336215973,-0.030264409258961678,0.9705350995063782,-0.055563684552907944,-0.23446626961231232,0.044052302837371826,-0.03739286586642265,0.005737006664276123,-0.7771813765437715,0.055422423351712755,-0.6161941395518451,-0.11498830071289702,0.05559231378829567,1.3337536405910864,0.2500141821595979
1781515397780844032,1.606956958770752,-0.2568874657154083,0.13576917350292206,-0.06197440251708031,0.9709258079528809,-0.0544893741607666,-0.23309656977653503,0.019476354122161865,-0.0369870625436306,0.011279523372650146,-0.7766526873342905,0.05668741479066103,-0.6166346192605735,-0.11558079653749431,0.05451637494747467,1.3351789224951527,0.25248842172949826
1781515397790877184,1.616990089416504,-0.22969046235084534,0.10439527034759521,-0.057737044990062714,0.9712329506874084,-0.05331012234091759,-0.2320879101753235,0.033558428287506104,-0.0031779371201992035,0.0028703510761260986,-0.7762559949030138,0.05790360732639888,-0.6169304779083397,-0.11606345637546646,0.05333540589354431,1.3362329009936054,0.2547394134113596
1781515397800910848,1.6270239353179932,-0.22120988368988037,0.106979601085186,-0.028027353808283806,0.9715000987052917,-0.05235080048441887,-0.2311859130859375,0.04131728410720825,0.06506137549877167,0.0137939453125,-0.7758931465223922,0.058971617777585784,-0.6171947748128275,-0.11654517607647022,0.05237474095457656,1.3371735817993902,0.25680894541238425
1781515397810945024,1.6370580196380615,-0.2713281810283661,0.11209141463041306,0.05304086580872536,0.9717519283294678,-0.051882918924093246,-0.23023143410682678,0.011463403701782227,0.05534665659070015,0.0013190507888793945,-0.7754720563331889,0.0599489669898522,-0.6174871693179883,-0.11729832216774043,0.05190622540107982,1.3381617604958047,0.2591962921778712
1781515397820979200,1.6470921039581299,-0.31146788597106934,0.12111739814281464,0.1435989886522293,0.971961259841919,-0.0521610863506794,-0.22928296029567719,0.012627363204956055,0.0721195787191391,0.013294816017150879,-0.7749724162159223,0.06086799294186462,-0.6177811944835705,-0.1185720102934134,0.05218476731792127,1.3391342631267351,0.262338054267736
1781515397831012864,1.6571259498596191,-0.2810303568840027,0.15349026024341583,0.1946621686220169,0.9721860885620117,-0.053138572722673416,-0.22810229659080505,0.0006991028785705566,0.08704358339309692,0.0038438141345977783,-0.774353823053654,0.06157896467388106,-0.6181883853420216,-0.12011418186990311,0.0531636106596061,1.3403367086123141,0.2656406125656507
1781515397841047040,1.6671600341796875,-0.31369614601135254,0.16476528346538544,0.19627365469932556,0.9724538326263428,-0.054403048008680344,-0.22665852308273315,-0.014629006385803223,-0.004465382546186447,-0.0019334256649017334,-0.7736312900878951,0.062211524464631636,-0.6187087097536677,-0.12175407246916882,0.054429918152946496,1.3418056599828934,0.2689929322438029
1781515397851081216,1.6771941184997559,-0.29854249954223633,0.14032037556171417,0.17298057675361633,0.9727023243904114,-0.05549008399248123,-0.22532443702220917,-0.0059359073638916016,-0.04619450494647026,0.011274129152297974,-0.7729396660983618,0.06295227782271168,-0.6191726658510731,-0.1233958765985822,0.055518599108156784,1.3431634080676818,0.27248590595811273
1781515397861114112,1.6872270107269287,-0.1866748183965683,0.12261143326759338,0.13942500948905945,0.9729011654853821,-0.0565015971660614,-0.2242114543914795,0.012496113777160645,-0.018434304744005203,0.023360028862953186,-0.7723657163362837,0.06347536932280302,-0.6195685196134814,-0.12472711963912002,0.056531701718843745,1.344294362751059,0.27522005446086073
1781515397871148032,1.697261095046997,-0.06673482805490494,0.16329841315746307,0.09896308183670044,0.9731552004814148,-0.057390209287405014,-0.22287996113300323,-0.01328575611114502,0.01327703520655632,-0.015874356031417847,-0.7718060918637878,0.06366692460879139,-0.6200859162915364,-0.12552070954831232,0.057421758387690106,1.345651136409362,0.27668001672010734
1781515397881181952,1.7072949409484863,-0.11492286622524261,0.13047388195991516,0.06320535391569138,0.9734360575675964,-0.05799546465277672,-0.2214919924736023,0.00016617774963378906,-0.039645515382289886,-0.02727203071117401,-0.7712676797594268,0.06384411839132484,-0.6206270482384727,-0.1260638532390284,0.058028024478878455,1.3470691551322953,0.2777225615524512
1781515397891216128,1.7173290252685547,-0.06488952785730362,0.16574598848819733,0.0600401870906353,0.9737185835838318,-0.058350592851638794,-0.22015312314033508,0.024389326572418213,-0.027174919843673706,-0.023987531661987305,-0.7707530027754745,0.06413620580936141,-0.6211360441520438,-0.12655596070002967,0.058383753926169124,1.3484396764484285,0.2788292895600022
1781515397901250048,1.727363109588623,-0.08151990175247192,0.1916377693414688,0.0845617726445198,0.9740821719169617,-0.05889301374554634,-0.21839328110218048,0.02137070894241333,0.012002754956483841,-0.03291898965835571,-0.770117437248714,0.06426778339685049,-0.621830369795784,-0.12694820256935485,0.05892711140964837,1.3502394962796516,0.27956369577019696
1781515397911283968,1.7373969554901123,-0.16149622201919556,0.12235922366380692,0.12286016345024109,0.9743591547012329,-0.059632476419210434,-0.21695177257061005,0.03279709815979004,-0.004683300852775574,0.03465500473976135,-0.7695232631658838,0.06454358563366129,-0.6223811024200723,-0.12770958024424306,0.059667876596402596,1.3517092934633657,0.28107231021948725
1781515397921318144,1.7474310398101807,-0.10452881455421448,0.10427077114582062,0.14390206336975098,0.9745189547538757,-0.06064743176102638,-0.21595077216625214,-0.03489798307418823,0.04267258197069168,0.043587520718574524,-0.7690453597718321,0.06472935301784924,-0.622763778771636,-0.12862585645143101,0.060684671331521306,1.3527229633030462,0.2827254738693932
1781515397931352064,1.757465124130249,-0.04148673266172409,0.05437232181429863,0.12126652896404266,0.9746185541152954,-0.06181749328970909,-0.21516761183738708,-0.053613364696502686,0.002933833748102188,0.043277397751808167,-0.7686710203460865,0.0646320623466329,-0.6230881871611474,-0.12933889873346915,0.06185693270634474,1.3535106324988941,0.2837070536826704
1781515397941384960,1.7674980163574219,0.04533631354570389,-0.0018794978968799114,0.04927888512611389,0.9746134877204895,-0.06265879422426224,-0.2149481624364853,-0.02313631772994995,-0.059091098606586456,0.027768582105636597,-0.7685439889281707,0.06438332289762318,-0.6232019775007136,-0.12967034366728653,0.06269987124591618,1.3537242499847382,0.2839115822521176
1781515397951419136,1.7775321006774902,0.1450035125017166,-0.013105388730764389,-0.03239334002137184,0.9745933413505554,-0.06294500082731247,-0.2149556428194046,-0.05004793405532837,-0.06944027543067932,-0.01528427004814148,-0.7685893144911672,0.06399300725770427,-0.6232391812802855,-0.12941554951928486,0.06298663882343042,1.353712592073279,0.2830176106645559
1781515397961453056,1.7875659465789795,0.26261138916015625,-0.027537057176232338,-0.09866423904895782,0.974596381187439,-0.06272830069065094,-0.21500450372695923,-0.02440112829208374,-0.07237301766872406,-0.009940564632415771,-0.768755286474152,0.06340133335636064,-0.6232800512666589,-0.1285204929393375,0.06276950912459822,1.3536654478929253,0.28085896427286405
1781515397971486976,1.7976000308990479,0.40256422758102417,-0.015261083841323853,-0.14572976529598236,0.9746179580688477,-0.062249068170785904,-0.21504627168178558,0.015524864196777344,0.0006188265979290009,0.014271095395088196,-0.7690205065466547,0.0624764280349471,-0.6233566881315383,-0.12700623776428724,0.062289339048987244,1.3536292242503656,0.2773022122517444
1781515397981521152,1.8076341152191162,0.41813012957572937,0.007457278203219175,-0.16373911499977112,0.9747193455696106,-0.061614762991666794,-0.214769184589386,-0.007083237171173096,0.01704384759068489,0.0021074414253234863,-0.7692484533216548,0.061334140834798684,-0.6235812125991647,-0.1250656261531768,0.061653815928964094,1.3539222041770447,0.2727892656646527
1781515397991555072,1.8176679611206055,0.29320523142814636,0.013616504147648811,-0.1462850272655487,0.97483229637146,-0.060849759727716446,-0.2144746482372284,-0.004129171371459961,-0.014498148113489151,0.012356758117675781,-0.7694293408859622,0.06046115991965473,-0.623784516302935,-0.12335264401305165,0.06088737194425324,1.3542347271612702,0.2689757952227831
1781515398001588992,1.8277020454406738,0.23848766088485718,0.06558942794799805,-0.10317962616682053,0.9749918580055237,-0.060185980051755905,-0.21393544971942902,-0.020722508430480957,0.029759962111711502,-0.032249853014945984,-0.7694667348824875,0.05985185976430356,-0.6240593155401157,-0.12201885943104282,0.06022237674318409,1.3547966386997166,0.26608664233720425
1781515398011623168,1.8377361297607422,0.20309531688690186,0.10537891089916229,-0.07104219496250153,0.9752354621887207,-0.059815503656864166,-0.2129269391298294,0.0049890875816345215,0.027588941156864166,-0.05355255305767059,-0.7693027516972204,0.05933588658753798,-0.6245124381844662,-0.12098239902555748,0.05985123081270549,1.3558357885611991,0.2637710508687315
1781515398021656064,1.847769021987915,0.2115500569343567,0.10766443610191345,-0.05506376549601555,0.975502073764801,-0.05963696911931038,-0.21175262331962585,0.050636231899261475,0.012395765632390976,-0.010277986526489258,-0.7690626885489005,0.05881774090711533,-0.6250313287115106,-0.12007880490705723,0.05967237723829638,1.3570420896016153,0.26165806908470307
1781515398031690240,1.8578031063079834,0.26276424527168274,0.1074102371931076,-0.07736054807901382,0.975774347782135,-0.05949673429131508,-0.21053414046764374,0.01883929967880249,0.01172146201133728,0.004082739353179932,-0.768825080333337,0.0581829198782504,-0.6255778765264542,-0.11905928531314486,0.0595318914056558,1.3582928197854476,0.2592146281006091
1781515398041723904,1.8678369522094727,0.3320256173610687,0.07583979517221451,-0.13900607824325562,0.9760352373123169,-0.059057340025901794,-0.2094458043575287,-0.0753394365310669,-0.034250158816576004,0.008106052875518799,-0.7686788617285568,0.057459029264247355,-0.6260795125928835,-0.11771062631229393,0.05909172439978484,1.359413648815201,0.25614517508459084
1781515398051758080,1.877871036529541,0.43946176767349243,0.040316421538591385,-0.18494613468647003,0.9762536287307739,-0.058287207037210464,-0.208641916513443,-0.08698666095733643,-0.07389968633651733,0.020668864250183105,-0.7687023715409604,0.05649178721842515,-0.6264884032112298,-0.11583450407727927,0.05832026007965105,1.3602468832614334,0.2519483264139115
1781515398061792256,1.8879051208496094,0.42589378356933594,-0.010822393000125885,-0.24235936999320984,0.9764135479927063,-0.05710386857390404,-0.20822091400623322,0.04340773820877075,-0.041605256497859955,0.07008305191993713,-0.7688943531022017,0.055490113055921206,-0.6267458745750704,-0.11363133383131312,0.05713495041211663,1.3606927412984828,0.2472068346823795
1781515398071825920,1.8979389667510986,0.35937467217445374,-0.052968379110097885,-0.2627700865268707,0.976489782333374,-0.055424854159355164,-0.2083163559436798,0.0611383318901062,-0.024790599942207336,0.05351591110229492,-0.7692493719026983,0.054754794737253996,-0.6267724736167148,-0.11141605876755302,0.055453270622728146,1.3606151744741752,0.2427991608731487
1781515398081860096,1.907973051071167,0.3316152095794678,-0.03340186923742294,-0.2290472835302353,0.9765273332595825,-0.053695350885391235,-0.20859269797801971,-0.01952672004699707,0.007720638066530228,-0.0002696216106414795,-0.769628757265376,0.05419861132231822,-0.6267105911988455,-0.10939736054527821,0.05372118510567872,1.36035238110658,0.23893273925776629
1781515398091892992,1.9180059432983398,0.2824822962284088,0.04670015349984169,-0.18370403349399567,0.9766437411308289,-0.05235163867473602,-0.20838986337184906,0.0015667080879211426,0.05494563281536102,-0.029387831687927246,-0.7698125609381865,0.05363516606510062,-0.6268399634689615,-0.10762690288739608,0.05237558150363491,1.360575353910119,0.23543529044214898
1781515398101927168,1.9280400276184082,0.15270830690860748,0.10467317700386047,-0.14992770552635193,0.9768971800804138,-0.051159828901290894,-0.20749598741531372,0.018784523010253906,-0.0076170265674591064,-0.04128330945968628,-0.769712133964518,0.05335589880796709,-0.6272201815242848,-0.10626028927783426,0.05118217373465913,1.3615036576499882,0.2329138982466101
1781515398111961088,1.9380741119384766,0.027498461306095123,0.1441783756017685,-0.07858506590127945,0.9772114753723145,-0.05019758641719818,-0.20624715089797974,-0.04776817560195923,-0.04666520282626152,-0.044103801250457764,-0.7694097366649506,0.05345709902494014,-0.6277091386666421,-0.10550938550125039,0.05021869125450359,1.3627921648254588,0.23183166819648163
1781515398121995008,1.9481079578399658,0.00010651809861883521,0.1863228976726532,-0.022973738610744476,0.9775835871696472,-0.049732137471437454,-0.20458979904651642,-0.030867338180541992,0.04468148574233055,-0.014450117945671082,-0.7689096520414679,0.05365239257992748,-0.6283522297800579,-0.1052274643740626,0.04975266187475766,1.36449274681883,0.23159481386385383
1781515398132029184,1.9581420421600342,-0.05978957191109657,0.1588653028011322,-0.01823517680168152,0.9779513478279114,-0.049488089978694916,-0.20288407802581787,0.020537972450256348,0.022907298058271408,0.048877209424972534,-0.7683601114312282,0.05390782569256722,-0.629008668792189,-0.10518880134768957,0.04950831217198798,1.366239758253945,0.23181488604891898
1781515398142063104,1.9681761264801025,-0.0876142755150795,0.14520008862018585,-0.03568793460726738,0.9782668352127075,-0.049061402678489685,-0.20146232843399048,-0.05758202075958252,-0.05639209225773811,0.03941398859024048,-0.7678815690436829,0.05438626971429097,-0.6295323438570736,-0.10530501943246318,0.04908110648406755,1.367697723621924,0.23256779694478752
1781515398152097024,1.9782099723815918,-0.04154185950756073,0.13322652876377106,-0.059495262801647186,0.9785751104354858,-0.04846720024943352,-0.2001042366027832,-0.03845059871673584,-0.04322286322712898,0.011169910430908203,-0.7674393256749713,0.054872398802972455,-0.6300292855985056,-0.10530437055338569,0.04848619678742596,1.3690917082997054,0.23314995696641364
1781515398162130944,1.9882440567016602,0.04594830796122551,0.11799883842468262,-0.07596558332443237,0.978855311870575,-0.04778900370001793,-0.19889289140701294,0.03496909141540527,-0.0043197497725486755,0.019617393612861633,-0.7670844893406917,0.0551629568517083,-0.6304844216601672,-0.10501314392693227,0.0478072141773229,1.3703360620807743,0.23303395228678414
1781515398172163840,1.998276948928833,0.1265036016702652,0.14284320175647736,-0.07747533172369003,0.9791522026062012,-0.04722163826227188,-0.19756245613098145,0.017277121543884277,0.006663784384727478,-0.01189492642879486,-0.7667376098172589,0.0551074181902213,-0.6310165937334563,-0.10437720640689636,0.04723920571058641,1.371700487346594,0.2319376079813817
1781515398182198016,2.0083110332489014,0.09283751994371414,0.15085744857788086,-0.051128678023815155,0.9794759154319763,-0.046798788011074066,-0.19605286419391632,0.021225929260253906,0.00675974041223526,-0.012031227350234985,-0.766335397272835,0.0549481859367085,-0.6316282655078851,-0.10371311456686996,0.0468158889343558,1.373245975416918,0.23066217391413862
1781515398192232192,2.0183451175689697,0.002830132842063904,0.15965694189071655,0.005608104169368744,0.9797895550727844,-0.046683814376592636,-0.19450663030147552,0.029640257358551025,0.02709154412150383,0.021349921822547913,-0.7658690834301851,0.05490623343677011,-0.6322436163639089,-0.10342989937855056,0.04670078749437529,1.3748254217613953,0.23013036635456877
1781515398202265856,2.028378963470459,-0.11674926429986954,0.16781872510910034,0.05560389533638954,0.980092465877533,-0.046874646097421646,-0.19292934238910675,0.01787811517715454,0.03414880856871605,0.019284307956695557,-0.7653194146052248,0.05511539287461406,-0.6328488168323518,-0.10368701304411414,0.04689182937504397,1.3764332728896933,0.23076077798946368
1781515398212300032,2.0384130477905273,-0.16976773738861084,0.18214266002178192,0.1019599437713623,0.9803959131240845,-0.04735814034938812,-0.19126136600971222,-0.019443213939666748,0.016138672828674316,0.0031510144472122192,-0.7646760765574707,0.055527482093657085,-0.633471401235188,-0.10440819758132817,0.047375860458758884,1.3781303478906408,0.23237098864325775
1781515398222334208,2.0484471321105957,-0.19412128627300262,0.18141642212867737,0.13075828552246094,0.9806913733482361,-0.04817107319831848,-0.18953610956668854,-0.006265103816986084,0.01664641872048378,0.01279360055923462,-0.7639770311677088,0.05594947479231991,-0.634114817844114,-0.10539045616408141,0.048189721790493155,1.3798822975293052,0.23439871604804374
1781515398232367872,2.058480978012085,-0.17808158695697784,0.19148635864257812,0.13112634420394897,0.9809772968292236,-0.04910527169704437,-0.18780869245529175,-0.002736389636993408,0.02031194418668747,0.019534781575202942,-0.7632655188114258,0.05635379970364647,-0.6347597186057946,-0.1064427142544623,0.04912502662041852,1.3816346933495038,0.23651186029806803
1781515398242402048,2.0685150623321533,-0.12557657063007355,0.19822123646736145,0.11784516274929047,0.9812853932380676,-0.05005374178290367,-0.18593917787075043,-0.031090199947357178,-0.010676223784685135,0.001124754548072815,-0.7625255355018651,0.05664282067809576,-0.6354699052941025,-0.10735121748198098,0.0500746658547434,1.3835311740423464,0.2382490797296263
1781515398252434944,2.078547954559326,-0.09792444109916687,0.20005522668361664,0.10185714066028595,0.9816000461578369,-0.05094003304839134,-0.18402895331382751,-0.0005971193313598633,-0.02610160782933235,-0.001167014241218567,-0.7617982797152935,0.05681461131171783,-0.6362056432652882,-0.1080645716816074,0.05096209073312288,1.3854690885965313,0.23953031295544808
1781515398262469120,2.0885820388793945,-0.09392090886831284,0.20621457695960999,0.09508579224348068,0.981922447681427,-0.05171559378504753,-0.18208155035972595,0.011943459510803223,-0.009594213217496872,-0.0002304166555404663,-0.7610714145940044,0.056979696584766974,-0.6369556803526156,-0.10867854179182347,0.05173867252285447,1.3874452102049155,0.24064621208114356
1781515398272504320,2.0986173152923584,-0.1298794448375702,0.20347099006175995,0.10661408305168152,0.9822445511817932,-0.052497249096632004,-0.18010972440242767,0.012307941913604736,-0.006432183086872101,0.010370984673500061,-0.7603269500389532,0.057193540233309186,-0.6377099915110832,-0.10935129634767873,0.05252139186613546,1.3894454651269972,0.24191427628116113
1781515398282538496,2.1086513996124268,-0.16928251087665558,0.1789187788963318,0.1126975417137146,0.9825342297554016,-0.053286343812942505,-0.17828838527202606,0.0071048736572265625,0.002108383923768997,0.027089014649391174,-0.75960688405641,0.05752996368605253,-0.638393383936924,-0.1101880588305319,0.05331159203553692,1.391291818819159,0.2435974147217517
1781515398292572416,2.118685483932495,-0.18739652633666992,0.15039779245853424,0.12559042870998383,0.9827628135681152,-0.05415662005543709,-0.17676080763339996,-0.012349605560302734,0.005755741149187088,0.02980339527130127,-0.7589595848815317,0.05792174317073994,-0.6389559219858523,-0.11117914324305532,0.05418312766316383,1.3928379320871338,0.24559823183738913
1781515398302606336,2.1287193298339844,-0.1840771734714508,0.12660643458366394,0.11880230158567429,0.9829381704330444,-0.0550558976829052,-0.17550337314605713,0.0005975961685180664,0.007784172892570496,0.03908979892730713,-0.7583935539966317,0.0583075166530686,-0.6394126586857587,-0.11220921752461614,0.055083750460914835,1.3941084713030736,0.24765834539305567
1781515398312640512,2.1387534141540527,-0.17847894132137299,0.10486172884702682,0.08811523020267487,0.9830825328826904,-0.05575237050652504,-0.17447194457054138,-0.00694727897644043,-0.01242389902472496,0.03506769239902496,-0.757913546464652,0.0587334767275466,-0.6397768393317197,-0.11315052022130949,0.05578129234344454,1.3951508296667456,0.24963833422255827
1781515398322674432,2.148787498474121,-0.16998185217380524,0.11199606955051422,0.04457814246416092,0.983232855796814,-0.05608103796839714,-0.173516646027565,-0.031999945640563965,-0.03759266063570976,0.013451933860778809,-0.7574817561030861,0.059255990467562844,-0.6401018715570335,-0.11392850868226251,0.05611047809487006,1.396119235739586,0.2514915944698918
1781515398332707328,2.158820390701294,-0.13336871564388275,0.1398378163576126,0.0057505834847688675,0.9834362268447876,-0.056070227175951004,-0.17236416041851044,-0.023398995399475098,-0.059393029659986496,-0.02026277780532837,-0.7570171000762197,0.05983157691300134,-0.6404983224009866,-0.11448685696093558,0.05609964717377858,1.3972913631026318,0.25306751994279636
1781515398342741504,2.1688544750213623,-0.04931030049920082,0.17953357100486755,-0.019103899598121643,0.9837144613265991,-0.05584152042865753,-0.17084336280822754,-0.0059923529624938965,-0.023763567209243774,-0.04891370236873627,-0.7564832678564327,0.06028375874131457,-0.6410492835250229,-0.1146938561970858,0.055870581394399314,1.3988397748357995,0.2539297924488127
1781515398352775424,2.1788883209228516,0.009767401963472366,0.21997153759002686,-0.038664016872644424,0.984076976776123,-0.05550024285912514,-0.16885590553283691,-0.016028881072998047,0.0025827623903751373,-0.037015676498413086,-0.7558452973803417,0.060567322510868285,-0.6417972023596153,-0.11456835177696274,0.055528775763815715,1.4008630829103665,0.25404703658478217
1781515398362809344,2.18892240524292,0.011826824396848679,0.24357114732265472,-0.018757687881588936,0.9844858646392822,-0.05522559583187103,-0.16654673218727112,-0.008442163467407227,-0.018459096550941467,-0.019885167479515076,-0.7551157787951915,0.06074685044225927,-0.6426791236855254,-0.11433964459729387,0.055253704999401694,1.403211723972119,0.2538620311949982
1781515398372843520,2.1989564895629883,-0.00929124467074871,0.25353866815567017,0.01574808917939663,0.9849017262458801,-0.055213820189237595,-0.1640738844871521,0.02175116539001465,0.0258406363427639,-0.009464338421821594,-0.7543107224945511,0.06088429058940775,-0.6436273461137852,-0.11424713968266553,0.05524191256831802,1.405723128147274,0.25382923634167087
1781515398382877440,2.2089903354644775,-0.040796440094709396,0.23878636956214905,0.05967160686850548,0.9852873086929321,-0.05555179715156555,-0.16162602603435516,0.014773786067962646,0.047495149075984955,0.020238041877746582,-0.7534772160463883,0.06099225858241675,-0.6445672451252761,-0.11439020002487807,0.055580409717907654,1.4082049095223617,0.2541225622409258
1781515398392911360,2.219024419784546,-0.05702148377895355,0.20756107568740845,0.08937463909387589,0.9856048226356506,-0.05620833858847618,-0.1594488024711609,-0.007012784481048584,0.023722369223833084,0.041055843234062195,-0.7526964309557714,0.061073707584252984,-0.6454034404567497,-0.1147718243868629,0.05623797658691226,1.4104082965531342,0.2547561720926122
1781515398402945536,2.2290585041046143,-0.06102101877331734,0.16877932846546173,0.0839758813381195,0.9858487248420715,-0.05700524523854256,-0.1576482355594635,0.0017611980438232422,0.0031417086720466614,0.04932606220245361,-0.7520252659562433,0.06111385466786958,-0.646096725663183,-0.11524866627492222,0.057036165472577206,1.4122276627485657,0.25549223470685145
1781515398412978432,2.239091396331787,-0.028566671535372734,0.17655214667320251,0.031666334718465805,0.9860821962356567,-0.05751177296042442,-0.15599438548088074,-0.018217265605926514,-0.029844798147678375,0.01575089991092682,-0.7514253359759479,0.06120173333339638,-0.646728035713957,-0.11557318685304376,0.057543525811197614,1.4139004015292858,0.25605918436853176
1781515398423012608,2.2491254806518555,0.006317276041954756,0.18960830569267273,-0.031940069049596786,0.986367404460907,-0.0575064979493618,-0.15418310463428497,-0.020135104656219482,-0.0789070799946785,-0.019934937357902527,-0.750824408522371,0.061349068400152786,-0.6474138858910111,-0.11556073962636895,0.05753824190761245,1.415737038334395,0.25618038518552233
1781515398433046272,2.2591593265533447,0.08867233991622925,0.21950268745422363,-0.09142310172319412,0.9867179989814758,-0.056951817125082016,-0.15213198959827423,0.0021431446075439453,-0.06232614442706108,-0.02837945520877838,-0.7502108892257854,0.06149691234488993,-0.6481914315229214,-0.11510729344522679,0.05698264835893368,1.4178210753130713,0.25561804064798493
1781515398443080448,2.269193410873413,0.1196020245552063,0.24690954387187958,-0.10774455219507217,0.9871322512626648,-0.056100960820913315,-0.14974185824394226,-0.007914721965789795,-0.022161368280649185,-0.02544426918029785,-0.7495386196716695,0.06155475629216346,-0.6491071446837721,-0.1142926058755708,0.05613042966678535,1.4202502534357924,0.25437546237984815
1781515398453114624,2.2792274951934814,0.07643724232912064,0.2483399361371994,-0.107505664229393,0.9875617027282715,-0.055178698152303696,-0.14723217487335205,0.008562564849853516,-0.0073670893907547,-0.005630373954772949,-0.7488245886279552,0.06167033229049575,-0.6500620629628429,-0.11348087149420112,0.05520673520204649,1.4227998492034402,0.253212471857231
1781515398463148288,2.2892613410949707,0.047908660024404526,0.23309919238090515,-0.0754968672990799,0.9879689812660217,-0.05432340130209923,-0.14479674398899078,0.01244288682937622,0.01704620197415352,0.009573370218276978,-0.748105453663607,0.06189625268838352,-0.6509765588561848,-0.11285602082834541,0.054350153664865196,1.4252723513866528,0.25248537398270016
1781515398473182464,2.299295425415039,0.04938831552863121,0.21825605630874634,-0.024091733619570732,0.9883186221122742,-0.05392574146389961,-0.14254166185855865,0.01752537488937378,0.05346798524260521,0.022088780999183655,-0.7474136125373876,0.06198939875016453,-0.6518331734964526,-0.1124437870820356,0.053951910368158336,1.4275576381488124,0.2519162833319434
1781515398483216640,2.3093295097351074,0.023126883432269096,0.20223368704319,0.014112376607954502,0.9886178374290466,-0.0539342500269413,-0.14044980704784393,0.02014082670211792,0.054071564227342606,0.028206095099449158,-0.7467449571250157,0.06197884719918303,-0.6526359798834439,-0.11223640448601302,0.053960430990359,1.4296738635301536,0.25152931716762483
1781515398493249536,2.3193624019622803,0.0006633850862272084,0.18078859150409698,0.043596234172582626,0.9888701438903809,-0.054245270788669586,-0.1385403424501419,-0.01203298568725586,0.016906999051570892,0.022863447666168213,-0.746103128817848,0.061947343854226365,-0.6533700012862095,-0.11225146842076512,0.05427190850849134,1.431602680022756,0.25145943915624397
1781515398503283456,2.3293964862823486,0.023736746981739998,0.1886957734823227,0.0398225337266922,0.989096462726593,-0.05470365658402443,-0.13673241436481476,-0.006674528121948242,0.0062569864094257355,0.016447409987449646,-0.7454846924212511,0.06186862754767936,-0.6540688514033235,-0.11233365225480335,0.0547309764160222,1.4334272435599462,0.2514320661313601
1781515398513317376,2.339430332183838,0.04957367107272148,0.22196105122566223,0.016888722777366638,0.98935866355896,-0.055043283849954605,-0.1346837431192398,-0.014520406723022461,-0.018351495265960693,-0.018407702445983887,-0.7448108433766228,0.061737608171492125,-0.6548638003296553,-0.11224392254706828,0.055071115993463024,1.4354956621685022,0.2510664021920502
1781515398523351552,2.3494644165039062,0.027164768427610397,0.24149826169013977,-0.01295039989054203,0.989668607711792,-0.05511060729622841,-0.1323591023683548,-0.009428739547729492,-0.04645189642906189,-0.016612470149993896,-0.7440594656256211,0.06171740602446041,-0.6557525513230807,-0.11204946717962214,0.05513854265603419,1.4378444294272437,0.25067985076817756
1781515398533385472,2.3594985008239746,0.005742832086980343,0.24864034354686737,-0.040410518646240234,0.9900044202804565,-0.054857973009347916,-0.12993013858795166,-0.0027913451194763184,-0.048901792615652084,-0.001280173659324646,-0.743276524321164,0.06189203793592703,-0.6566614877572701,-0.1118260886341213,0.05488552601939307,1.4403001865642866,0.2505046956575775
1781515398543419392,2.369532346725464,-0.0035396157763898373,0.2459484189748764,-0.06779047846794128,0.9903541207313538,-0.05431809276342392,-0.12746909260749817,-0.01223522424697876,-0.03702102228999138,0.004513740539550781,-0.7424893054272664,0.062216499585413615,-0.6575671531453523,-0.11155382623441838,0.05434483879492415,1.4427894848467377,0.25045418033886113
1781515398553453568,2.3795664310455322,0.017717735841870308,0.23204684257507324,-0.08985636383295059,0.9906995892524719,-0.053536370396614075,-0.12509261071681976,-0.0177839994430542,-0.023779910057783127,0.014481619000434875,-0.7417473695177621,0.0625887860957729,-0.6584347656639722,-0.11116249578320193,0.05356197568103788,1.4451940745310354,0.25029053219352576
1781515398563487488,2.3896005153656006,0.01706153340637684,0.20262423157691956,-0.10524517297744751,0.9910240173339844,-0.052606016397476196,-0.12289723008871078,-0.011699855327606201,-0.01079423725605011,0.023455701768398285,-0.7410790151859555,0.06296461254874834,-0.6592320083918157,-0.11068146062380049,0.05263031089258739,1.4474158806309851,0.2500026897912741
1781515398573520384,2.3996334075927734,0.023832088336348534,0.157441183924675,-0.11184822022914886,0.9913027882575989,-0.05154639855027199,-0.12108571827411652,-0.0014499425888061523,-0.013791743665933609,0.03531605005264282,-0.7405464992567877,0.06335176944447056,-0.6598815758871687,-0.11015329642732573,0.05156925357278658,1.449250369868386,0.24967090506467135
1781515398583554560,2.409667491912842,0.10069917142391205,0.14108377695083618,-0.10750486701726913,0.9915348291397095,-0.05051017925143242,-0.11961387097835541,-0.0023990869522094727,0.014865648001432419,0.0285341739654541,-0.7401478449301649,0.06357405256006993,-0.6604175994228886,-0.1094902497677354,0.05053168211475364,1.450741395092497,0.24892605939199564
1781515398593588480,2.419701337814331,0.15433523058891296,0.15122084319591522,-0.08662914484739304,0.9917573928833008,-0.049692220985889435,-0.11810187995433807,0.004565298557281494,0.043634481728076935,-0.007523715496063232,-0.7397633329835985,0.06348017418945215,-0.6609987360355997,-0.10863321047389926,0.04971269288500455,1.45227104933967,0.24746706550254782
1781515398603622400,2.4297354221343994,0.1275121420621872,0.18645791709423065,-0.058114681392908096,0.9919927716255188,-0.04912620782852173,-0.11634928733110428,0.010692894458770752,0.022759001702070236,-0.022826150059700012,-0.7392890647467933,0.063281226795087,-0.6616803166388131,-0.10782582098389244,0.04914599035586567,1.4540413117621633,0.2459385614615772
1781515398613656576,2.4397695064544678,0.0640905573964119,0.2310008853673935,-0.031138725578784943,0.992255687713623,-0.04879496619105339,-0.11422760784626007,-0.010169386863708496,0.0011417530477046967,-0.021331503987312317,-0.7386503135385662,0.06319170158274158,-0.6624900030267318,-0.10728320944665772,0.0488143509565693,1.456181731574467,0.2449482933357567
1781515398623690240,2.449803352355957,-0.0061124954372644424,0.2552796006202698,-0.01315226685255766,0.9925430417060852,-0.04863777011632919,-0.11177126318216324,-0.015705883502960205,-0.021857839077711105,-0.006148695945739746,-0.7378554507136783,0.06327060730381552,-0.6634087718690929,-0.107028201704539,0.04865696771820805,1.4586577534459608,0.24460990106572325
1781515398633724416,2.4598374366760254,-0.06138027831912041,0.24061822891235352,-0.016642073169350624,0.9928279519081116,-0.048443716019392014,-0.10929786413908005,0.0066991448402404785,-0.03520497307181358,0.01837073266506195,-0.7370180848008387,0.06359796126406161,-0.6643089384874259,-0.10702054715865716,0.04846268488224442,1.4611504296821933,0.24497729825351966
1781515398643758592,2.4698715209960938,-0.09576860815286636,0.2031041383743286,-0.03419949486851692,0.9930835366249084,-0.04812803864479065,-0.10709322988986969,-0.008143842220306396,-0.04296695068478584,0.0452493280172348,-0.7362524234351552,0.06410031543184466,-0.6650898691538643,-0.10714045640816555,0.04814663839602238,1.4633723671016305,0.24577874144483589
1781515398653791488,2.4799044132232666,-0.08976371586322784,0.149501234292984,-0.06382476538419724,0.9932948350906372,-0.047556374222040176,-0.10537442564964294,-0.030236423015594482,-0.04593423008918762,0.04862702637910843,-0.7356553448811801,0.06470803918508976,-0.6656768409675817,-0.10723071168571921,0.04757431697120781,1.4651058814189917,0.24668975484666186
1781515398663825408,2.489938497543335,-0.05633465200662613,0.07638628035783768,-0.10667715966701508,0.993455708026886,-0.04664509370923042,-0.10425885766744614,0.0024701356887817383,-0.03216654062271118,0.04178941994905472,-0.7352906819565109,0.06532171203387567,-0.6660357692180103,-0.10713087209153922,0.046662024599093736,1.466233428402566,0.24733851758793504
1781515398673859328,2.499972343444824,0.01965971291065216,0.010672246105968952,-0.13778048753738403,0.9935579299926758,-0.045392025262117386,-0.10383664816617966,0.03444182872772217,-0.013033870607614517,0.04640258848667145,-0.735205339723048,0.0658341236268439,-0.6661437866912305,-0.10673012843181644,0.04540762772673171,1.4666644396723083,0.24741607216036765
1781515398683893504,2.5100064277648926,0.08612369000911713,-0.016897596418857574,-0.13804973661899567,0.9936129450798035,-0.04405929893255234,-0.10388502478599548,0.002328157424926758,0.022071387618780136,0.03363359719514847,-0.7353238125932093,0.06608519477396063,-0.6661007679675425,-0.1060254987701279,0.04407356483299309,1.466622000642125,0.24669678189386016
1781515398693927424,2.520040512084961,0.08705472946166992,-0.003836521878838539,-0.12325506657361984,0.993658721446991,-0.04284290224313736,-0.10395651310682297,-0.028479278087615967,0.028957393020391464,0.0062697529792785645,-0.7354611591849047,0.066182081640259,-0.6660643172626433,-0.1052387881550828,0.04285601950055275,1.466555599859918,0.24564747604035678
1781515398703961344,2.53007435798645,0.0705559179186821,0.018638426437973976,-0.08002370595932007,0.993710994720459,-0.04190288856625557,-0.10383928567171097,-0.017041683197021484,0.00834881141781807,-0.014950394630432129,-0.7355140266372814,0.06623292104327923,-0.666103262432462,-0.10458841937399452,0.041915162056247235,1.4666777358342997,0.24473707673667472
1781515398713995520,2.5401084423065186,0.008093072101473808,0.03272721543908119,-0.041016656905412674,0.993764340877533,-0.041352082043886185,-0.10355070233345032,0.027140259742736816,0.017716199159622192,-0.00634312629699707,-0.7354679863509406,0.06629464999153775,-0.6662054256989278,-0.10422255831568396,0.04136387657494327,1.4669705550417553,0.24426507786965804
1781515398724029440,2.550142526626587,-0.06348923593759537,0.00960751436650753,-0.0158335380256176,0.9938000440597534,-0.041036996990442276,-0.10333257168531418,0.022709965705871582,0.0007232613861560822,0.015091001987457275,-0.735396527682406,0.06650657443195096,-0.6662661549690333,-0.10420340671787054,0.04104852514241287,1.4671913976861741,0.24451701358345704
1781515398734062336,2.5601754188537598,-0.09719313681125641,-0.015216873958706856,0.0049082254990935326,0.993798553943634,-0.04090980067849159,-0.10339802503585815,0.013876795768737793,-0.0069570392370224,0.02635638415813446,-0.7353811779796968,0.06682670516392396,-0.6662095600653084,-0.10446863264192863,0.040921221048689047,1.4671260816831992,0.2453471055647209
1781515398744096512,2.570209503173828,-0.11576388776302338,-0.06056012213230133,0.013141388073563576,0.9937583208084106,-0.040892165154218674,-0.10378943383693695,0.025421977043151855,0.0012345686554908752,0.041350483894348145,-0.7354564818568745,0.0671728450508624,-0.6660278452323787,-0.10487367356291497,0.04090357007490167,1.4667322828638714,0.2464286443294037
1781515398754130432,2.5802433490753174,-0.08323178440332413,-0.10796186327934265,0.022991621866822243,0.9936600923538208,-0.04096022620797157,-0.10469959676265717,0.009895265102386475,-0.006082624197006226,0.041512951254844666,-0.7357032135914866,0.06744819025169371,-0.6656582768164337,-0.10531223764566577,0.04097168672995003,1.4658160721078515,0.24747592763601922
1781515398764164352,2.5902774333953857,-0.02782977558672428,-0.11380697041749954,0.030003458261489868,0.9935317635536194,-0.041169844567775726,-0.10582767426967621,0.0016615986824035645,0.02444623038172722,0.011970892548561096,-0.7360410300621918,0.0674991840434447,-0.66522930027342,-0.10562837823890397,0.04118148544744489,1.4646797954449469,0.2480423149516939
1781515398774198528,2.600311517715454,-0.012240694835782051,-0.11700781434774399,0.039067260921001434,0.9933948516845703,-0.04149819537997246,-0.106979139149189,-0.003221571445465088,0.017923370003700256,0.007385022938251495,-0.7363999554293238,0.0673848427370602,-0.6648080270106058,-0.10585205052354744,0.04151011526560442,1.4635193056428877,0.24824848522896556
1781515398784232448,2.6103453636169434,0.01153121329843998,-0.12339407205581665,0.0442255362868309,0.9932460188865662,-0.04192451387643814,-0.10818847268819809,-0.012380540370941162,0.004296336323022842,0.018329501152038574,-0.73678068420573,0.06718494902801617,-0.6643733476656658,-0.10605908559935433,0.041936805338879383,1.4622999181744212,0.24831649193991895
1781515398794266368,2.6203794479370117,0.04414774477481842,-0.12593047320842743,0.01827782765030861,0.9930948615074158,-0.04229027405381203,-0.10942545533180237,-0.018897593021392822,0.001503538340330124,0.017842188477516174,-0.737189146528233,0.06690558698558786,-0.6639359266320847,-0.10613555682449016,0.042302889352743095,1.4610527217155445,0.24808256745536728
1781515398804300544,2.63041353225708,0.06606023758649826,-0.1307172328233719,-0.017661532387137413,0.9929550886154175,-0.042383696883916855,-0.11065138131380081,-0.027363717555999756,-0.02962251752614975,0.005655653774738312,-0.7376251690577726,0.06661325118888287,-0.6635035684168998,-0.1059940923323404,0.042396395437315715,1.4598177565561683,0.24750341826133276
1781515398814334464,2.6404473781585693,0.07552963495254517,-0.15708573162555695,-0.07687345892190933,0.9928145408630371,-0.04201652854681015,-0.11204318702220917,0.00643765926361084,-0.048651184886693954,0.013517208397388458,-0.7381468983653301,0.06642777282787443,-0.6629975543010674,-0.1056440085547458,0.04202890205665033,1.45841771035175,0.24675670980837014
1781515398824367616,2.6504805088043213,0.12647324800491333,-0.18674935400485992,-0.12839923799037933,0.9926642775535583,-0.04109695553779602,-0.11370399594306946,0.001338958740234375,-0.03988143056631088,0.020381279289722443,-0.7388026157562575,0.06631585794273712,-0.6623822225957425,-0.10498893994825136,0.041108533472492756,1.456749116158025,0.24565380559704197
1781515398834401280,2.6605143547058105,0.15895235538482666,-0.24712269008159637,-0.17914630472660065,0.9924798011779785,-0.039706334471702576,-0.11578971147537231,-0.0026879310607910156,-0.03500070050358772,0.042700111865997314,-0.7396475973064139,0.06618684451327388,-0.6616074707834458,-0.10400140600822524,0.03971677420203819,1.454654300111854,0.2440336753068408
1781515398844435456,2.670548439025879,0.17119331657886505,-0.3119876980781555,-0.20881152153015137,0.9922283887863159,-0.03794325143098831,-0.11850345134735107,0.008687078952789307,-0.03276597335934639,0.05350101739168167,-0.7407290629385502,0.06608489046124598,-0.6605914484710558,-0.10282092548127117,0.03795236054671276,1.4519277428728292,0.24216787911150298
1781515398854469632,2.6805825233459473,0.20668180286884308,-0.35605424642562866,-0.19632422924041748,0.9918957352638245,-0.03613727167248726,-0.12180663645267487,0.006288409233093262,0.0034834593534469604,0.05207396298646927,-0.7420162386553746,0.06589926619317071,-0.6593587561276846,-0.1015637697777981,0.0361451404716536,1.4486062468459275,0.24008146941766564
1781515398864503296,2.6906163692474365,0.23163534700870514,-0.356475293636322,-0.17379654943943024,0.991517186164856,-0.034563638269901276,-0.1252964437007904,0.008330285549163818,0.03550966829061508,0.0159672349691391,-0.7433690189908404,0.0655026764328479,-0.6580738410944237,-0.10025391718954559,0.034570525680537034,1.445094217662137,0.2376333652608472
1781515398874537472,2.700650453567505,0.2227044403553009,-0.3244364857673645,-0.15872704982757568,0.9911391735076904,-0.033206626772880554,-0.12861022353172302,0.013346970081329346,0.03679243475198746,-0.012228429317474365,-0.7446517981601964,0.06502222779269395,-0.6568614730036243,-0.09898926036451555,0.03321273080018214,1.4417573283474792,0.23513547775871604
1781515398884571392,2.710684299468994,0.20840886235237122,-0.27953705191612244,-0.14984993636608124,0.9907938838005066,-0.03196553513407707,-0.13155119121074677,-0.014887511730194092,0.01325826346874237,-0.01928192377090454,-0.7457941329462,0.06457455381009782,-0.6557854323241075,-0.09780957027601533,0.0319709821307093,1.4387948725060937,0.23280073432372014
1781515398894605312,2.7207183837890625,0.19682490825653076,-0.25412946939468384,-0.18548355996608734,0.9904930591583252,-0.03060811758041382,-0.1341150552034378,-0.030440449714660645,-0.006836960092186928,-0.022821620106697083,-0.7468085847944951,0.06422505075031705,-0.6548416701084863,-0.09661553406229685,0.030612898102294075,1.436212496283045,0.23056557982469503
1781515398904638464,2.7307515144348145,0.21692857146263123,-0.25122687220573425,-0.2485474795103073,0.9902190566062927,-0.028741199523210526,-0.13652917742729187,-0.050857484340667725,-0.053961433470249176,-0.0008151382207870483,-0.7477950308201294,0.06405276036295852,-0.6539362798678039,-0.09522171734669466,0.028745157836773463,1.4337824427067603,0.22825587393599067
1781515398914672384,2.7407853603363037,0.23476509749889374,-0.2958332300186157,-0.3306514024734497,0.9899250864982605,-0.026192698627710342,-0.13914832472801208,-0.031871497631073,-0.08547111600637436,0.014224603772163391,-0.7488890805422254,0.06401880319063497,-0.6529375387555666,-0.0934841821497673,0.02619569416746489,1.4311467766645007,0.2256047965211513
1781515398924706560,2.750819444656372,0.2942582368850708,-0.3310524821281433,-0.4288698434829712,0.9895731210708618,-0.022801442071795464,-0.1422150433063507,0.006261229515075684,-0.06125921756029129,0.04309399425983429,-0.7501809946333865,0.06412477383832395,-0.6517518610137756,-0.09130147725445117,0.022803418419707882,1.4280601058095017,0.22245983626435506
1781515398934740480,2.7608535289764404,0.34543702006340027,-0.39051660895347595,-0.5204205513000488,0.9891560077667236,-0.018539439886808395,-0.14569319784641266,0.007227599620819092,-0.06497190147638321,0.013399556279182434,-0.7516676360628654,0.06429356327636288,-0.6503996777236521,-0.08855648662172484,0.01854050147278927,1.4245573915360528,0.21853569455092414
1781515398944774400,2.7708873748779297,0.3369644284248352,-0.4775889217853546,-0.6053269505500793,0.9886014461517334,-0.013457571156322956,-0.1499529480934143,0.03930675983428955,-0.05299444496631622,0.036595419049263,-0.7534392825146258,0.0646627932283724,-0.6487235518316526,-0.08547288568804878,0.013457977148347016,1.4202618892464045,0.21435074478752736
1781515398954808576,2.780921459197998,0.35949718952178955,-0.5148636698722839,-0.6662611365318298,0.9879086017608643,-0.0076760766096413136,-0.1548471748828888,0.026190519332885742,0.002304989844560623,0.028138160705566406,-0.7554357475553788,0.06521074085366595,-0.6467796912606186,-0.08209992334190579,0.0076761519961626385,1.4153189395062047,0.2099413516259194
1781515398964842240,2.7909553050994873,0.34244388341903687,-0.578147828578949,-0.6907808184623718,0.987078845500946,-0.0014870045706629753,-0.160228431224823,0.002926647663116455,0.010352356359362602,0.0357014536857605,-0.757592080030107,0.06584754774045562,-0.6446315906083373,-0.07853956226893265,0.0014870051350691113,1.4098740844551731,0.20533684990429357
1781515398974876416,2.8009893894195557,0.3058624565601349,-0.6272032856941223,-0.6956448554992676,0.9860724806785583,0.004849405027925968,-0.1662449985742569,-0.013111114501953125,-0.0460023507475853,0.1070408970117569,-0.75992583549977,0.06663037634767568,-0.6422132756530712,-0.07506765094728224,-0.004849423817694785,1.4037738843272958,0.20102711551078314
1781515398984910592,2.811023473739624,0.3382725715637207,-0.59882652759552,-0.7076618075370789,0.9849696755409241,0.01122736930847168,-0.17236164212226868,-0.07238733768463135,-0.01704096421599388,0.005705192685127258,-0.762272567899361,0.06742452105931819,-0.6397445667586812,-0.07156321550012613,-0.011227604911400166,1.3975585910338264,0.19664756301723643
1781515398994943488,2.821056365966797,0.3437903821468353,-0.533896267414093,-0.7223584651947021,0.9838734269142151,0.01767115108668804,-0.1779908835887909,-0.04782307147979736,0.022108519449830055,-0.050585806369781494,-0.7644479121870494,0.06820560122492708,-0.6374578867928694,-0.06793241467506801,-0.01767207172791624,1.3918237285816175,0.1920257308047208
1781515399004977408,2.8310904502868652,0.3455278277397156,-0.5119736790657043,-0.7731209993362427,0.9827752709388733,0.024415932595729828,-0.18318423628807068,-0.037508606910705566,-0.08952518552541733,-0.0006383508443832397,-0.7664729172357215,0.06907555609898225,-0.6353238916099985,-0.0641193847607632,-0.02441835840540637,1.3865162164251144,0.18720934741518694
1781515399015011584,2.8411245346069336,0.2880626618862152,-0.5085633397102356,-0.7869856953620911,0.9816043376922607,0.031490061432123184,-0.1883116215467453,-0.014471828937530518,-0.040416453033685684,-0.05265514552593231,-0.7684521694612427,0.07018112534585347,-0.6331814901778781,-0.06030783774518479,-0.031495269616445394,1.3812584551972231,0.1826663894922424
1781515399025045504,2.851158380508423,0.375414103269577,-0.49457693099975586,-0.8482415676116943,0.980359673500061,0.038918424397706985,-0.1933400183916092,0.03830188512802124,0.016547266393899918,-0.011188805103302002,-0.7703906281426747,0.07136675184261286,-0.6310600428738493,-0.05628793174316145,-0.038928255616581475,1.3760816630463248,0.1778712869043795
1781515399035079424,2.861192464828491,0.376650333404541,-0.5395216941833496,-0.8748167157173157,0.9789813756942749,0.04665415734052658,-0.1985422968864441,0.030753731727600098,-0.02976267784833908,-0.004277527332305908,-0.7723831852037232,0.07247262033665065,-0.6288692792729655,-0.05191787149845259,-0.04667109906340905,1.37070512928429,0.1723919979636723
1781515399045113344,2.8712263107299805,0.35349202156066895,-0.5989240407943726,-0.8867927193641663,0.9773748517036438,0.054581474512815475,-0.20435115694999695,0.0352289080619812,-0.0014045946300029755,0.05548638105392456,-0.7745389884082837,0.07372508586589276,-0.6264096353171066,-0.04759220646583569,-0.054608610807855375,1.36468384169688,0.1671129353403431
1781515399055147520,2.881260395050049,0.39979612827301025,-0.6472296118736267,-0.9143977165222168,0.9755535125732422,0.06261289864778519,-0.21065373718738556,-0.010343551635742188,0.00762331485748291,0.046698033809661865,-0.77683145196072,0.07492693862918527,-0.6237460118091052,-0.04312517162337472,-0.06265388078354273,1.3581290145634533,0.16148921409461578
1781515399065181440,2.891294479370117,0.38173189759254456,-0.7029996514320374,-0.9516127109527588,0.9734735488891602,0.07088786363601685,-0.2175411432981491,-0.0030450820922851562,0.009815871715545654,0.0379909873008728,-0.7792854491402442,0.07618013227436835,-0.6208268786487043,-0.038532700899725346,-0.07094736863551461,1.350939603136528,0.1556632029582354
1781515399075214336,2.90132737159729,0.4722447693347931,-0.7205869555473328,-0.9979681968688965,0.9711605906486511,0.07947041094303131,-0.22479255497455597,-0.009261727333068848,-0.03676106780767441,0.055648863315582275,-0.7818326583258965,0.07743106307561565,-0.6177444089986395,-0.03367562573149498,-0.07955429719771484,1.3433341883774224,0.14934779551544328
1781515399085248512,2.9113614559173584,0.415989488363266,-0.7389662265777588,-0.9876463413238525,0.968646228313446,0.08813250809907913,-0.23228715360164642,-0.0008270144462585449,-0.055402420461177826,0.024615049362182617,-0.7844263593249061,0.07859641683600709,-0.6145559607272576,-0.028617160187929397,-0.08824700264194851,1.3354348101930613,0.14253480022768225
1781515399095282432,2.9213953018188477,0.37731826305389404,-0.7478238940238953,-0.9581025838851929,0.9659838080406189,0.09663154184818268,-0.23987044394016266,-0.032756149768829346,-0.04498054087162018,0.07943955063819885,-0.7869974447622505,0.0799433951683381,-0.6112886675315437,-0.023883111161772677,-0.09678256584101975,1.3274020659280479,0.13638760879987985
1781515399105316352,2.931429386138916,0.3204035758972168,-0.7167906165122986,-0.878298819065094,0.9632607102394104,0.10468529909849167,-0.24732539057731628,-0.0654183030128479,0.04715491086244583,-0.0774884819984436,-0.7894830973216103,0.08129675813278511,-0.6080527471844186,-0.019471613093807873,-0.10487745420264254,1.3194668901228221,0.1306983270250605
1781515399115350528,2.9414634704589844,0.3291166424751282,-0.6994236707687378,-0.8734116554260254,0.9605336785316467,0.11230237782001495,-0.25448665022850037,0.009818613529205322,0.07037584483623505,0.036102861166000366,-0.7918378325608502,0.08265595609015657,-0.6049170751176679,-0.015372231946987605,-0.11253978118970245,1.3118038766561313,0.12546513892314576
1781515399125384448,2.9514973163604736,0.4115949869155884,-0.6865768432617188,-0.8698645830154419,0.9577205777168274,0.11972668021917343,-0.26160407066345215,-0.017290949821472168,-0.032553210854530334,0.02652716636657715,-0.794153914239446,0.08373452788410389,-0.6018193154820962,-0.011024511971122843,-0.12001457519567199,1.3041482346389277,0.11943728042846054
1781515399135418368,2.961531400680542,0.3338136374950409,-0.6710714101791382,-0.8925395011901855,0.9548407196998596,0.1270768791437149,-0.26857125759124756,0.05109483003616333,-0.0164354145526886,-0.026609987020492554,-0.7963922994889505,0.08481758105658041,-0.5987656847535007,-0.006696493014273998,-0.12742140343299502,1.2966072210461,0.11339802526236847
1781515399145452544,2.9715654850006104,0.31309691071510315,-0.6913372278213501,-0.9291457533836365,0.951785147190094,0.134983092546463,-0.27547162771224976,0.02244269847869873,-0.07274249196052551,0.044148385524749756,-0.7985800613055983,0.08630160838249812,-0.5956645146669556,-0.0023959790054083395,-0.13539639432047287,1.2890682014574086,0.10783423657332507
1781515399155485440,2.981598377227783,0.2778063118457794,-0.7168745994567871,-0.9486472606658936,0.9484986066818237,0.1430690884590149,-0.28263330459594727,-0.01876533031463623,-0.1573818325996399,0.040583133697509766,-0.8008200619559502,0.08787273047511983,-0.5924202342868237,0.00196532369886859,-0.14356171169866908,1.281194082450194,0.10219469382797311
1781515399165519360,2.9916324615478516,0.1183716431260109,-0.722037136554718,-0.9769178032875061,0.9450145959854126,0.15164175629615784,-0.2897453010082245,0.0585101842880249,-0.03091423213481903,-0.0008736252784729004,-0.8030162947462874,0.08992383660984268,-0.5891019099158964,0.006128948784091588,-0.1522290332772663,1.2732918502476784,0.09738357835449407
1781515399175553280,3.001666307449341,0.1092202216386795,-0.701315701007843,-0.8786221146583557,0.941440999507904,0.16021698713302612,-0.2966807782649994,-0.0313456654548645,0.10615569353103638,0.06048998236656189,-0.8051355564561217,0.09232410420765753,-0.5857780011093068,0.009858816612244893,-0.1609104826909822,1.2655129029321603,0.09363203116888437
1781515399185587456,3.011700391769409,0.1286993771791458,-0.6135624647140503,-0.7788992524147034,0.9381117224693298,0.16760094463825226,-0.30307838320732117,-0.09074538946151733,0.11577001214027405,-0.033622026443481445,-0.8070705837430444,0.09424341510341147,-0.5827340612869958,0.01328116358617344,-0.16839569035199117,1.2583084936721076,0.08978898835108727
1781515399195621376,3.0217344760894775,0.02404540777206421,-0.6200634837150574,-0.7399473190307617,0.934942901134491,0.1745072305202484,-0.30891621112823486,-0.009008944034576416,0.05748741328716278,-0.009748369455337524,-0.8088225803120216,0.09622140328589213,-0.5798994128166604,0.01625724885244563,-0.17540529243623176,1.2516773925796956,0.08673696048348925
1781515399205655296,3.031768321990967,0.06607727706432343,-0.5984506011009216,-0.7056015729904175,0.9317473769187927,0.18112120032310486,-0.3147091567516327,-0.047149658203125,-0.07595764100551605,0.07662633061408997,-0.810550875408296,0.09818561352964245,-0.5770658562702395,0.019020644405481128,-0.18212638634359246,1.245064980457094,0.0839705515031283
1781515399215689472,3.041802406311035,0.0852685496211052,-0.48092105984687805,-0.7541638016700745,0.9286709427833557,0.1876116245985031,-0.3199562430381775,-0.006155192852020264,-0.1228838711977005,-0.04326394200325012,-0.8120935105449932,0.0999774798136652,-0.5744792207316961,0.021958584837828043,-0.18873002942115694,1.2390016432019577,0.08072461302186901
1781515399225723392,3.0518364906311035,-0.06554972380399704,-0.37749984860420227,-0.8429123163223267,0.9257789254188538,0.19494082033634186,-0.3239313066005707,0.07808154821395874,-0.10909487307071686,-0.10574090480804443,-0.8132266170113865,0.102216603999644,-0.5723513894176239,0.02506352543883831,-0.19619710545928287,1.2342093934339233,0.07781281085438256
1781515399235757312,3.0618703365325928,-0.20407724380493164,-0.3945139944553375,-0.9046768546104431,0.9227909445762634,0.20354090631008148,-0.3271511495113373,0.006957530975341797,-0.10068140923976898,0.019595056772232056,-0.8141197360902251,0.10538302873327587,-0.5703672833233032,0.028010107832041022,-0.2049731839680578,1.2300972806348913,0.07627602236070051
1781515399245790464,3.0719034671783447,-0.16330531239509583,-0.3797995150089264,-0.8872087001800537,0.9196230173110962,0.21248957514762878,-0.33036595582962036,-0.015417754650115967,0.013920336961746216,-0.02684229612350464,-0.814999734933048,0.10877386645835233,-0.5683179261457848,0.030958230432739143,-0.21412201882175796,1.225913149340222,0.07495465472095654
1781515399255824384,3.081937313079834,-0.1351354569196701,-0.4267222583293915,-0.8026791214942932,0.9164567589759827,0.22086502611637115,-0.3336550295352936,0.026566922664642334,0.13141463696956635,0.02866232395172119,-0.8158972228932004,0.1119253294507114,-0.5662554225048049,0.03375322411430951,-0.2227013080610245,1.221641789135709,0.0735596084803163
1781515399265858304,3.0919713973999023,-0.0014178752899169922,-0.4226822257041931,-0.683060348033905,0.9133195281028748,0.2279077172279358,-0.3374987840652466,-0.04509449005126953,0.09530393779277802,0.04089847207069397,-0.8169611215387595,0.11436361323136823,-0.5640669955992769,0.03638438487876021,-0.2299283017657748,1.2168300511978993,0.07150948383816806
1781515399275892224,3.1020052433013916,-0.10901544243097305,-0.4004099667072296,-0.5351563692092896,0.910521388053894,0.23359821736812592,-0.3411487638950348,0.009476661682128906,0.0995926707983017,-0.08328965306282043,-0.8179776450824789,0.11629521648741048,-0.5620507475477251,0.03855919314955124,-0.23577665290700964,1.2123114311389414,0.06962757172225162
1781515399285926400,3.11203932762146,-0.25081679224967957,-0.4786669611930847,-0.4105731248855591,0.9079152345657349,0.23851001262664795,-0.34467774629592896,0.02311497926712036,0.04153454303741455,0.08704844117164612,-0.8190030541664612,0.1184924409555014,-0.5600184491788689,0.03965821718995348,-0.24083129093121763,1.2079669975131653,0.06982576292758094
1781515399295960320,3.1220734119415283,-0.20273713767528534,-0.4610196352005005,-0.3441975712776184,0.9053394198417664,0.24274778366088867,-0.3484739661216736,-0.020756900310516357,-0.009150981903076172,0.047784268856048584,-0.8201307866636179,0.12059358663032768,-0.5578711319329719,0.04028058904235866,-0.24519735523912647,1.2033660822013272,0.07065087015444918
1781515399305994240,3.1321072578430176,-0.306975394487381,-0.46557098627090454,-0.2646569311618805,0.9029964804649353,0.24640856683254242,-0.3519664406776428,0.0485721230506897,0.030202746391296387,0.04296070337295532,-0.8211805495206833,0.12257122093203537,-0.5558714624369311,0.04056905823379155,-0.24897280672114214,1.1991346233504443,0.07191616837613754
1781515399316028416,3.142141342163086,-0.36866459250450134,-0.4819096028804779,-0.24299240112304688,0.9006858468055725,0.2498360276222229,-0.35545316338539124,0.00696796178817749,-0.0622597336769104,0.12570154666900635,-0.8222529279757409,0.12475670294399384,-0.5538133121472085,0.04033208637924914,-0.25251090231663875,1.1949129168838317,0.07427914198088922
1781515399326061312,3.152174234390259,-0.4400429129600525,-0.46897438168525696,-0.2870381474494934,0.8983091115951538,0.2536969482898712,-0.3587181270122528,0.020376861095428467,-0.09125187993049622,-0.0006263256072998047,-0.8232600927695309,0.12725569232607012,-0.5517670935911944,0.040024031241158435,-0.25650034495101626,1.190871164830918,0.07712791237201154
1781515399336095232,3.162208318710327,-0.4565720856189728,-0.5111953616142273,-0.3137397766113281,0.8957948684692383,0.2580484449863434,-0.361887663602829,0.02182292938232422,0.034218400716781616,-0.020512878894805908,-0.8242399676166758,0.13009350434563913,-0.5496652181347166,0.03965315373687321,-0.261001694639763,1.1868593568132733,0.08045707992521264
1781515399346129408,3.1722424030303955,-0.22995518147945404,-0.4914482831954956,-0.3056328594684601,0.8931152820587158,0.262197345495224,-0.36551016569137573,-0.07348942756652832,0.164194256067276,-0.07437020540237427,-0.8253385924556167,0.13254973881966572,-0.5474262297886476,0.03964051268210038,-0.2652985061719923,1.1823387059531911,0.08267190011626235
1781515399356163328,3.1822762489318848,-0.06461388617753983,-0.40634068846702576,-0.22631940245628357,0.8907762765884399,0.26500508189201355,-0.36917486786842346,-0.06265121698379517,0.14344218373298645,-0.07824337482452393,-0.8264251678868211,0.13385892085305423,-0.5454304352993035,0.04011172584094223,-0.26820918492009443,1.177902500285577,0.08277327923508213
1781515399366197248,3.192310333251953,-0.17657583951950073,-0.47521084547042847,-0.17128466069698334,0.8886333107948303,0.26723775267601013,-0.3727126717567444,0.0032581090927124023,-0.03058922290802002,0.15057525038719177,-0.8274881484225408,0.13504148934348179,-0.5435139955204248,0.040244854556065524,-0.27052538160333084,1.1736594815406116,0.08331246133320325
1781515399376231424,3.2023444175720215,0.01856808364391327,-0.3872891068458557,-0.17370466887950897,0.8865213394165039,0.26911473274230957,-0.3763735890388489,-0.004426062107086182,-0.07989051938056946,0.031967490911483765,-0.8285850097873428,0.13597563120322403,-0.541593792763341,0.04041775149594895,-0.27247374967696525,1.169305988300482,0.08348116185107714
1781515399386265344,3.2123782634735107,0.1280924528837204,-0.3100379705429077,-0.1300477385520935,0.8848249912261963,0.27013084292411804,-0.3796237111091614,0.04458785057067871,0.021220475435256958,-0.18243378400802612,-0.8295330148247935,0.13608104531200826,-0.5400648908601304,0.04107228251470966,-0.27352891576328353,1.1655102639198291,0.08197964980864966
1781515399396299264,3.222412347793579,0.03285141661763191,-0.3754798471927643,-0.18176952004432678,0.8831414580345154,0.2710842788219452,-0.38285064697265625,-0.01026242971420288,-0.10046049952507019,0.02085113525390625,-0.8304760154343287,0.13619913877922166,-0.5385392052932388,0.04165345987623695,-0.27451931112550565,1.1617397842851647,0.08061536635234809
1781515399406333440,3.2324464321136475,0.054102640599012375,-0.3524267077445984,-0.24033322930335999,0.8811100125312805,0.2728961110115051,-0.38622918725013733,-0.011999905109405518,-0.09990724921226501,0.013334870338439941,-0.8314539435138799,0.1367220702537788,-0.5368356175071952,0.04241513715740864,-0.2764021370900049,1.1576777900106097,0.0793541914826141
1781515399416366336,3.2424793243408203,-0.14116191864013672,-0.34387320280075073,-0.17606022953987122,0.8792015314102173,0.274846613407135,-0.3891836702823639,0.03272467851638794,0.036219000816345215,0.02809968590736389,-0.8323107967520936,0.13744532067956539,-0.5352727839788516,0.04301748251538598,-0.2784301793360469,1.1540665948363924,0.07864014106269171
1781515399426400512,3.2525134086608887,-0.3319326639175415,-0.3479238450527191,-0.10114391148090363,0.8774363398551941,0.27704140543937683,-0.3916037976741791,-0.03956097364425659,0.006924659013748169,0.1406272053718567,-0.8330559788174625,0.13894897726100394,-0.5337520865220445,0.04265731049804021,-0.28071362308364467,1.1510198369650781,0.08049081560424297
1781515399436434176,3.262547254562378,-0.38126426935195923,-0.2905946373939514,-0.004159837961196899,0.8760283589363098,0.27897343039512634,-0.39338046312332153,-0.01257932186126709,0.01643669605255127,-0.027624815702438354,-0.8336368102310587,0.14068053557244992,-0.5324647965643812,0.0417121345651535,-0.2827249344236624,1.14873276935345,0.0836855049668565
1781515399446468352,3.2725813388824463,-0.3926679193973541,-0.3195967376232147,0.06887921690940857,0.8749551177024841,0.28018566966056824,-0.3949044942855835,0.07188326120376587,0.08530813455581665,-0.075386643409729,-0.8341639941656308,0.14228620315171245,-0.5313213680646215,0.040282214565694176,-0.2839875081796031,1.146826483343257,0.0876122431103441
1781515399456502528,3.2826154232025146,-0.24850596487522125,-0.3071805536746979,0.04838166758418083,0.8738515377044678,0.2809697389602661,-0.39678648114204407,-0.0040547847747802734,0.013158679008483887,-0.004656970500946045,-0.8347933104755754,0.14358415197016633,-0.530085228220216,0.03890276245297787,-0.2848044025401192,1.144566072147361,0.09106112178836188
1781515399466536192,3.292649269104004,-0.13582415878772736,-0.24125772714614868,0.010173029266297817,0.8728554844856262,0.28139302134513855,-0.39867421984672546,-0.0022043585777282715,-0.04645347595214844,-0.02045416831970215,-0.8353949639847457,0.14428736481215246,-0.5290028727286349,0.03810862629313735,-0.28524548090344515,1.142345675110744,0.09286585096250208
1781515399476570368,3.3026833534240723,-0.19570958614349365,-0.2836199700832367,-0.04391364008188248,0.8717883825302124,0.2821962833404541,-0.4004375636577606,0.0358501672744751,-0.035095423460006714,-0.06521487236022949,-0.8359475232649035,0.1450688995509829,-0.5279547700488219,0.037556528846124405,-0.2860826579871116,1.1402116747045432,0.09435836590543911
1781515399486604544,3.3127174377441406,-0.21339137852191925,-0.2920464873313904,0.024443045258522034,0.870537519454956,0.2832117974758148,-0.4024370610713959,-0.06131809949874878,0.013205468654632568,-0.023527324199676514,-0.8365752903968929,0.14604530552609432,-0.5267373576845426,0.03688365689467966,-0.28714136158840814,1.1377727191449354,0.096225184531315
1781515399496638208,3.32275128364563,-0.35719966888427734,-0.27414923906326294,0.15295228362083435,0.8696843981742859,0.283487468957901,-0.4040840268135071,-0.007990062236785889,0.09943181276321411,0.04832535982131958,-0.8371223680335126,0.14695975666161618,-0.5257003168502073,0.03561048217262978,-0.2874288381497448,1.1358404927210688,0.09911454526085244
1781515399506671360,3.332784414291382,-0.5872952342033386,-0.3334410786628723,0.22151055932044983,0.8689546585083008,0.28381967544555664,-0.4054184854030609,0.03677654266357422,0.03647753596305847,0.1693497896194458,-0.837616143433679,0.14856936194952253,-0.5246121492501805,0.033292687680779906,-0.2877752736886946,1.1342577190145162,0.10459349057716935
1781515399516705280,3.342818260192871,-0.5468953251838684,-0.25032392144203186,0.20874923467636108,0.8683796525001526,0.2842395305633545,-0.40635544061660767,-0.022188246250152588,-0.05908086895942688,0.03355264663696289,-0.8379974710145567,0.15045724161986715,-0.5236266852512452,0.030626742256968875,-0.2882131537072782,1.1331185261278318,0.11103502555848092
1781515399526739456,3.3528523445129395,-0.5313565731048584,-0.18428872525691986,0.1961415559053421,0.8680733442306519,0.2846832871437073,-0.40669918060302734,0.034697651863098145,-0.019409239292144775,-0.06577396392822266,-0.838184743926187,0.15221798270851478,-0.5229532391715918,0.02821448924680224,-0.2886760405276672,1.1326583015768361,0.11700509372340596
1781515399536773376,3.362886428833008,-0.5291928052902222,-0.1676705926656723,0.1117478534579277,0.8678210973739624,0.28544697165489197,-0.4067019522190094,0.008750498294830322,-0.04325947165489197,0.01967799663543701,-0.8382571492043657,0.15406007997751625,-0.5224122104693939,0.025997698475802952,-0.28947275610754303,1.1325440442218166,0.12278417275411595
1781515399546807296,3.372920274734497,-0.4421579837799072,-0.09511703252792358,0.03372948616743088,0.8674428462982178,0.2869034707546234,-0.4064842164516449,-0.06972861289978027,-0.03534707427024841,-0.047724127769470215,-0.8382425101165141,0.15598716014068406,-0.5219443388320464,0.024325719483796148,-0.29099285420501547,1.1325822805181012,0.12775505312202806
