time,seconds_elapsed,rotationRateX,rotationRateY,rotationRateZ,gravityX,gravityY,gravityZ,accelerationX,accelerationY,accelerationZ,quaternionW,quaternionX,quaternionY,quaternionZ,pitch,roll,yaw
1778795424357229568,0.03507256507873535,-0.3093258738517761,0.2740231156349182,0.5234432220458984,0.09626149386167526,-0.08522001653909683,-0.9917011857032776,0.05335092544555664,0.019912399351596832,-0.0003489255905151367,0.8148875096895005,0.06270724809167866,0.014737715964767063,-0.5760285884135914,0.0853235046292809,0.09676389268036488,-1.2347923238482614
1778795424367264512,0.04510760307312012,-0.29528969526290894,0.2698853313922882,0.4903135299682617,0.09854353964328766,-0.08269432932138443,-0.9916908740997314,0.059857942163944244,0.015479370951652527,-0.007424056529998779,0.8166301448369755,0.062283969614572735,0.016591034681626367,-0.5735509429126853,0.0827888671134711,0.09904406588287801,-1.2286932549704033
1778795424377299456,0.05514264106750488,-0.2887209951877594,0.28581929206848145,0.45908182859420776,0.10089923441410065,-0.08028726279735565,-0.9916518330574036,0.06610820442438126,0.007380776107311249,-0.012132346630096436,0.8182026028382419,0.06192538679253454,0.018421311827980298,-0.5712883678354691,0.08037377002365874,0.10139969227914443,-1.223146131510143
1778795424387333632,0.06517672538757324,-0.24733760952949524,0.2933862805366516,0.43962743878364563,0.10340946912765503,-0.0780482366681099,-0.9915719628334045,0.06239253282546997,-0.003372661769390106,-0.011815488338470459,0.8197070761661722,0.06167301449072664,0.020259773751567223,-0.5690925661854946,0.07812769633856544,0.10391278013475433,-1.2177959399234282
1778795424397368320,0.0752115249633789,-0.1461838185787201,0.2950669825077057,0.41728752851486206,0.10601714998483658,-0.0765213817358017,-0.9914155602455139,0.062226250767707825,-0.007478244602680206,-0.004769682884216309,0.8211085145412993,0.06173701353286147,0.02192611499423778,-0.5669995121006348,0.07659625817762665,0.10653029786654139,-1.2127686082319062
1778795424407403520,0.08524656295776367,-0.05480996146798134,0.2747828960418701,0.42373743653297424,0.10853557288646698,-0.07599702477455139,-0.9911834001541138,0.07319660484790802,0.02605500817298889,-0.01075446605682373,0.8224331801238169,0.06218524675601181,0.02326603730959038,-0.5649736677343015,0.07607036848239117,0.10906647120837054,-1.207987208860647
1778795424417437440,0.09528064727783203,0.0073769791051745415,0.25506407022476196,0.438996821641922,0.11083762347698212,-0.07622598111629486,-0.9909110069274902,0.09446938335895538,0.04857706278562546,-0.020884037017822266,0.8237747056034517,0.06287723364605462,0.02430947675477101,-0.5628949738591658,0.07629999563881674,0.11139125168350164,-1.2031316537165553
1778795424427472640,0.1053156852722168,0.059054821729660034,0.24023424088954926,0.44214946031570435,0.11295633018016815,-0.07706230878829956,-0.9906070232391357,0.09940023720264435,0.04977959394454956,-0.020226716995239258,0.8251106950815811,0.0637648537339954,0.025110431226329645,-0.5607991836093957,0.07713878515546213,0.1135369996135083,-1.1982814439213454
1778795424437506560,0.11534953117370605,0.10188750922679901,0.22406034171581268,0.4314454197883606,0.11491424590349197,-0.07837754487991333,-0.9902786016464233,0.08486907929182053,0.04360276460647583,-0.01597750186920166,0.8263924434363809,0.06480515309817181,0.025709906723181932,-0.558761878444137,0.07845801478902877,0.11552563879771738,-1.1936123051553098
1778795424447541504,0.12538456916809082,0.14872024953365326,0.208535835146904,0.4253193438053131,0.11672814190387726,-0.08011037856340408,-0.9899277091026306,0.08407752215862274,0.045335590839385986,-0.007844507694244385,0.8276838490706343,0.06597596620464925,0.026140335458871802,-0.5566896368506615,0.08019631103363162,0.11737383103203378,-1.1888950573828314
1778795424457576448,0.13541960716247559,0.16878877580165863,0.19162103533744812,0.41157424449920654,0.11837177723646164,-0.08222175389528275,-0.9895593523979187,0.09581584483385086,0.053413160145282745,0.002727687358856201,0.8289014702898081,0.06725892409811099,0.026392478980003502,-0.5547089198702709,0.08231468033451161,0.11905499124671562,-1.184430731738045
1778795424467610624,0.14545369148254395,0.10975369065999985,0.16292241215705872,0.4107649028301239,0.11979325115680695,-0.08416130393743515,-0.9892251491546631,0.09961286932229996,0.06313470005989075,0.009565174579620361,0.8301403825267348,0.06840636807707201,0.026607898772677795,-0.5527019706069515,0.0842609731417252,0.12051125895837224,-1.1798818428548044
1778795424477645568,0.1554887294769287,-0.011934401467442513,0.13291950523853302,0.4099039137363434,0.12090893089771271,-0.08514821529388428,-0.9890049695968628,0.10286121070384979,0.05830800533294678,0.023245692253112793,0.8312381590412234,0.06907634405176091,0.026943997647009374,-0.5509496356444227,0.08525144242590071,0.12164945539913849,-1.1758449753913274
1778795424487680512,0.16552352905273438,-0.09540852159261703,0.11209625005722046,0.40438157320022583,0.12175769358873367,-0.08508121222257614,-0.9889066219329834,0.10095959156751633,0.030058011412620544,0.0413663387298584,0.8323665996050167,0.06922794319993954,0.027462594990385638,-0.5491987384868005,0.08518419394828744,0.12250698942029056,-1.1717004276931728
1778795424497714432,0.17555761337280273,-0.14292064309120178,0.0984712541103363,0.3728497624397278,0.12247829139232635,-0.0843609869480133,-0.9888793230056763,0.09212131798267365,0.014887720346450806,0.05145561695098877,0.8334651060748579,0.06906953206965309,0.028102378754608526,-0.5475177123201821,0.08446137436591934,0.12322809028529053,-1.1676591406372419
1778795424507749632,0.1855926513671875,-0.16342459619045258,0.08115684241056442,0.34996920824050903,0.12307577580213547,-0.08326918631792068,-0.9888976812362671,0.08775491267442703,0.020357199013233185,0.05025327205657959,0.83449655632901,0.06872218766021233,0.028782405944620015,-0.54595276677797,0.08336571913401845,0.12382084765322053,-1.1638572474243742
1778795424517784576,0.19562768936157227,-0.16434551775455475,0.07273885607719421,0.32691022753715515,0.12356044352054596,-0.08204683661460876,-0.9889394044876099,0.09120701253414154,0.018783889710903168,0.04930317401885986,0.8356039232192196,0.0682824092881485,0.029458668746195793,-0.5442754876938642,0.08213916776896533,0.12429826002904207,-1.1597698718325158
1778795424527818496,0.20566153526306152,-0.16353830695152283,0.06797219812870026,0.31556302309036255,0.12398210167884827,-0.08081459254026413,-0.9889881014823914,0.09983381628990173,0.01292824000120163,0.05235785245895386,0.836684419080278,0.06782011025240121,0.030106274371925076,-0.5426355126736667,0.0809028180387459,0.1247119838677674,-1.1557710105441064
1778795424537853440,0.2156965732574463,-0.14589540660381317,0.06296465545892715,0.3047865331172943,0.12437261641025543,-0.07964184135198593,-0.9890341758728027,0.09985528141260147,0.006994754076004028,0.05116802453994751,0.837567474861983,0.06738316088067046,0.030698770841693934,-0.5412927425521994,0.07972627766708872,0.1250949469471462,-1.1524896987954862
1778795424547887616,0.22573065757751465,-0.112139031291008,0.0793142020702362,0.3009569048881531,0.12482745200395584,-0.07874967157840729,-0.9890483021736145,0.09843914210796356,-0.0022439733147621155,0.04922902584075928,0.8385637552424767,0.06707368752288465,0.03125628903447481,-0.5397546348122684,0.07883129530886394,0.12554586278169386,-1.1487762285375311
1778795424557922560,0.23576569557189941,-0.09169180691242218,0.0829283744096756,0.3092646598815918,0.1254047155380249,-0.07811903208494186,-0.9890252947807312,0.1070171594619751,-0.001684434711933136,0.0417291522026062,0.8395402471111763,0.06690707618126286,0.03179285402405145,-0.5382237465490551,0.07819870215761208,0.12612323145796664,-1.1451173982160778
1778795424567957760,0.24580073356628418,-0.07526969164609909,0.09072211384773254,0.3325982093811035,0.12602423131465912,-0.07768275588750839,-0.9889809489250183,0.11613275110721588,0.0016329512000083923,0.03712242841720581,0.8405654404441991,0.06682925708157855,0.0323014571419163,-0.5366006965870154,0.0777611028285743,0.1267452867600321,-1.1412641674115438
1778795424577991424,0.25583457946777344,-0.06744958460330963,0.09172452986240387,0.3528592586517334,0.12668919563293457,-0.07738956809043884,-0.9889189600944519,0.11633753776550293,-0.0018493235111236572,0.035504043102264404,0.8416004232284646,0.06682177083048786,0.03279286555333027,-0.5349470098294721,0.07746702899023827,0.12741475777534192,-1.137359095832177
1778795424588026624,0.2658696174621582,-0.04512777552008629,0.1012079119682312,0.38143712282180786,0.12735508382320404,-0.07728458940982819,-0.9888416528701782,0.10601283609867096,-0.005707964301109314,0.03229868412017822,0.8425870488050078,0.06689547493817535,0.033229190575516376,-0.533355317305263,0.07736173379749015,0.12808709024508694,-1.1336228132141741
1778795424598061568,0.27590465545654297,-0.0311171505600214,0.10444445163011551,0.4032875597476959,0.12807895243167877,-0.07742676138877869,-0.9887369871139526,0.10257288813591003,-0.0047723278403282166,0.021741807460784912,0.8436297499387403,0.06708447220763034,0.03363283709570619,-0.5316553148390676,0.0775043302690867,0.1288205968558915,-1.1296610557857167
1778795424608095744,0.28593873977661133,-0.014454816468060017,0.10419917106628418,0.4219001233577728,0.12878218293190002,-0.07772837579250336,-0.9886220097541809,0.09956559538841248,-0.00421132892370224,0.011769592761993408,0.8447209987117787,0.0673310569314631,0.033993097563519425,-0.5298655325364329,0.07780685597442116,0.12953492970161057,-1.1255045803527457
1778795424618130432,0.295973539352417,0.01961340568959713,0.1036529615521431,0.4285135567188263,0.1294943392276764,-0.07831764966249466,-0.9884824752807617,0.08769924938678741,-0.0048274993896484375,0.0036191940307617188,0.8458333800071322,0.06769963132645059,0.034286041217628974,-0.5280219960923636,0.07839793215607516,0.13026138551184327,-1.1212535452202157
1778795424628165376,0.30600857734680176,0.0359865203499794,0.10869139432907104,0.4067792296409607,0.1302313208580017,-0.07914657145738602,-0.9883195757865906,0.0794549286365509,-0.004730984568595886,-0.0028302669525146484,0.846912856899276,0.06817790109841751,0.03452500741472546,-0.5262114395072458,0.07922943949312841,0.1310156453862717,-1.1171104978007902
1778795424638199552,0.3160426616668701,0.01866105943918228,0.09290790557861328,0.3788916766643524,0.13092361390590668,-0.07996870577335358,-0.9881619215011597,0.07377302646636963,0.0006840527057647705,-0.006390631198883057,0.847921330408546,0.06864525172195123,0.03473991548089736,-0.524509592352463,0.08005418797536591,0.1317248690096048,-1.1132257866159772
1778795424648234496,0.3260776996612549,0.01714651845395565,0.0762583538889885,0.3415701389312744,0.13146163523197174,-0.0806124210357666,-0.988038182258606,0.07057997584342957,0.0005800724029541016,-0.007948756217956543,0.8488467570996509,0.06900051433815757,0.03492609943536509,-0.5229513841420858,0.08069998601045932,0.13227628015768597,-1.1096558628186675
1778795424658268416,0.33611154556274414,0.03207433596253395,0.05674856901168823,0.29278555512428284,0.1318502575159073,-0.08127541840076447,-0.9879320859909058,0.06976412236690521,-0.0016713589429855347,-0.007703900337219238,0.8496579130818932,0.06933183882459783,0.035029287459052476,-0.5215817029003791,0.08136516729033415,0.13267682265161676,-1.1065236091093027
1778795424668303616,0.3461465835571289,0.039917610585689545,0.038110703229904175,0.24000515043735504,0.13209940493106842,-0.08200329542160034,-0.987838625907898,0.06602069735527039,0.012606330215930939,-0.008392393589019775,0.850330865437816,0.06966340723377672,0.03503829721432391,-0.5204390098781099,0.08209548228657053,0.13293701059798355,-1.1039230511923572
1778795424678338560,0.35618162155151367,0.02124246023595333,0.012455141171813011,0.19603316485881805,0.13216395676136017,-0.08259951323270798,-0.9877803325653076,0.06858065724372864,0.012790553271770477,0.0007961392402648926,0.8508829816901348,0.0698984277111381,0.03498624548650532,-0.5195077921563996,0.08269372541523831,0.1330089725629402,-1.101794328137166
1778795424688372736,0.36621570587158203,-0.0016324948519468307,0.0073372116312384605,0.1677200347185135,0.13211040198802948,-0.08292955905199051,-0.9877598285675049,0.06225605309009552,0.004239983856678009,0.015881776809692383,0.8513471014842835,0.06999456558018385,0.034940430154487855,-0.5187369593938066,0.08302490683763869,0.13295843556035394,-1.100009246691055
1778795424698407680,0.3762507438659668,-0.0371854305267334,0.0018987706862390041,0.16257959604263306,0.13203436136245728,-0.08296141773462296,-0.9877673387527466,0.055114686489105225,0.0029595941305160522,0.023152470588684082,0.8518577727342034,0.06995392701580716,0.03496821120145895,-0.5179014691864341,0.08305687796248569,0.132881813598939,-1.0980437089299147
1778795424708442368,0.38628554344177246,-0.04658132791519165,-0.017449628561735153,0.17368391156196594,0.13181941211223602,-0.08273046463727951,-0.9878154397010803,0.05764897167682648,-0.0036190226674079895,0.03229480981826782,0.8523906496526192,0.06976278513027054,0.035006302066841154,-0.517047282685871,0.0828251290392415,0.1326616214900186,-1.0959995894086836
1778795424718476544,0.3963196277618408,-0.04072397202253342,-0.018591325730085373,0.18212880194187164,0.13150325417518616,-0.08256065100431442,-0.9878717660903931,0.06663212180137634,-0.004811175167560577,0.034136414527893066,0.8528694287121573,0.06957518199286394,0.03497727157364509,-0.5162844498702593,0.08265472996095012,0.1323397018535989,-1.0941683440699752
1778795424728511488,0.4063546657562256,-0.07681326568126678,-0.029256485402584076,0.18484655022621155,0.13113150000572205,-0.08222521096467972,-0.9879491329193115,0.07202400267124176,-0.0005537122488021851,0.0381048321723938,0.853467498954078,0.06929397335105947,0.03498233977939053,-0.5153328390020417,0.08231814825263882,0.13195969316998538,-1.0918760088977477
1778795424738545664,0.41638875007629395,-0.12003690004348755,-0.03962763398885727,0.2194511443376541,0.1306251585483551,-0.0815017819404602,-0.9880761504173279,0.0829215794801712,-0.004130534827709198,0.054680824279785156,0.854108179431383,0.06880824039444952,0.03503338742093521,-0.5143319254551424,0.08159228324897644,0.13143930701100986,-1.0894234376744643
1778795424748580352,0.4264235496520996,-0.14664562046527863,-0.03318331763148308,0.2475685328245163,0.13005287945270538,-0.08046497404575348,-0.9882366061210632,0.08662192523479462,-0.014536239206790924,0.06909292936325073,0.8548684409362238,0.06816241832763444,0.035150677639094116,-0.5131454963432622,0.08055206061314148,0.13084903088619582,-1.086505522399254
1778795424758615552,0.4364585876464844,-0.1633036881685257,-0.014612295664846897,0.26757338643074036,0.12962666153907776,-0.07926445454359055,-0.9883896112442017,0.07456645369529724,-0.017522044479846954,0.08294832706451416,0.8556705693685982,0.06748061552450857,0.03537722713396496,-0.511881519697809,0.07934769255431576,0.13040509210959578,-1.0834069280840342
1778795424768649472,0.44649267196655273,-0.19823583960533142,-0.0094548175111413,0.28196218609809875,0.12931907176971436,-0.07783819735050201,-0.9885432720184326,0.07530128955841064,-0.015316709876060486,0.09466814994812012,0.8564364108032967,0.06673397483919738,0.03570632827174342,-0.5106744322717085,0.07791700982627928,0.13007914157616673,-1.0804343625477233
1778795424778684672,0.4565277099609375,-0.22559422254562378,-0.010021538473665714,0.30400756001472473,0.12900061905384064,-0.07610511034727097,-0.9887198209762573,0.08880333602428436,-0.007513061165809631,0.10238254070281982,0.8573446663275375,0.06584130505631318,0.03612505305401557,-0.5092349126160227,0.07617876573907695,0.12973950472169654,-1.0768953132473573
1778795424788719616,0.46656274795532227,-0.2422909140586853,0.004488561302423477,0.3035431206226349,0.12873606383800507,-0.07416035234928131,-0.9889020323753357,0.09021228551864624,-0.005154825747013092,0.10991954803466797,0.8582968098939159,0.06486654969818817,0.03662382396822208,-0.5077180423346495,0.07422849905469873,0.1294527927031316,-1.0731668216462833
1778795424798753536,0.4765965938568115,-0.2610113322734833,0.029130257666110992,0.29257968068122864,0.1286902129650116,-0.07205981016159058,-0.9890633225440979,0.07536555826663971,-0.011894047260284424,0.1122780442237854,0.859211624308127,0.06388122115914253,0.0372496865889145,-0.5062480903104568,0.07212231952066958,0.12938634978127717,-1.0695564295378075
1778795424808788480,0.4866316318511963,-0.29914167523384094,0.04614732414484024,0.2694173753261566,0.12887725234031677,-0.06963927298784256,-0.9892123341560364,0.06847992539405823,-0.011476442217826843,0.11370879411697388,0.860084710186789,0.06281767117982899,0.03804967694160037,-0.504836929240875,0.06969568351645715,0.12955299442849597,-1.0660776280095956
1778795424818823680,0.49666666984558105,-0.35565048456192017,0.0603313222527504,0.24826493859291077,0.12924252450466156,-0.06674239039421082,-0.9893643260002136,0.06617677211761475,-0.013152621686458588,0.1275937557220459,0.8609516800959298,0.06159096744562213,0.039043254683616954,-0.5034326859648723,0.06679204343276793,0.12989633069989243,-1.0625921494279729
1778795424828856832,0.5067000389099121,-0.4309963881969452,0.07606448233127594,0.2556467056274414,0.12975884974002838,-0.06316719949245453,-0.9895314574241638,0.06335638463497162,-0.011921308934688568,0.13087362051010132,0.8616910634708153,0.06011560400667239,0.04025387062005957,-0.5022493172742022,0.06320928221623004,0.13038763350548274,-1.0595776506506533
1778795424838892032,0.5167350769042969,-0.49728724360466003,0.08978322148323059,0.2804250121116638,0.13042393326759338,-0.058925483375787735,-0.9897056818008423,0.054298967123031616,-0.004627373069524765,0.13220757246017456,0.8625920278222612,0.05837209417339444,0.04171144509875461,-0.5007872920373907,0.05895963657856645,0.131025526271152,-1.0558762706938192
1778795424848925952,0.5267691612243652,-0.5686191916465759,0.09167952090501785,0.31855908036231995,0.1311466246843338,-0.05399192497134209,-0.9898916482925415,0.03962975740432739,-0.006387107074260712,0.1265798807144165,0.8636133364665505,0.05632752073847193,0.04337505484933271,-0.4991171754429418,0.05401819321961087,0.13171874377978293,-1.0516464972000896
1778795424858960896,0.5368039608001709,-0.5863419771194458,0.09726843237876892,0.3017233610153198,0.13192756474018097,-0.048610102385282516,-0.9900667667388916,0.02786247432231903,-0.011463753879070282,0.1292421817779541,0.8646262424983825,0.05409703861802629,0.04516783540484765,-0.497448398476702,0.04862926788707521,0.13247081189350776,-1.0473960717172046
1778795424868995840,0.5468389987945557,-0.30711784958839417,0.140895277261734,0.22694048285484314,0.1329181045293808,-0.04433489590883255,-0.9901349544525146,0.013856187462806702,-0.012977112084627151,0.12805914878845215,0.8654039540111054,0.052414562321887154,0.04674659794366051,-0.4961285286613037,0.04434943409608741,0.1334446236917601,-1.0440623693314737
1778795424879030016,0.556873083114624,-0.26126059889793396,0.19585146009922028,0.11373509466648102,0.1345798671245575,-0.041931845247745514,-0.9900151491165161,0.014895230531692505,0.016175009310245514,0.11992847919464111,0.8659208197002802,0.051732740397603304,0.04812642691749548,-0.4951652405860444,0.04194414413336067,0.13510901233354192,-1.0417455141453116
1778795424889064960,0.5669081211090088,-0.33049294352531433,0.17921815812587738,0.2868823707103729,0.13643822073936462,-0.03931432217359543,-0.9898681640625,0.019918590784072876,0.03911596164107323,0.137939453125,0.8663576593174183,0.05101105006662243,0.04963654750844585,-0.4943263231692053,0.039324458346211066,0.13697167021857573,-1.039710075350548
1778795424899100160,0.5769431591033936,-0.4266146719455719,0.12012448161840439,0.14597292244434357,0.1377023607492447,-0.03585898503661156,-0.9898243546485901,0.04343472421169281,-0.07058632373809814,0.1572285294532776,0.86696904236202,0.04975701091687808,0.051108483695725765,-0.4932311204324637,0.03586667628829616,0.1382307703031289,-1.0369806764535956
1778795424909133824,0.5869770050048828,-0.5391547679901123,0.22950051724910736,0.21487902104854584,0.13940180838108063,-0.03126875311136246,-0.9897421002388,-0.015073195099830627,-0.16270096600055695,0.16538602113723755,0.867520651401051,0.04811800527797349,0.053043503195781584,-0.492218369555924,0.031273850917180636,0.1399261634953063,-1.0343771708283134
1778795424919169024,0.5970120429992676,-0.7017857432365417,0.29155322909355164,0.02890755422413349,0.14202401041984558,-0.02534516528248787,-0.9895386695861816,-0.04299446940422058,-0.10398832708597183,0.16914987564086914,0.8680156195554685,0.046125311025888655,0.05570560779340801,-0.4912415185631622,0.025347880436694618,0.14255196035685927,-1.0318017925175278
1778795424929203968,0.6070470809936523,-0.7783638834953308,0.21160180866718292,0.06825762987136841,0.1444346159696579,-0.017837969586253166,-0.9893535375595093,0.015218093991279602,-0.11819413304328918,0.17508351802825928,0.8682789301928854,0.04341096264002357,0.058640536651689064,-0.4906817148735504,0.01783891635096331,0.144964801479557,-1.03005023945876
1778795424939238144,0.6170811653137207,-0.7455905079841614,0.29501253366470337,0.13990038633346558,0.1468762904405594,-0.010356089100241661,-0.9891006350517273,0.04842093586921692,-0.10065159946680069,0.19053196907043457,0.868727119635519,0.04068699956336602,0.06159740594691888,-0.48975853854733886,0.010356273966413853,0.14741752650599854,-1.0274654792119813
1778795424949272832,0.6271159648895264,-0.6560875177383423,0.3987847566604614,0.22486640512943268,0.1503487378358841,-0.0036979687865823507,-0.9886261224746704,-0.056842878460884094,-0.058588407933712006,0.1850219964981079,0.8692949228692811,0.038549770508484446,0.06481405748583133,-0.4885072257174075,0.003697977170141083,0.15092205814838008,-1.024234772981764
1778795424959307008,0.6371500492095947,-0.6271491050720215,0.4585796296596527,0.30874213576316833,0.1546192169189453,0.00223166448995471,-0.9879716038703918,-0.0787830501794815,-0.095035620033741,0.19094407558441162,0.8699275690532047,0.03690443709194539,0.06820743334742635,-0.4870439754818483,-0.0022316663489486055,0.15524241736225902,-1.0206009778649108
1778795424969341952,0.6471850872039795,-0.6769025325775146,0.4946986138820648,0.3612295687198639,0.1593761146068573,0.008112204261124134,-0.9871845841407776,-0.0695628970861435,-0.12940432131290436,0.21209919452667236,0.8708011896212601,0.035349125020744034,0.07182016224947897,-0.4850749563186349,-0.008112292868744563,0.16006397090671098,-1.0158204943137492
1778795424979377152,0.6572201251983643,-0.7547075748443604,0.5042921304702759,0.4272424280643463,0.16436362266540527,0.01458071544766426,-0.9862920641899109,-0.06309102475643158,-0.14194582402706146,0.2122442126274109,0.8717846534557775,0.033555283717887324,0.07568368286146597,-0.4828430339692632,-0.014581232020497712,0.16513053448739815,-1.0103906863719299
1778795424989410816,0.6672539710998535,-0.7951942682266235,0.5320127010345459,0.4970113933086395,0.16955138742923737,0.021505344659090042,-0.9852866530418396,-0.05163148045539856,-0.13937950134277344,0.21165084838867188,0.8728288256670864,0.031575851109213286,0.07974725491053855,-0.4804301489824559,-0.0215070030056219,0.17041424510369418,-1.0045076604701764
1778795424999446016,0.6772890090942383,-0.7965878844261169,0.5759828090667725,0.5663233399391174,0.17516112327575684,0.02847476117312908,-0.984127938747406,-0.06519103050231934,-0.12951846420764923,0.2173280119895935,0.8740006056887054,0.02962792854868709,0.0840132400457349,-0.4776890842321056,-0.028478609758736048,0.17614158828467,-0.9978735000677365
1778795425009480960,0.687324047088623,-0.8243836164474487,0.6158773899078369,0.6366581916809082,0.18122369050979614,0.035390704870224,-0.9828048944473267,-0.08196526765823364,-0.117421954870224,0.19810640811920166,0.8752963381600379,0.027755628516258055,0.08847133004611409,-0.4746142330770336,-0.03539809689954792,0.1823461197147627,-0.9904837054168596
1778795425019515136,0.6973581314086914,-0.838269829750061,0.63149094581604,0.6981551051139832,0.18763500452041626,0.04234829172492027,-0.9813255071640015,-0.07288891077041626,-0.08629360795021057,0.18510663509368896,0.8767117194728833,0.025885862112790137,0.09309766855429098,-0.4712103519311366,-0.04236096093586329,0.1889253586980866,-0.9823378629346937
1778795425029550080,0.7073931694030762,-0.8986642360687256,0.6438463926315308,0.7409012317657471,0.19423483312129974,0.04949098825454712,-0.979705810546875,-0.059911713004112244,-0.07701784372329712,0.1878814697265625,0.8782067476246332,0.02391859142118397,0.09785190974790549,-0.46755309022224867,-0.04951121463979274,0.1957203174304757,-0.9735917621363929
1778795425039584000,0.7174270153045654,-0.9966291189193726,0.6676039099693298,0.7851933240890503,0.20108285546302795,0.0572848916053772,-0.9778978228569031,-0.07257333397865295,-0.0836215615272522,0.18863695859909058,0.8797687745499809,0.0216549374188809,0.10286961497830067,-0.4636333355569024,-0.057316266904967675,0.20280088173428268,-0.9641851574645818
1778795425049618944,0.7274620532989502,-1.1161166429519653,0.6817136406898499,0.8025822043418884,0.20819391310214996,0.06599130481481552,-0.9758588075637817,-0.08677972853183746,-0.08392038941383362,0.18298161029815674,0.8813602617090808,0.01897983368349159,0.10821438523430559,-0.45949274385359495,-0.06603929840329976,0.2101930675698977,-0.9541862162907032
1778795425059653888,0.737497091293335,-1.182561993598938,0.6978238821029663,0.8629027605056763,0.2155073583126068,0.07556977868080139,-0.9735737442970276,-0.10004410147666931,-0.07485261559486389,0.1761799454689026,0.8829716945919602,0.015889441191454957,0.11384491362608903,-0.45513509233590327,-0.07564188959646237,0.21784428777406944,-0.9435996454024771
1778795425069688064,0.7475311756134033,-1.151680827140808,0.7228221893310547,0.9006190299987793,0.2231859564781189,0.08500009775161743,-0.9710628390312195,-0.11214776337146759,-0.07326608896255493,0.19741171598434448,0.8847316628329184,0.012836283279987122,0.11959857216078845,-0.45031237242570255,-0.08510278978596059,0.22591337203444073,-0.9319546807117902
1778795425079723008,0.757565975189209,-1.1497812271118164,0.7510961890220642,0.9092282056808472,0.23113422095775604,0.09414276480674744,-0.9683563709259033,-0.13587361574172974,-0.11074432730674744,0.2030366063117981,0.8863740771942779,0.009925670987124787,0.12539252352597244,-0.4455547824865679,-0.09428238207913833,0.23430326071387633,-0.9204603188338165
1778795425089757952,0.7676010131835938,-1.1164743900299072,0.7814619541168213,0.9087775945663452,0.23949961364269257,0.10301191359758377,-0.9654162526130676,-0.15244822204113007,-0.11682112514972687,0.20612365007400513,0.8879437324886925,0.007169805137830278,0.13130300830813704,-0.4407541143273246,-0.10319497507181027,0.24316996111025455,-0.9088686317682466
1778795425099792128,0.7776350975036621,-1.05919349193573,0.7926251292228699,0.9244686961174011,0.24807500839233398,0.11130766570568085,-0.9623249769210815,-0.14286565780639648,-0.10204558074474335,0.18754470348358154,0.889471090450879,0.004652390273517564,0.1371709071167927,-0.43589416554721505,-0.11153879294182077,0.25229420519373913,-0.8971681870262946
1778795425109827072,0.7876701354980469,-1.0161880254745483,0.8022112846374512,0.9306275248527527,0.2568623423576355,0.11896233260631561,-0.9590983986854553,-0.1354328989982605,-0.09319023787975311,0.16759449243545532,0.89093964941147,0.002411198266350933,0.14298600273302736,-0.4310170063544712,-0.11924472877436618,0.2616755433687134,-0.8854622855972542
1778795425119860992,0.7977039813995361,-1.0022313594818115,0.8074934482574463,0.9491577744483948,0.26576700806617737,0.1261468082666397,-0.9557483196258545,-0.13904279470443726,-0.09224177896976471,0.15202218294143677,0.8923756825554756,0.0003406729526215673,0.14874716206637484,-0.4260747459395374,-0.12648378342584074,0.2712201261001748,-0.8736279346725948
1778795425129895936,0.8077390193939209,-1.032911777496338,0.7903341054916382,0.9827037453651428,0.2746865153312683,0.13326957821846008,-0.9522534012794495,-0.1404091715812683,-0.08969047665596008,0.11672788858413696,0.8938147395075707,-0.0017833168671689882,0.15449957255278177,-0.4209774550287848,-0.1336672655353817,0.28083582072922164,-0.8614211205605941
1778795425139930880,0.8177740573883057,-1.0438073873519897,0.7563554048538208,1.0104479789733887,0.2834393382072449,0.14037379622459412,-0.9486607909202576,-0.13484925031661987,-0.08504542708396912,0.10036373138427734,0.8952840822863318,-0.004029400853697729,0.16016664435066008,-0.4156885284919476,-0.1408389329806553,0.2903356657293267,-0.8487554842426168
1778795425149965056,0.827808141708374,-1.036313533782959,0.7306994795799255,1.0298556089401245,0.2919532358646393,0.14733687043190002,-0.9450159668922424,-0.13132396340370178,-0.09008589386940002,0.10137277841567993,0.8967619728096307,-0.006346884286808234,0.16568565406226213,-0.41027565728547666,-0.14787521442378726,0.29963832727057194,-0.8357983028155017
1778795425159999744,0.8378429412841797,-1.0086584091186523,0.7357826232910156,1.0431058406829834,0.3004482686519623,0.1538982093334198,-0.9413002729415894,-0.15547451376914978,-0.0883922278881073,0.11602866649627686,0.8982279637250807,-0.008563315315399273,0.17110388251974448,-0.40476750533293576,-0.15451227387945152,0.308962853012525,-0.8226459036859642
1778795425170034944,0.8478779792785645,-1.028328537940979,0.7497539520263672,1.060473084449768,0.30910614132881165,0.1602451503276825,-0.9374299645423889,-0.18052032589912415,-0.09602090716362,0.12735611200332642,0.8996548836264708,-0.010725346451717289,0.17655025414204067,-0.39916942286606627,-0.1609390041265344,0.31851113647402524,-0.809287482139196
1778795425180068864,0.8579120635986328,-1.0271503925323486,0.7706648111343384,1.0817142724990845,0.31798943877220154,0.16656631231307983,-0.9333479404449463,-0.19170770049095154,-0.11308425664901733,0.1493055820465088,0.901034182290201,-0.01291316525540944,0.1820969075218939,-0.3934605847726944,-0.16734630800330502,0.3283637187467285,-0.795650317614191
1778795425190104064,0.8679471015930176,-1.0701014995574951,0.7868471741676331,1.110515832901001,0.3271304666996002,0.17275528609752655,-0.9290539622306824,-0.19613376259803772,-0.15862566232681274,0.16440558433532715,0.9023870068811188,-0.015085195908261188,0.18773771362726888,-0.3875883721401728,-0.17362632466983868,0.33855451931599956,-0.7816291193886713
1778795425200139008,0.8779821395874023,-1.1159193515777588,0.824068546295166,1.147512674331665,0.33660373091697693,0.17919261753559113,-0.9244392514228821,-0.19930514693260193,-0.17804820835590363,0.16578751802444458,0.9037061288108768,-0.017421337686080937,0.19358942268448054,-0.38149055615678007,-0.18016571876647805,0.34919514761767445,-0.7670280184854359
1778795425210172928,0.8880159854888916,-1.103880524635315,0.851897656917572,1.191155195236206,0.34650805592536926,0.18548566102981567,-0.9195255637168884,-0.18786245584487915,-0.12765485048294067,0.15184062719345093,0.9049919883092808,-0.01972557150083056,0.19961996609732174,-0.3751696009249163,-0.1865660700807766,0.36037719272088753,-0.7519008364617453
1778795425220207872,0.8980510234832764,-1.0658061504364014,0.8503665924072266,1.236511468887329,0.3566399812698364,0.19119811058044434,-0.9144676923751831,-0.1560479700565338,-0.07202698290348053,0.11940854787826538,0.906278245625817,-0.021837865946577606,0.20564352049207615,-0.36863728797427614,-0.192382625516454,0.3718537878084706,-0.7363446394464803
1778795425230242048,0.9080851078033447,-1.0445556640625,0.8182483315467834,1.271774172782898,0.3667272627353668,0.1962905079126358,-0.9093850255012512,-0.13529720902442932,-0.06788778305053711,0.10903102159500122,0.9075849044787089,-0.023791129762948306,0.211521793228128,-0.3619143866539671,-0.19757338157797685,0.3833217526684586,-0.7204267662692138
1778795425240276992,0.9181201457977295,-1.0281370878219604,0.7835188508033752,1.2828729152679443,0.37654292583465576,0.2009606808423996,-0.9043396711349487,-0.14274775981903076,-0.0999017208814621,0.10786139965057373,0.9088932472429978,-0.02570362228814943,0.21718539973691212,-0.35508137787043953,-0.20233850843172124,0.3945411678134393,-0.7043082570500854
1778795425250311936,0.9281549453735352,-1.0196839570999146,0.7607004642486572,1.3038489818572998,0.3861522674560547,0.20523639023303986,-0.8993133306503296,-0.1626415252685547,-0.13028521835803986,0.11939084529876709,0.9101915623450485,-0.027570868591122545,0.22267281840658126,-0.3481494629889896,-0.20670523094633847,0.405579495473613,-0.6880143878254689
1778795425260345856,0.9381890296936035,-1.010764718055725,0.7600000500679016,1.3054267168045044,0.3956867456436157,0.20929647982120514,-0.8942186832427979,-0.18033945560455322,-0.14830709993839264,0.14313530921936035,0.9114450892166998,-0.029446037999607162,0.22808683389858508,-0.34114108506952395,-0.2108554433124818,0.41659476012269336,-0.671563582961435
1778795425270381056,0.9482240676879883,-0.9469310641288757,0.7908853888511658,1.3151980638504028,0.405398428440094,0.2127598077058792,-0.889036238193512,-0.197482168674469,-0.1486728936433792,0.16581541299819946,0.9126193751442255,-0.03108049897309891,0.23348638973673894,-0.3341318418097998,-0.21439856912689348,0.42783037739792557,-0.6551863195884229
1778795425280416000,0.958259105682373,-0.9140782952308655,0.82733553647995,1.3231295347213745,0.4154224097728729,0.21562591195106506,-0.883702278137207,-0.19861027598381042,-0.13216033577919006,0.14676380157470703,0.9136982464688631,-0.03244912316111145,0.23894751092765348,-0.3271188942774922,-0.21733276798779994,0.4394371909909314,-0.6388789376071462
1778795425290449920,0.9682929515838623,-0.8791320323944092,0.8462634086608887,1.36592698097229,0.42572253942489624,0.2178509384393692,-0.8782376050949097,-0.17688220739364624,-0.1101086437702179,0.11967748403549194,0.9147219903584293,-0.03356342496019387,0.2444477123617774,-0.32000408433040256,-0.21961197954286504,0.4513704362916553,-0.622445246065401
1778795425300484864,0.9783279895782471,-0.8281540870666504,0.8423879742622375,1.4021912813186646,0.4361894428730011,0.21938516199588776,-0.8727020621299744,-0.1518266499042511,-0.09282876551151276,0.08484506607055664,0.9157255613821879,-0.034436136296453354,0.249926202504261,-0.31272644515597137,-0.2211842396145121,0.46349945802644094,-0.6057779655628154
1778795425310519040,0.9883620738983154,-0.8057068586349487,0.8409351110458374,1.4427688121795654,0.44669249653816223,0.2201734036207199,-0.8671733140945435,-0.12868407368659973,-0.08424811065196991,0.06128036975860596,0.9167198952051884,-0.03505821126792604,0.255312119150196,-0.30530528650891803,-0.22199222794565893,0.475665008829585,-0.5889503941111561
1778795425320553984,0.9983971118927002,-0.8412243723869324,0.826014518737793,1.4749912023544312,0.4571528434753418,0.22067353129386902,-0.8615767359733582,-0.0998225212097168,-0.06533905863761902,0.027119338512420654,0.917700048239542,-0.03568249786055785,0.26064995487148074,-0.2976825190043891,-0.22250497064429053,0.48782709450838524,-0.571750193320208
1778795425330589184,1.008432149887085,-0.904920220375061,0.7913479804992676,1.4829013347625732,0.46741288900375366,0.22131642699241638,-0.8558880090713501,-0.07616227865219116,-0.04269704222679138,0.027030587196350098,0.9186561898720195,-0.036549915949965976,0.2659325255031642,-0.28985325764082165,-0.2231641698010834,0.4998552570811223,-0.5540774618862274
1778795425340622848,1.0184659957885742,-0.9441148042678833,0.770472526550293,1.473889946937561,0.47737228870391846,0.22222109138965607,-0.8501373529434204,-0.07304489612579346,-0.03179140388965607,0.03646242618560791,0.9195536722950209,-0.03770220364945053,0.2711270441233276,-0.28193921946371137,-0.22409193517680703,0.5116475230922755,-0.5361678285716645
1778795425350658048,1.028501033782959,-0.980536699295044,0.7439176440238953,1.4617798328399658,0.48705625534057617,0.22331611812114716,-0.8443376421928406,-0.09130433201789856,-0.025913164019584656,0.036232173442840576,0.9203805013732509,-0.039086708920219954,0.27623070583133724,-0.27398625269897636,-0.22521518850209654,0.5232235762202782,-0.5181300464245043
1778795425360692992,1.0385360717773438,-0.9917579293251038,0.739461362361908,1.4203414916992188,0.49658203125,0.22452221810817719,-0.8384485840797424,-0.10510256886482239,-0.02274000644683838,0.05469620227813721,0.9211011146500195,-0.04062047078870509,0.2812928762883721,-0.266076940138592,-0.22645270804041767,0.5347110582079908,-0.5001517058197007
1778795425370727168,1.048570156097412,-0.9880849123001099,0.7283527851104736,1.3704078197479248,0.5058984756469727,0.2258146107196808,-0.8325109481811523,-0.11898136138916016,-0.01612834632396698,0.06128603219985962,0.9216829964280767,-0.04224790657090432,0.2862859384760629,-0.25837151174392514,-0.22777917010452997,0.5460458491817284,-0.4825845301403561
1778795425380761856,1.0586049556732178,-0.9589531421661377,0.6808273196220398,1.3208261728286743,0.5148266553878784,0.22702403366565704,-0.826688289642334,-0.11539745330810547,-0.007251709699630737,0.05833202600479126,0.9221731837623897,-0.043902328896064706,0.29108148136811535,-0.2508797997960805,-0.22902082886146763,0.5569853761929424,-0.4655018988920719
1778795425390796800,1.0686399936676025,-0.9467965960502625,0.6275050044059753,1.2567640542984009,0.5231744050979614,0.22819457948207855,-0.8211064338684082,-0.09977352619171143,-0.011016249656677246,0.06951957941055298,0.9225933201940508,-0.04560380245656713,0.29557924189859375,-0.24366910592735885,-0.23022293917626,0.5672943057011272,-0.44904971690383194
1778795425400830976,1.078674077987671,-0.8991446495056152,0.5830720067024231,1.208687663078308,0.5309754014015198,0.22928500175476074,-0.8157778382301331,-0.10569769144058228,-0.002890348434448242,0.06005579233169556,0.9229590414793821,-0.047323681483874926,0.2997858542557344,-0.2367179213266323,-0.2313430579574736,0.5769952662016441,-0.43319293079678484
1778795425410865920,1.0887091159820557,-0.8424744606018066,0.5544232130050659,1.1653398275375366,0.5383340716362,0.23001573979854584,-0.8107336759567261,-0.11032509803771973,0.01966381072998047,0.02659982442855835,0.9232806874923623,-0.048891442086831875,0.3037149568116042,-0.2300424887036471,-0.23209385399854054,0.5861600927362488,-0.4180453380787043
1778795425420899840,1.098742961883545,-0.7423409223556519,0.5277801752090454,1.1507073640823364,0.545394241809845,0.23017136752605438,-0.8059567213058472,-0.11198365688323975,0.046714603900909424,-0.00013458728790283203,0.923569595523891,-0.050182971076847285,0.3074138862739569,-0.2236015447388915,-0.23225377976636566,0.5949194625145999,-0.4035803993645888
1778795425430934784,1.1087779998779297,-0.6616484522819519,0.5167369246482849,1.14854896068573,0.5522676706314087,0.22948496043682098,-0.8014593720436096,-0.11408102512359619,0.055518701672554016,-0.029793739318847656,0.9238505486020979,-0.051063408775225354,0.31090650232771727,-0.2173242549110451,-0.231548492124377,0.6033577896161275,-0.38972935803838676
1778795425440969984,1.1188130378723145,-0.5992863178253174,0.5048296451568604,1.154382586479187,0.5589938163757324,0.22811131179332733,-0.7971769571304321,-0.1129947304725647,0.05222316086292267,-0.03828752040863037,0.9241269376983942,-0.05162588631608724,0.3142392222037074,-0.21113463307340546,-0.23013740725480422,0.6115421078436732,-0.37629051072984765
1778795425451003904,1.1288471221923828,-0.5893948078155518,0.5096438527107239,1.163587212562561,0.5656737685203552,0.2262706309556961,-0.7929784059524536,-0.10012811422348022,0.056871458888053894,-0.007909655570983887,0.924383317981955,-0.051994950984478275,0.31750168032841364,-0.2049502542959994,-0.22824730175987326,0.6196317930273589,-0.36301876461722904
1778795425461039104,1.1388821601867676,-0.6133595108985901,0.5291879773139954,1.1781374216079712,0.572445273399353,0.22438567876815796,-0.7886427640914917,-0.0862545371055603,0.08465057611465454,0.0314100980758667,0.9245752691748707,-0.05239520160946978,0.32083228684949666,-0.19870049745073803,-0.22631260096600606,0.6278725351516039,-0.3496208912438825
1778795425471073792,1.1489169597625732,-0.6673609614372253,0.5267815589904785,1.1979215145111084,0.5793084502220154,0.22252804040908813,-0.7841447591781616,-0.06552976369857788,0.09660951793193817,0.04517686367034912,0.924714583632483,-0.052899193002108894,0.3242364761579829,-0.1922898031357995,-0.2244067710288763,0.6362798814467777,-0.33586571153219363
1778795425481107968,1.1589510440826416,-0.7574437260627747,0.5087748765945435,1.1967090368270874,0.5860230326652527,0.22111481428146362,-0.7795416712760925,-0.036416709423065186,0.08003264665603638,0.054001569747924805,0.9248144236381958,-0.053754457302283384,0.32762723969608376,-0.18571260000406678,-0.22295742489488565,0.6446222669172983,-0.3216166450388628
1778795425491142912,1.1689860820770264,-0.8374032378196716,0.4994999170303345,1.1807372570037842,0.5925878882408142,0.2202952355146408,-0.7747964859008789,-0.014707028865814209,0.07255144417285919,0.051224708557128906,0.9248533826232691,-0.0550269987647122,0.33101929997796137,-0.17900983794844155,-0.22211713015812684,0.6529251727821324,-0.3069026968487884
1778795425501178112,1.1790211200714111,-0.871141254901886,0.49271708726882935,1.160014033317566,0.5990329384803772,0.21996550261974335,-0.76991868019104,0.008236348628997803,0.10202546417713165,0.015188455581665039,0.9248125578281196,-0.056626493601961654,0.3344160717950188,-0.17228195909664393,-0.22177910085589947,0.6612109040582065,-0.29196344120161427
1778795425511211776,1.1890549659729004,-0.8244805335998535,0.47878703474998474,1.1390321254730225,0.605307400226593,0.21953916549682617,-0.7651180028915405,0.04200088977813721,0.14238405227661133,-0.020190834999084473,0.9247262126500748,-0.058207630608931055,0.3377171630554236,-0.1656518234098767,-0.22134209303121738,0.6693086655475282,-0.2772666092251129
1778795425521246976,1.1990900039672852,-0.7897585034370422,0.4634980857372284,1.0848482847213745,0.611359179019928,0.21892301738262177,-0.7604687809944153,0.06520026922225952,0.16402681171894073,-0.04643124341964722,0.9245926468050963,-0.05967224706888354,0.3408883083861642,-0.15925740518988687,-0.22071057537313649,0.6771290958289958,-0.26314994263127045
1778795425531280896,1.2091240882873535,-0.735236406326294,0.44664186239242554,1.037971019744873,0.6171396970748901,0.21820981800556183,-0.755991518497467,0.05690205097198486,0.16564027965068817,-0.06960052251815796,0.9244108803697001,-0.06104215307135761,0.34391583892005234,-0.15316792646803093,-0.2199797004681031,0.6846201540128969,-0.24973717960350597
1778795425541316096,1.2191591262817383,-0.7069645524024963,0.4263419210910797,0.9879624247550964,0.622657835483551,0.21735012531280518,-0.7517021894454956,0.048469483852386475,0.13865268230438232,-0.0856086015701294,0.9241965539550379,-0.06229704472124995,0.34679675133882953,-0.14734955115416953,-0.2190988651670859,0.6917785082561523,-0.23697514901148287
1778795425551351040,1.229194164276123,-0.6705871224403381,0.42149606347084045,0.9277155995368958,0.6279248595237732,0.21650813519954681,-0.7475523948669434,0.021428167819976807,0.11302065849304199,-0.05568552017211914,0.9239368370384133,-0.06350508030090286,0.34955814039271776,-0.14183444289427036,-0.21823634100913217,0.6986447933813269,-0.22487415590121618
1778795425561384960,1.2392280101776123,-0.575258195400238,0.42370301485061646,0.8772295117378235,0.6330406665802002,0.21547488868236542,-0.7435254454612732,-0.011153459548950195,0.11179561913013458,-0.03624445199966431,0.9236225996156463,-0.06451715140407731,0.35224254743829087,-0.13668974887015117,-0.21717811645749946,0.7053087080116778,-0.21365049280886783
1778795425571419904,1.249263048171997,-0.5070639252662659,0.4273247718811035,0.8352418541908264,0.6380629539489746,0.21403972804546356,-0.7396368384361267,-0.03015279769897461,0.11187274754047394,-0.03201538324356079,0.9232651398298856,-0.06521437247026948,0.3548642886048592,-0.13190876555094908,-0.21570867552827505,0.7118041617256226,-0.20336863336593727
1778795425581455104,1.2592980861663818,-0.48464494943618774,0.43706315755844116,0.8054836988449097,0.6430114507675171,0.21242326498031616,-0.7358074188232422,-0.035604894161224365,0.09697918593883514,-0.04210084676742554,0.9228645552334801,-0.06575242891552346,0.35745334720703176,-0.12737618493899613,-0.21405414956275323,0.7181984328916775,-0.19369702704214212
1778795425591489024,1.2693321704864502,-0.47730422019958496,0.4527764618396759,0.8077502846717834,0.6480185389518738,0.21072837710380554,-0.7318916916847229,-0.037529706954956055,0.08163002133369446,-0.053478121757507324,0.9224055769409467,-0.06623445966465236,0.3600932418631689,-0.12293802079920917,-0.21232000240458812,0.7246912551736844,-0.18425105884449247
1778795425601523968,1.2793669700622559,-0.457053005695343,0.4443158805370331,0.8205034136772156,0.65301114320755,0.20883165299892426,-0.7279874682426453,-0.026470065116882324,0.06510940194129944,-0.06676656007766724,0.9219324611552069,-0.0666491192670901,0.36271773625128606,-0.11846632449425144,-0.21038011316577754,0.7311600333050009,-0.1748099045689345
1778795425611557888,1.2894010543823242,-0.48362231254577637,0.42584964632987976,0.8057084679603577,0.657882571220398,0.20688402652740479,-0.7241474390029907,0.007537961006164551,0.058618903160095215,-0.07440602779388428,0.9214541244433212,-0.06706823365925131,0.365278160553932,-0.11400000885503318,-0.2083890060410899,0.7374873746194519,-0.16540995531752192
1778795425621593088,1.299436092376709,-0.49525314569473267,0.40270519256591797,0.7894522547721863,0.662526547908783,0.20520338416099548,-0.7203819751739502,0.04154449701309204,0.08292832970619202,-0.05584782361984253,0.9209742837323104,-0.06767035000694893,0.36773596038426487,-0.10953249333001391,-0.2066715023572463,0.7435864782008758,-0.15591919606563534
1778795425631628032,1.3094711303710938,-0.502117395401001,0.388737291097641,0.7510436177253723,0.6669460535049438,0.20364725589752197,-0.7167361378669739,0.05336034297943115,0.11410176753997803,-0.04544031620025635,0.9204904979162389,-0.0683262676097238,0.37008572071270995,-0.10519170516610377,-0.20508181002231893,0.7494299177288841,-0.1466706571763277
1778795425641661952,1.319504976272583,-0.5193499326705933,0.3733444809913635,0.7065891027450562,0.6711538434028625,0.20242318511009216,-0.7131460905075073,0.04297274351119995,0.11802664399147034,-0.042163968086242676,0.9199844742545391,-0.06913455599424297,0.3723538179549072,-0.10100305179275099,-0.2038316958427153,0.7550728275558684,-0.1376317980302072
1778795425651696896,1.3295400142669678,-0.5372860431671143,0.34646642208099365,0.6626104116439819,0.675111711025238,0.20155249536037445,-0.7096483111381531,0.03179740905761719,0.09623801708221436,-0.03517889976501465,0.9194672972001701,-0.07010351433895401,0.37451480674475257,-0.09697442792547022,-0.20294268734967344,0.7604628560073966,-0.12881216322972755
1778795425661731840,1.3395750522613525,-0.5476753115653992,0.32182765007019043,0.6187481880187988,0.6787752509117126,0.20106659829616547,-0.7062835097312927,0.031979143619537354,0.07104338705539703,-0.044967710971832275,0.9189517432427076,-0.07124821227403284,0.3765394229779255,-0.09311011500487223,-0.20244663165549917,0.7655400641161569,-0.12021026773865855
1778795425671766016,1.349609136581421,-0.5136305093765259,0.29926493763923645,0.5773993730545044,0.6821797490119934,0.2007320076227188,-0.7030913829803467,0.043650269508361816,0.06069682538509369,-0.06378483772277832,0.9184468618472393,-0.0724221931875821,0.3784301064936595,-0.08944866210689784,-0.20210507789800602,0.7703036295097638,-0.11200316459850888
1778795425681800960,1.3596441745758057,-0.45350381731987,0.29019156098365784,0.5345403552055359,0.6853756904602051,0.2003454715013504,-0.7000870704650879,0.05343961715698242,0.0700707882642746,-0.07718038558959961,0.9179514538026006,-0.0734752511253022,0.3802076444950531,-0.08607407101829116,-0.2017105240283872,0.7747801774285077,-0.10445573993032031
1778795425691835904,1.3696789741516113,-0.3939360976219177,0.29092326760292053,0.496570348739624,0.6884421706199646,0.19974534213542938,-0.6972439885139465,0.0469246506690979,0.07707960903644562,-0.07515591382980347,0.9174600103030048,-0.07430708780179822,0.38191159512029577,-0.08300059404719069,-0.20109801805830607,0.7790462958095524,-0.09766212456695073
1778795425701870080,1.3797130584716797,-0.31432488560676575,0.2899512052536011,0.4635713994503021,0.6914279460906982,0.19889041781425476,-0.6945286393165588,0.04297751188278198,0.058616891503334045,-0.07089799642562866,0.9169679036992125,-0.07489634472020504,0.38357035407018497,-0.08021387380813692,-0.2002255873717324,0.7831609491963224,-0.09160671518026546
1778795425711905024,1.3897480964660645,-0.2156132310628891,0.313800185918808,0.4295274019241333,0.6944020986557007,0.19763322174549103,-0.6919152736663818,0.04398590326309204,0.05023054778575897,-0.07355713844299316,0.9164659325567637,-0.0751350279713536,0.3852234159067679,-0.07776764978773523,-0.19894293544450836,0.787192000507441,-0.0864662957050247
1778795425721938944,1.3997819423675537,-0.1340256929397583,0.3360874056816101,0.4079478085041046,0.6974747776985168,0.19591054320335388,-0.6893097758293152,0.05083143711090088,0.05653086304664612,-0.08238822221755981,0.9159336280997432,-0.07499443397284937,0.3869379292444175,-0.07563318569294987,-0.1971859021092623,0.7912858443915748,-0.08219714436600714
1778795425731973888,1.4098169803619385,-0.07416128367185593,0.3576699197292328,0.3876766264438629,0.7006418704986572,0.19381225109100342,-0.6866860389709473,0.0706440806388855,0.05397520959377289,-0.07767242193222046,0.9153722095722304,-0.07455419501276048,0.38871408699672816,-0.07373360013207504,-0.19504660304029128,0.7954572958181636,-0.07859650376544605
1778795425742008832,1.4198520183563232,-0.04247500002384186,0.3804934620857239,0.3781598210334778,0.703921914100647,0.19150656461715698,-0.6839730739593506,0.08242446184158325,0.05397683382034302,-0.07695215940475464,0.9147685127386669,-0.07393025787820785,0.39057366558987067,-0.07200743210084645,-0.1926968850478126,0.7997706451071477,-0.07545670194851534
1778795425752043008,1.4298861026763916,-0.058645978569984436,0.3982206881046295,0.37310513854026794,0.7073239684104919,0.18917401134967804,-0.6811063885688782,0.10284143686294556,0.05647723376750946,-0.08395397663116455,0.9141147121673129,-0.07327037281970784,0.39252802295147066,-0.07033760239735434,-0.19032090115202144,0.8042787890898475,-0.07244217244333044
1778795425762077952,1.4399211406707764,-0.09556297957897186,0.3936866521835327,0.3654884994029999,0.7107271552085876,0.18707680702209473,-0.6781365871429443,0.12664467096328735,0.04690146446228027,-0.08484864234924316,0.9134322232894951,-0.07276228394101443,0.3945089912624213,-0.06862957787592341,-0.18818556341117648,0.8088594771904452,-0.06924299209146563
1778795425772112896,1.449955940246582,-0.09933242201805115,0.3867637515068054,0.3750079870223999,0.7140556573867798,0.1851317286491394,-0.6751672029495239,0.13820874691009521,0.030352875590324402,-0.0795019268989563,0.9127479809635023,-0.07235884008095136,0.3964600803913372,-0.06689319328090594,-0.18620590980010496,0.8133838023966163,-0.06592498651340765
1778795425782146816,1.4599900245666504,-0.08087937533855438,0.3717547059059143,0.3675202429294586,0.7173300385475159,0.18303650617599487,-0.6722612380981445,0.14076316356658936,0.03888732194900513,-0.08300304412841797,0.9120779220240972,-0.07188461137279323,0.39837416190235053,-0.06514952319207082,-0.18407425582954717,0.8178199310780122,-0.0626679632897652
1778795425792182016,1.4700250625610352,-0.08215662837028503,0.3352465331554413,0.34190940856933594,0.7203686833381653,0.18102116882801056,-0.6695522665977478,0.1433093547821045,0.04595331847667694,-0.07825040817260742,0.9114517397118613,-0.07142705639746698,0.4001525053351102,-0.0634964597582099,-0.1820246706189317,0.8219425033690538,-0.05960389282298974
1778795425802216960,1.48006010055542,-0.08511459827423096,0.3093837797641754,0.3292279839515686,0.7231164574623108,0.17914073169231415,-0.6670916080474854,0.12234252691268921,0.028714478015899658,-0.06354498863220215,0.9108859069518508,-0.07102733871390504,0.40175777135383844,-0.06190936162721038,-0.1801129912304376,0.8256759819129655,-0.05665953520659954
1778795425812250880,1.4900939464569092,-0.08000373095273972,0.3020786941051483,0.3286881446838379,0.7257562875747681,0.17731375992298126,-0.6647087335586548,0.08866631984710693,0.018822699785232544,-0.059473395347595215,0.9103361169645071,-0.07065052747912309,0.4033040140906679,-0.06035435859898694,-0.17825628983495154,0.8292743876024932,-0.053775838162718234
1778795425822285824,1.500128984451294,-0.09138794243335724,0.2695489823818207,0.31827038526535034,0.7282329797744751,0.17550712823867798,-0.6624756455421448,0.0804828405380249,0.0007471442222595215,-0.06022632122039795,0.9098243962699849,-0.0702928423960924,0.404748167672503,-0.0588005611179027,-0.1764208646796569,0.832646293393258,-0.050906375076523104
1778795425832320000,1.5101630687713623,-0.0880078598856926,0.23879148066043854,0.3089333474636078,0.7304637432098389,0.17383050918579102,-0.6604588031768799,0.09380084276199341,-0.013704776763916016,-0.05728411674499512,0.9093678621033472,-0.07000701747995307,0.40604141504464775,-0.057267852242259186,-0.17471806637813275,0.8356856024799557,-0.04805338626334018
1778795425842354944,1.520198106765747,-0.061058804392814636,0.22438403964042664,0.31144869327545166,0.732536792755127,0.1720418483018875,-0.6586284041404724,0.09925025701522827,0.007432043552398682,-0.06201374530792236,0.9089564873171471,-0.06964347793493646,0.40722916998874065,-0.05578685353124478,-0.17290205136896913,0.8384752643141391,-0.04538600286230026
1778795425852390144,1.5302331447601318,-0.04657094180583954,0.21431316435337067,0.30495965480804443,0.7344916462898254,0.1701221466064453,-0.6569478511810303,0.10011833906173706,0.023939132690429688,-0.06370949745178223,0.9085813872973851,-0.06919433448728111,0.40833591290835036,-0.05434836048246652,-0.17095361825962865,0.8410697497300686,-0.04288890217651531
1778795425862424064,1.5402672290802002,-0.03515210747718811,0.21154187619686127,0.2911389172077179,0.7364020347595215,0.1681845486164093,-0.6553060412406921,0.09349298477172852,0.028150290250778198,-0.06214696168899536,0.9082107745861032,-0.06871067911163188,0.409421321746178,-0.05297354263994572,-0.16898769877670172,0.8436031630455557,-0.04054758085195348
1778795425872459264,1.550302267074585,-0.02347414381802082,0.22211356461048126,0.27668672800064087,0.7383182048797607,0.1662268340587616,-0.6536473035812378,0.08231467008590698,0.02649165689945221,-0.05329233407974243,0.9078281333298348,-0.06817846176132401,0.4105216813587649,-0.051688119233989666,-0.1670020289221415,0.8461516356379921,-0.03841413469028155
1778795425882493952,1.5603370666503906,-0.05225146561861038,0.22842872142791748,0.275292307138443,0.7402549982070923,0.16445496678352356,-0.6519026756286621,0.07062751054763794,0.021992191672325134,-0.05117654800415039,0.9074183863636841,-0.06773874855794607,0.4116553380813078,-0.05043076725693475,-0.1652054233750502,0.8487774690415063,-0.03625503684909703
1778795425892528128,1.570371150970459,0.025729354470968246,0.22457459568977356,0.28137388825416565,0.742168128490448,0.16245241463184357,-0.6502273082733154,0.08017373085021973,0.02878597378730774,-0.060237109661102295,0.9070234898062949,-0.06715666877298618,0.4127666598165248,-0.04921311144112069,-0.16317557812561698,0.8513331157541687,-0.03429705171307174
1778795425902563072,1.5804061889648438,0.03357502818107605,0.23588237166404724,0.27960023283958435,0.7441344857215881,0.1601579189300537,-0.6485470533370972,0.07630008459091187,0.01969742774963379,-0.05006134510040283,0.9066205450344389,-0.0663711711518191,0.41390981048965125,-0.048091375343251336,-0.16085063488253598,0.8539262218645141,-0.03268556935328101
1778795425912598016,1.5904412269592285,0.04916570335626602,0.2511908710002899,0.30068686604499817,0.7461743950843811,0.15775126218795776,-0.6467908024787903,0.05477476119995117,0.0004060715436935425,-0.03947317600250244,0.9061969747307507,-0.065542545662027,0.4151009017102766,-0.04693118701906294,-0.15841299224669966,0.8566242291200911,-0.031037808623571205
1778795425922631936,1.6004750728607178,0.062302011996507645,0.27399900555610657,0.3117475211620331,0.7483485341072083,0.15508465468883514,-0.6449211835861206,0.05725449323654175,-0.0010624527931213379,-0.027716755867004395,0.9057413367833511,-0.06457942788544407,0.41637593643960785,-0.04575208957965605,-0.1557131424809053,0.859495804755191,-0.029461132918769874
1778795425932667136,1.6105101108551025,0.05083950236439705,0.29407283663749695,0.3390542268753052,0.7506885528564453,0.1522430032491684,-0.6428754329681396,0.07879447937011719,0.02123415470123291,-0.03479790687561035,0.9052393735369839,-0.06355747357756823,0.41775917181724503,-0.044491606176651204,-0.1528373413294436,0.8626093856458893,-0.027774972027915422
1778795425942701056,1.620544195175171,-0.012737344019114971,0.3108970820903778,0.3688262403011322,0.7531861066818237,0.14942608773708344,-0.6406111121177673,0.09726250171661377,0.02427995204925537,-0.03605508804321289,0.9046849135903458,-0.0626471636969858,0.41924904600730656,-0.04302240737695634,-0.1499878250774485,0.8659917554371592,-0.025604144953475856
1778795425952736256,1.6305792331695557,-0.06273606419563293,0.334380179643631,0.39984461665153503,0.7558211088180542,0.14677000045776367,-0.6381167769432068,0.0894089937210083,-0.0015978813171386719,-0.023824691772460938,0.9040752410666649,-0.061942543284889705,0.42083811376588937,-0.04130870930858861,-0.1473021118850481,0.8696384578398619,-0.02280572314605511
1778795425962771200,1.6406142711639404,-0.08387862890958786,0.35721707344055176,0.4273500144481659,0.7586327195167542,0.14417225122451782,-0.635366678237915,0.08678048849105835,0.006920278072357178,-0.03641676902770996,0.90340122852858,-0.06138147069754288,0.42255054975500955,-0.03936577728830995,-0.14467643608090044,0.8735949267339241,-0.01945712580980767
1778795425972805120,1.6506481170654297,-0.07559459656476974,0.38966289162635803,0.4427103102207184,0.76164710521698,0.14130443334579468,-0.6323977112770081,0.09134972095489502,0.03465990722179413,-0.03798198699951172,0.902665145420112,-0.06071270394267668,0.42439972445390145,-0.03734445939317362,-0.14177895238497656,0.8778492659855789,-0.016047877329839373
1778795425982840064,1.6606831550598145,-0.07115857303142548,0.4084291160106659,0.45251554250717163,0.7647954225540161,0.13835600018501282,-0.6292420625686646,0.08775889873504639,0.03945466876029968,-0.05061328411102295,0.9018737486900736,-0.060025324977775095,0.4263518724865843,-0.035282435537330854,-0.1388012513947183,0.8823313788172985,-0.012578082792465257
1778795425992875008,1.6707181930541992,-0.09845463931560516,0.418104887008667,0.4501109719276428,0.7680275440216064,0.13540363311767578,-0.6259390115737915,0.08426743745803833,0.026339545845985413,-0.04625648260116577,0.9010375111068661,-0.059362080261127693,0.428376754644791,-0.03318189622618641,-0.13582083103664286,0.8869784378106176,-0.009020793808614643
1778795426002909184,1.6807522773742676,-0.10366671532392502,0.4236306846141815,0.42723548412323,0.7712543606758118,0.13272416591644287,-0.6225359439849854,0.09030264616012573,0.028973236680030823,-0.03171515464782715,0.9001676379725587,-0.058859306448241354,0.43042724167494933,-0.031082693312086195,-0.13311695491415956,0.8916966721251651,-0.005337214781294268
1778795426012943872,1.6907870769500732,-0.12777870893478394,0.4459085762500763,0.4149615168571472,0.7745260000228882,0.1301630735397339,-0.6190047860145569,0.07271820306777954,0.04090321063995361,-0.033598363399505615,0.8992535187060019,-0.05838735495901429,0.4325373033406391,-0.02907611142342275,-0.13053345161494978,0.8965405488476805,-0.0017994827749087173
1778795426022979072,1.700822114944458,-0.1495569795370102,0.4697025716304779,0.40519383549690247,0.777885377407074,0.1278270035982132,-0.6152678728103638,0.05820465087890625,0.04113355278968811,-0.041195690631866455,0.8982775136586609,-0.058062653212974324,0.43473532546447347,-0.027044339191023517,-0.1281777056379202,0.9015985711951098,0.0019128223861539877
1778795426033012992,1.7108561992645264,-0.18951745331287384,0.4621163010597229,0.3925321102142334,0.7812835574150085,0.12572677433490753,-0.6113826632499695,0.06029963493347168,0.032720476388931274,-0.04813271760940552,0.8972543381705932,-0.05787730715479398,0.4369884298077505,-0.025018338500797897,-0.12606038918318405,0.9067951199450249,0.0057333272994234095
1778795426043048192,1.7208912372589111,-0.12919418513774872,0.4306766390800476,0.4008787274360657,0.7845070958137512,0.12368815392255783,-0.6076592803001404,0.07363194227218628,0.027053438127040863,-0.07300478219985962,0.8962699480252323,-0.05772532693076008,0.43913341095991004,-0.02301487692388406,-0.1240057247603755,0.9117520738440975,0.009516371788748429
1778795426053083136,1.730926275253296,-0.08555722236633301,0.39326268434524536,0.429545521736145,0.7875195145606995,0.12104977667331696,-0.6042847037315369,0.09271419048309326,0.03539858013391495,-0.11126095056533813,0.8953772410712059,-0.05723966660438483,0.44111367561952536,-0.021023588133938592,-0.12134736517282524,0.9162980921924229,0.012945871981082466
1778795426063117056,1.7409601211547852,-0.025302138179540634,0.4001842141151428,0.41509467363357544,0.7904440760612488,0.11798017472028732,-0.6010647416114807,0.0970224142074585,0.05387955904006958,-0.10163295269012451,0.8945198441398106,-0.056463181520811236,0.4430344502664262,-0.019146705050999475,-0.11825560192922092,0.920663465351929,0.015887677974562357
1778795426073152000,1.75099515914917,-0.07061342149972916,0.38903146982192993,0.4237518012523651,0.7933104634284973,0.11498040705919266,-0.5978611707687378,0.07044380903244019,0.05335455387830734,-0.07055002450942993,0.8936623918640315,-0.055736683109765275,0.44493015905639505,-0.017262089982937562,-0.11523527278014228,0.9249771831283127,0.018871172097042976
1778795426083186176,1.7610292434692383,-0.15149736404418945,0.4001823663711548,0.4190846085548401,0.7961557507514954,0.11223498731851578,-0.5945918560028076,0.05261439085006714,0.03861340135335922,-0.028744935989379883,0.8927843233344063,-0.055230221570403096,0.4468262488421977,-0.015238178633029117,-0.11247196577065263,0.9293280162656099,0.02229048373898212
1778795426093221120,1.771064281463623,-0.25419604778289795,0.4117256999015808,0.4141644239425659,0.79900062084198,0.1101103350520134,-0.591163158416748,0.04526829719543457,0.0408296212553978,-0.013741075992584229,0.8918589094739889,-0.0551826283146956,0.44874637757448865,-0.01301414015634361,-0.11033405823572127,0.9338046998684574,0.02647652379936989
1778795426103256064,1.7810990810394287,-0.3801577091217041,0.4320392310619354,0.4147101044654846,0.8019675016403198,0.10866134613752365,-0.5874018669128418,0.06158846616744995,0.06170302629470825,-0.024673938751220703,0.8908361781987044,-0.05563524335735902,0.4507813115094711,-0.01057893119205627,-0.10887632091298684,0.9386215243610717,0.03150217579961528
1778795426113289984,1.791133165359497,-0.4389057159423828,0.4297957718372345,0.42224153876304626,0.8049502372741699,0.10766524821519852,-0.5834923982620239,0.07180452346801758,0.04716566950082779,-0.020938754081726074,0.889766232629257,-0.056481809372206884,0.45283947635920163,-0.00789908566067908,-0.10787434744990944,0.9435667159404888,0.03732327358686589
1778795426123325184,1.8011682033538818,-0.43927082419395447,0.40729790925979614,0.4309777617454529,0.8078372478485107,0.10684861242771149,-0.5796398520469666,0.07579916715621948,0.010537244379520416,-0.03617435693740845,0.888703537894809,-0.0575104486609484,0.45483252774810906,-0.00508883184292689,-0.10705297096141576,0.9484081095406744,0.04353320448995658
1778795426133360128,1.8112032413482666,-0.30355215072631836,0.3965347707271576,0.4625604748725891,0.8106622099876404,0.105446457862854,-0.5759407877922058,0.07736879587173462,0.023032553493976593,-0.06131201982498169,0.887673805027443,-0.058185915939125865,0.4567756717827676,-0.0023493232971549894,-0.10564284756970752,0.953086554931624,0.04927952246838601
1778795426143394048,1.8212370872497559,-0.14705388247966766,0.3919653296470642,0.48270195722579956,0.8134214282035828,0.10285294055938721,-0.5725092887878418,0.07567769289016724,0.053000323474407196,-0.07116740942001343,0.8867099643116767,-0.0580880989998658,0.458662339984705,0.0001762225301155546,-0.10303515004320556,0.9575054421465423,0.05391004214028787
1778795426153428992,1.8312721252441406,-0.14578194916248322,0.3798893392086029,0.4659775495529175,0.8161196708679199,0.09971241652965546,-0.5692154169082642,0.07342201471328735,0.05990977585315704,-0.06068265438079834,0.8857774129225521,-0.0575714768946938,0.4605190797250224,0.0024739561623086277,-0.09987839627242262,0.9617733127726611,0.05772787257347105
1778795426163464192,1.8413071632385254,-0.2104048877954483,0.34579503536224365,0.45119357109069824,0.8186224102973938,0.09697136282920837,-0.5660864114761353,0.061779141426086426,0.047056347131729126,-0.03640681505203247,0.8848840490980872,-0.05731851043997619,0.46224601669151216,0.004834120525155874,-0.0971239895166206,0.9657904226850128,0.06187668394541345
1778795426173498112,1.8513412475585938,-0.4018281102180481,0.3046163022518158,0.4021666347980499,0.8208829164505005,0.09514331817626953,-0.5631153583526611,0.053842365741729736,0.03136730194091797,-0.006556212902069092,0.8840271819191092,-0.05765160698038259,0.463808794854508,0.007317513727092474,-0.09528745229936036,0.9695367765970401,0.06676867092949017
1778795426183533312,1.8613762855529785,-0.5627357363700867,0.3046621084213257,0.322738915681839,0.8229444622993469,0.09489288181066513,-0.56014084815979,0.045051753520965576,0.047349557280540466,-0.004678487777709961,0.8831597868436785,-0.058972100046651856,0.46524387743403245,0.009963261371613144,-0.0950358751001804,0.9731722604708873,0.07286408723438244
1778795426193566976,1.8714101314544678,-0.8079873323440552,0.2899220287799835,0.2634982168674469,0.824898362159729,0.09627886861562729,-0.5570216774940491,0.039023756980895996,0.057590752840042114,-0.017654836177825928,0.8822406068128839,-0.06130550652062798,0.46661632615944887,0.012744457906810927,-0.0964282389722066,0.9768673842388245,0.08015744845032148
1778795426203602176,1.8814451694488525,-0.9348432421684265,0.2546761631965637,0.21001502871513367,0.8266451358795166,0.09929699450731277,-0.5538934469223022,0.0251462459564209,0.049766115844249725,-0.021973252296447754,0.8813044544271481,-0.06471641057701105,0.4678301559028225,0.015788561470194012,-0.09946089604432205,0.98045517667387,0.0889378037594863
1778795426213637120,1.8914802074432373,-0.8444721102714539,0.24272829294204712,0.2278989553451538,0.8282449245452881,0.102515310049057,-0.5509092211723328,0.026155710220336914,0.043679140508174896,-0.044992268085479736,0.8803985992307577,-0.06822733336122866,0.46892475122405386,0.018786799367859663,-0.10269572373406884,0.983842701394472,0.0977363544279528
1778795426223671296,1.9015142917633057,-0.5419268608093262,0.27055060863494873,0.27856212854385376,0.8299310207366943,0.10429882258176804,-0.5480294823646545,0.03513544797897339,0.06528735160827637,-0.07834386825561523,0.8795191853119224,-0.07076662213143883,0.4700822836765091,0.021466861506613005,-0.1044888508466062,0.9871925676847902,0.10505839108802449
1778795426233705984,1.9115490913391113,-0.2423417866230011,0.290892094373703,0.3248465359210968,0.8317828178405762,0.10382333397865295,-0.5453054904937744,0.024219930171966553,0.09318289160728455,-0.07000517845153809,0.8786900792825124,-0.0717333586419088,0.47138264063237667,0.02358959183950963,-0.10401076715303757,0.9905039907034667,0.10989739803071155
1778795426243740928,1.921584129333496,-0.079105444252491,0.2938271760940552,0.34001296758651733,0.833733856678009,0.10181676596403122,-0.542698085308075,0.024130523204803467,0.07118739187717438,-0.01932889223098755,0.8778998848778523,-0.07162183791860681,0.47278035624941267,0.025314969654082496,-0.10199350806036939,0.9937712118691113,0.11299710276445862
1778795426253775104,1.9316182136535645,-0.14509938657283783,0.26733842492103577,0.3406960666179657,0.8356096148490906,0.09955260157585144,-0.5402276515960693,0.029014408588409424,0.028331302106380463,0.007100820541381836,0.8771468496230684,-0.07132466378844429,0.47412970763304313,0.026967098079338263,-0.09971778103466163,0.9968804180432695,0.1157748086032129
1778795426263810048,1.9416532516479492,-0.3294132947921753,0.24793651700019836,0.32211068272590637,0.8373196125030518,0.09798035770654678,-0.5378621816635132,0.04140353202819824,0.0014764294028282166,0.01685088872909546,0.8764108125488772,-0.07157292547355992,0.4753380052472616,0.02889966231401466,-0.09813780804635333,0.9998093639530005,0.11955713364420074
1778795426273845248,1.951688289642334,-0.5491877198219299,0.24927487969398499,0.26390329003334045,0.8389503359794617,0.09787491708993912,-0.5353342890739441,0.048973798751831055,-0.019292160868644714,0.010218322277069092,0.875613331272639,-0.07282298204876259,0.4764763138695736,0.031118683241667097,-0.09803185978468779,1.0028321461611003,0.12481425239149471
1778795426283879168,1.9617221355438232,-0.7048518657684326,0.22095748782157898,0.2281372994184494,0.8404414653778076,0.09925312548875809,-0.532735288143158,0.04545325040817261,-0.031137898564338684,0.005284786224365234,0.8747771015164172,-0.07510004196147468,0.4774854345988013,0.03365386948390659,-0.09941681587436489,1.0058400440422535,0.13162542884341782
1778795426293914112,1.971757173538208,-0.6023012399673462,0.23940986394882202,0.20744428038597107,0.8418716192245483,0.10095159709453583,-0.5301517248153687,0.07228237390518188,-0.029494687914848328,0.026077687740325928,0.8739406058413094,-0.0775224319190951,0.4784500161124822,0.03610451082533657,-0.10112385589738163,1.0088029778943282,0.13843430836219645
1778795426303949056,1.9817922115325928,-0.374005526304245,0.28797098994255066,0.23492197692394257,0.8434998989105225,0.10175221413373947,-0.5274034142494202,0.08936136960983276,0.0013514161109924316,0.011992096900939941,0.8730671611425653,-0.07923022145616365,0.4796048968074774,0.03815056089468702,-0.10192862269722676,1.0120129086009169,0.14385411083685953
1778795426313983232,1.9918262958526611,-0.1283251941204071,0.3106127977371216,0.293487012386322,0.8453581929206848,0.10077016800642014,-0.5246093273162842,0.07883614301681519,0.027937710285186768,-0.01056218147277832,0.8721940854475168,-0.07970320204378165,0.4809810154382991,0.039776155846464586,-0.10094150249906106,1.015384356430593,0.14733626429064872
1778795426324017920,2.001861095428467,-0.012992741540074348,0.2943209111690521,0.32769373059272766,0.8472566604614258,0.09841020405292511,-0.5219881534576416,0.08087444305419922,-0.02791459858417511,-0.0171506404876709,0.8713782827326845,-0.07925421224886393,0.482415482236686,0.041158084353120135,-0.09856974417263616,1.0186283396761728,0.1494742837571881
1778795426334052096,2.011895179748535,-0.031316619366407394,0.282146692276001,0.35063686966896057,0.8490844368934631,0.09559338539838791,-0.5195358991622925,0.08318179845809937,-0.094052255153656,-0.007639944553375244,0.870606738207845,-0.07855442053596079,0.48379876723374593,0.04256586942469655,-0.09573957757082983,1.0216888858670061,0.1513936584547666
1778795426344087040,2.02193021774292,-0.11597637832164764,0.28405457735061646,0.36584270000457764,0.8509030938148499,0.09287510812282562,-0.5170474052429199,0.07350480556488037,-0.10636388510465622,0.0010867714881896973,0.8698105979816066,-0.07803891768316555,0.48516617813405377,0.04419418233126753,-0.09300915132500666,1.024774114093258,0.15387377718568013
1778795426354122240,2.0319652557373047,-0.2584104835987091,0.2917114198207855,0.36391618847846985,0.8527423143386841,0.09072437882423401,-0.5143924951553345,0.06588256359100342,-0.09113636612892151,0.018436133861541748,0.8689454132099107,-0.0780449956299685,0.4865313339027323,0.04615252593439584,-0.0908493026150961,1.028011445584793,0.15744705100479314
1778795426364155904,2.041999101638794,-0.31848740577697754,0.2981621026992798,0.34620988368988037,0.854591965675354,0.08921311050653458,-0.5115794539451599,0.07135707139968872,-0.06734726577997208,0.04446208477020264,0.8680190739475722,-0.07853540592159346,0.4878959657329281,0.04829651769456266,-0.08933187508913364,1.0313890653282722,0.16182666565133214
1778795426374191104,2.0520341396331787,-0.2724405527114868,0.30914074182510376,0.34982725977897644,0.8564395308494568,0.08775453269481659,-0.5087342262268066,0.07405668497085571,-0.04522830247879028,0.031302034854888916,0.8670777510299459,-0.07906042051921222,0.4892671423397633,0.050431066454523894,-0.08786755868546145,1.034792367378279,0.16622133449818716
1778795426384226048,2.0620691776275635,-0.2714730203151703,0.32046157121658325,0.34763413667678833,0.8583582639694214,0.08614447712898254,-0.5057670474052429,0.08510792255401611,-0.02448371797800064,0.00216597318649292,0.8661003576671982,-0.07946320597525289,0.4907158823967704,0.05247613457376579,-0.08625137874913497,1.038336511597194,0.17033962196465643
1778795426394260224,2.072103261947632,-0.24443794786930084,0.32642534375190735,0.35705241560935974,0.8602855205535889,0.08443275094032288,-0.5027722716331482,0.08777356147766113,-0.028524547815322876,-0.00030994415283203125,0.8651086019042628,-0.07982103528941983,0.4921813247144679,0.05452764857939781,-0.0845333896685338,1.0419078119435956,0.17442022795060488
1778795426404295168,2.0821382999420166,-0.15745458006858826,0.350846529006958,0.36718812584877014,0.8622959852218628,0.08229675889015198,-0.4996728003025055,0.09244644641876221,-0.028051763772964478,0.002343118190765381,0.8640880347054442,-0.0798847782555318,0.49374286804855594,0.056464820739314414,-0.08238993726831687,1.0456108096563377,0.17800542144602902
1778795426414330112,2.0921730995178223,-0.10251250118017197,0.3801253139972687,0.37903228402137756,0.8644344210624695,0.07968715578317642,-0.49638989567756653,0.08437222242355347,-0.007299460470676422,-0.007897824048995972,0.863019322348732,-0.07960517961003791,0.49544734747656405,0.058244797774864986,-0.07977173324801962,1.0495359630379266,0.18097170065019025
1778795426424364032,2.1022071838378906,-0.14243222773075104,0.39824917912483215,0.36864063143730164,0.8666703701019287,0.07699549943208694,-0.4929038882255554,0.07942026853561401,-0.017272599041461945,0.01611250638961792,0.8618888216944443,-0.07928150314328737,0.497254971216355,0.059997576204065046,-0.07707177574814413,1.053684776888778,0.18384529502255512
1778795426434399232,2.1122422218322754,-0.2009357511997223,0.3991723656654358,0.35208427906036377,0.8689077496528625,0.0747116357088089,-0.48930320143699646,0.06769198179244995,-0.049504123628139496,0.04632532596588135,0.860713049150126,-0.07926042273408268,0.4990653079390689,0.061844934755927054,-0.07478131719992716,1.0579326292792344,0.18718502959770889
1778795426444434176,2.12227725982666,-0.268647164106369,0.39705008268356323,0.34485486149787903,0.8711211681365967,0.07283163070678711,-0.4856373071670532,0.04826664924621582,-0.0555129200220108,0.06725656986236572,0.8595071577299254,-0.07952691637053737,0.5008560875162229,0.06376709468418033,-0.0728961753620039,1.062224376789721,0.1909417833234078
1778795426454468096,2.1323111057281494,-0.26133278012275696,0.4055921733379364,0.3469531834125519,0.8733141422271729,0.07110052555799484,-0.4819408655166626,0.03629273176193237,-0.032404229044914246,0.0620189905166626,0.8582807850608507,-0.07993145452798615,0.5026335965018828,0.06576036178102068,-0.07116057105261477,1.0665317363696012,0.19495711834909904
1778795426464503040,2.142346143722534,-0.25270307064056396,0.4274303615093231,0.3563578724861145,0.8755738139152527,0.06926241517066956,-0.4780934154987335,0.040441811084747314,-0.018816865980625153,0.03294879198074341,0.8570036399598779,-0.08029795576326235,0.5044854068947741,0.06776099139073748,-0.06931791657180028,1.0710028096679738,0.19894551309372568
1778795426474537216,2.1523802280426025,-0.2191602885723114,0.42834383249282837,0.3844355642795563,0.8778645992279053,0.06716857105493546,-0.4741751551628113,0.04132479429244995,-0.019576415419578552,0.027413100004196167,0.8556975987006601,-0.08054181458670093,0.5063846686525579,0.06977926771585663,-0.06721918124647505,1.0755499251222516,0.20283306224246322
1778795426484572160,2.1624152660369873,-0.137037992477417,0.44810792803764343,0.40405774116516113,0.8802013993263245,0.06452322751283646,-0.4701937139034271,0.05703914165496826,-0.023629680275917053,0.05387300252914429,0.8543703598726738,-0.08045264015227521,0.5083606126262623,0.0717497284714502,-0.06456808550844992,1.0801732194239364,0.20628635008997614
1778795426494606848,2.172450065612793,-0.07141290605068207,0.46436893939971924,0.4092141389846802,0.8826051354408264,0.061382174491882324,-0.4660906195640564,0.060098111629486084,-0.005138281732797623,0.047053754329681396,0.853014595978134,-0.07999972767896073,0.5104456228000331,0.07356287479944083,-0.061420787054942326,1.0849339059961054,0.20908286583122643
1778795426504641024,2.1824841499328613,-0.126766175031662,0.4732114374637604,0.4148949384689331,0.8850528001785278,0.058231599628925323,-0.4618339538574219,0.06531035900115967,0.0043141767382621765,0.06449508666992188,0.8516064171416152,-0.07956673303230694,0.5125935649841553,0.07538865909387794,-0.05826455792484364,1.089849306948113,0.21191314530060196
1778795426514675968,2.192519187927246,-0.4294253885746002,0.36988556385040283,0.35502147674560547,0.8872635364532471,0.055934347212314606,-0.4578588306903839,0.09044331312179565,-0.060618795454502106,0.1548803746700287,0.8502451747045062,-0.07981343969331979,0.5144904338028494,0.07754044559002785,-0.05596355662699656,1.0944033696705426,0.21599438062736345
1778795426524711168,2.202554225921631,-0.5731028914451599,0.26223528385162354,0.32795098423957825,0.888857901096344,0.055335454642772675,-0.4548291862010956,0.15063178539276123,-0.10036414861679077,0.13489815592765808,0.8491026003341949,-0.08132375377582983,0.5157245854269107,0.08024531934237894,-0.05536373212294605,1.0978320318483965,0.2223190314185504
1778795426534745088,2.21258807182312,-0.4401895999908447,0.24997089803218842,0.286356657743454,0.8901869058609009,0.05493153631687164,-0.45227187871932983,0.20460063219070435,0.03627024590969086,0.010194182395935059,0.8481055330740787,-0.08282202620911731,0.516724855283243,0.0827830339595375,-0.054959198212949666,1.10071840483443,0.22833048901037942
1778795426544780032,2.222623109817505,-0.2718602418899536,0.26532986760139465,0.21759118139743805,0.8914863467216492,0.05424576625227928,-0.44978830218315125,0.13948899507522583,0.1312553435564041,-0.08158379793167114,0.8471897830590205,-0.08374343017599076,0.5177768739091504,0.08463818600715682,-0.054272405408970034,1.1035253059350223,0.23256001629510706
1778795426554814976,2.2326581478118896,-0.2584078311920166,0.27319419384002686,0.16034068167209625,0.8927983045578003,0.053696949034929276,-0.44724488258361816,0.07701987028121948,0.12097041308879852,-0.07173711061477661,0.8463017591883413,-0.08445268174406247,0.5188885338211794,0.08599916186227136,-0.05372278640421676,1.1063911816635694,0.23571932242402655
1778795426564849152,2.242692232131958,-0.24870647490024567,0.320628821849823,0.12132403999567032,0.8941970467567444,0.05358774587512016,-0.44445469975471497,0.06556552648544312,0.08166615664958954,-0.013949811458587646,0.8453654518318283,-0.08527546842438163,0.520096854191284,0.08708966608857992,-0.05361342777079765,1.1095168188185538,0.2385435883564622
1778795426574884096,2.2527272701263428,-0.3922191560268402,0.39700639247894287,0.19630107283592224,0.895874559879303,0.05361245200037956,-0.4410604238510132,0.08068782091140747,0.010810166597366333,0.01770538091659546,0.8442235836245948,-0.08637161659255514,0.5215455244149143,0.08841170731100091,-0.05363816713363912,1.1133084791567396,0.2420740466125712
1778795426584919040,2.2627620697021484,-0.7505282759666443,0.42637374997138977,0.30991631746292114,0.8978580236434937,0.05380445718765259,-0.4369853138923645,0.12774622440338135,-0.10014539957046509,0.041157066822052,0.8427670978964079,-0.08826065287039102,0.5231800777118474,0.09075449975943015,-0.053830449887244364,1.1178471702113413,0.24821918012302435
1778795426594952960,2.272796154022217,-1.1311262845993042,0.40322622656822205,0.4330425262451172,0.8998774290084839,0.05457770451903343,-0.43271446228027344,0.14136701822280884,-0.23350226879119873,0.050664931535720825,0.8410736987216446,-0.09146740880052978,0.5246679731337254,0.09461599041288223,-0.054604835551942094,1.1225781645453985,0.25838440983230815
1778795426604988160,2.2828311920166016,-1.3019111156463623,0.407191663980484,0.5275871157646179,0.9018589854240417,0.05550765618681908,-0.4284497797489166,0.11507821083068848,-0.23208236694335938,0.08064091205596924,0.8392164314193761,-0.09555872761442727,0.5259692425167645,0.0997028398635772,-0.055536198135824645,1.1272876133517116,0.27160717895533953
1778795426615022080,2.29286527633667,-1.4041380882263184,0.5075433254241943,0.5928342938423157,0.9041120409965515,0.05624303221702576,-0.4235777258872986,0.04922652244567871,-0.07748325914144516,0.08551928400993347,0.8370638398467855,-0.10002161444013005,0.5274531455017011,0.10541781940802744,-0.05627272677748336,1.132663639469969,0.28634026357680764
1778795426625057024,2.3029000759124756,-1.6463046073913574,0.5223867297172546,0.6838281154632568,0.9066930413246155,0.05686861649155617,-0.4179397523403168,-0.014984667301177979,0.017670568078756332,0.08268895745277405,0.8345422247317084,-0.10498854968279564,0.52915737681472,0.11184398551277094,-0.05689931292741089,1.1388741453649494,0.3028803592626614
1778795426635091968,2.3129351139068604,-1.9279911518096924,0.35739603638648987,0.7428104877471924,0.9089701175689697,0.057794421911239624,-0.41283556818962097,-0.018009424209594727,-0.12647423148155212,0.06205129623413086,0.8319668581779543,-0.11083096366476096,0.5303760163954343,0.11936904400597416,-0.05782664374050507,1.1444721956560033,0.3222649628886631
1778795426645126144,2.3229691982269287,-1.8008575439453125,0.15171264111995697,0.6619491577148438,0.9104246497154236,0.059101495891809464,-0.409431129693985,0.07153940200805664,-0.17192497849464417,-0.03975707292556763,0.8297714768085663,-0.11699774559819769,0.5306561629081683,0.12725875898109654,-0.05913595580579977,1.1481798914287735,0.34261343120932525
1778795426655161088,2.3330042362213135,-1.1918604373931885,0.0858173668384552,0.39742380380630493,0.9111754298210144,0.0603644922375679,-0.40757259726524353,0.18197941780090332,0.1229851096868515,-0.19846075773239136,0.8282409467757242,-0.12189306061768711,0.5304298152829791,0.13342873161581495,-0.06040121325873195,1.1501865118268586,0.3586107942790219
1778795426665196288,2.3430392742156982,-0.42290809750556946,0.14402049779891968,0.09662135690450668,0.9117799401283264,0.061486199498176575,-0.40605035424232483,0.17604964971542358,0.5484381318092346,-0.39232003688812256,0.8272710044802677,-0.12472960109453061,0.5304878454017956,0.1365574798801077,-0.061525006247486386,1.1518259995623208,0.36714731181612514
1778795426675229952,2.3530731201171875,0.20925045013427734,0.23984502255916595,-0.09722374379634857,0.9125544428825378,0.061988770961761475,-0.4042298197746277,0.11073046922683716,0.6512680649757385,-0.3810942471027374,0.8267097045775227,-0.12528069634075464,0.5312154295468619,0.1366232574613376,-0.06202853868404116,1.1538079388072346,0.36793495328024517
1778795426685265152,2.3631081581115723,0.45272114872932434,0.2607521414756775,-0.08811254054307938,0.9135410785675049,0.061366815119981766,-0.40209054946899414,0.09112811088562012,0.37929174304008484,-0.22231435775756836,0.8263039281159276,-0.12422744848861542,0.5324680889505997,0.1351559330942715,-0.06140539667804169,1.1561679747782916,0.36433244281058974
1778795426695300096,2.373143196105957,0.17856016755104065,0.20383216440677643,-0.09343007206916809,0.9144065380096436,0.06088116019964218,-0.4001927077770233,0.09906697273254395,-0.06501629948616028,-0.0760340690612793,0.8259602893071991,-0.1232521233754821,0.5335846328337875,0.13373844429870485,-0.06091883393516895,1.1582575219804483,0.3608944225570153
1778795426705334272,2.3831772804260254,-0.06542212516069412,0.23018227517604828,-0.0644942969083786,0.9152012467384338,0.06144886091351509,-0.3982846140861511,0.08086192607879639,-0.265336811542511,0.0013882815837860107,0.8254743429243444,-0.12343857780049715,0.5344348460654257,0.1331704874244902,-0.06148759719693451,1.1603280766904809,0.36020220664755015
1778795426715368960,2.393212080001831,-0.08097365498542786,0.27419593930244446,-0.06266630440950394,0.9161713123321533,0.06236992031335831,-0.3959043323993683,0.04411005973815918,-0.0811077207326889,-0.013260126113891602,0.824776467088161,-0.12416056740079076,0.535380223425499,0.13302649530249364,-0.062410426228090114,1.162902745080201,0.3608481156893618
1778795426725403904,2.403247117996216,-0.029100337997078896,0.2984512150287628,-0.03355235978960991,0.9172776341438293,0.0630539208650589,-0.39322516322135925,0.023914992809295654,0.0658065527677536,-0.06385183334350586,0.8240005023954158,-0.12472566320141674,0.5364987676392489,0.13280002104225164,-0.06309577954692527,1.1658067604421323,0.3611904208350551
1778795426735438080,2.413281202316284,0.030821317806839943,0.313982218503952,-0.0273746270686388,0.9184762835502625,0.0633096992969513,-0.39037570357322693,0.0018727779388427734,0.06207175552845001,-0.06036892533302307,0.8231901751262071,-0.12498627530853078,0.5377644242283276,0.1324606465005015,-0.06335206971365892,1.1689042112996009,0.36100595514665607
1778795426745473024,2.423316240310669,0.05600390210747719,0.31013500690460205,-2.3162796424003318e-05,0.919675886631012,0.0632660984992981,-0.3875482678413391,-0.05703550577163696,0.04963368922472,-0.02535456418991089,0.8223914298033869,-0.12504417142885832,0.5390638436883286,0.13208492238754024,-0.06330837895350898,1.1719817733520677,0.3605311760514472
1778795426755508224,2.4333512783050537,0.10541300475597382,0.3085547089576721,0.008032101206481457,0.9208731055259705,0.06290598958730698,-0.3847540318965912,-0.02980560064315796,0.08304432034492493,-0.047878384590148926,0.8216060571608507,-0.12489423075074191,0.5403928312497903,0.13168357909447984,-0.06294755097294218,1.1750276531747355,0.35977668563426546
1778795426765542144,2.443385124206543,0.11650639772415161,0.30211547017097473,0.007081618066877127,0.9220495820045471,0.06241661310195923,-0.38200607895851135,0.008400797843933105,0.05641883611679077,-0.04598763585090637,0.8208419292989682,-0.12462705658241828,0.5417241472280785,0.1312306418172698,-0.0624572107478488,1.1780225840879757,0.3587999753002949
1778795426775577088,2.4534201622009277,0.14664246141910553,0.3119562268257141,0.00776338716968894,0.9232180714607239,0.06183584779500961,-0.3792688548564911,0.027435004711151123,0.04682198539376259,-0.0237157940864563,0.8200906517844211,-0.12425960604681523,0.5430700948506537,0.13071280838801722,-0.061875322755790274,1.1810043453556023,0.35759873918274787
1778795426785612032,2.4634552001953125,0.13572029769420624,0.34366196393966675,0.0006149306427687407,0.9244623780250549,0.061273880302906036,-0.37631741166114807,0.05878347158432007,0.07013480365276337,-0.02169281244277954,0.8192846304817525,-0.12387580146912465,0.5445145375247387,0.13012067663367782,-0.061312287282360524,1.1842132641541803,0.35625990599467705
1778795426795646208,2.473489284515381,0.04295867308974266,0.33125242590904236,0.0055127497762441635,0.9257361888885498,0.06089448928833008,-0.3732350170612335,0.0741417407989502,0.037845127284526825,-0.0004374384880065918,0.8184139713590776,-0.12371049189215087,0.5459653848607343,0.12967699352763704,-0.060932187722158755,1.1875546448745218,0.355424123094092
1778795426805680896,2.4835240840911865,-0.013989828526973724,0.3255567252635956,0.01472861971706152,0.9269554018974304,0.06079719588160515,-0.370212584733963,0.05951005220413208,-0.00633857399225235,0.0114174485206604,0.8175195880198197,-0.12387537853664249,0.5473103288812173,0.129491345434148,-0.060834711677888814,1.1908197661936004,0.35539814345638204
1778795426815715072,2.493558168411255,0.027904890477657318,0.34599941968917847,0.025697646662592888,0.9282065629959106,0.06059694290161133,-0.3670975863933563,0.023087382316589355,0.003230564296245575,-0.011411905288696289,0.8165910842096977,-0.12400987032854384,0.548700969868275,0.12933617211049941,-0.06063408941280821,1.1941828160483594,0.35539172396413465
1778795426825750016,2.5035932064056396,0.03731277212500572,0.35014063119888306,0.03984702005982399,0.929511547088623,0.06015215069055557,-0.3638540506362915,-0.016135811805725098,0.03672590106725693,-0.03702482581138611,0.8156238184223048,-0.12400573165373022,0.5501777455841133,0.12916907940747896,-0.0601884846576083,1.1976853283709998,0.3552096258577991
1778795426835786240,2.51362943649292,0.056597255170345306,0.33405354619026184,0.03676467761397362,0.9307724237442017,0.05962328240275383,-0.3607043921947479,-0.025178611278533936,0.0070728883147239685,-0.03365904092788696,0.8146846880493569,-0.12393860174278065,0.5516221756862639,0.12899996098521885,-0.059658666703421404,1.2010839401496358,0.35494782549248766
1778795426845820160,2.523663282394409,0.13154499232769012,0.34183475375175476,0.03570500761270523,0.9320069551467896,0.05893652141094208,-0.3576163053512573,-0.033966243267059326,-0.02457372099161148,-0.03450402617454529,0.813787952726139,-0.123663653593169,0.5530814972087007,0.1286749428812842,-0.058970695756586027,1.2044152487478677,0.35418201426462775
1778795426855855104,2.533698320388794,0.1371496170759201,0.3376706540584564,0.03174195811152458,0.9332624673843384,0.05811275169253349,-0.354463130235672,-0.04420912265777588,-0.022758133709430695,-0.04220438003540039,0.8128915288050859,-0.1232202050067157,0.554603659500962,0.1282145962492304,-0.05814551158619985,1.2078147003162347,0.35299545268661614
1778795426865890304,2.5437333583831787,0.09906163066625595,0.3106915056705475,0.04254666715860367,0.9344164133071899,0.05737340450286865,-0.35153117775917053,-0.03297299146652222,-0.06855808198451996,-0.03627091646194458,0.8120340404484717,-0.1229196083749885,0.5559902765021948,0.12793066232772188,-0.05740492662982652,1.2109705466454213,0.352260777362478
1778795426875924224,2.553767442703247,0.043288372457027435,0.28967583179473877,0.057866234332323074,0.9355035424232483,0.05661574751138687,-0.348751962184906,-0.041994571685791016,-0.10967057943344116,-0.020266592502593994,0.8111947832937688,-0.12271097123304445,0.5572845183138326,0.12782451845590295,-0.05664603823401173,1.2139593362740306,0.35192333702950124
1778795426885959424,2.563802480697632,-0.03729914501309395,0.2537612318992615,0.06527035683393478,0.9364848136901855,0.05604865029454231,-0.3462005853652954,-0.07849836349487305,-0.11461187899112701,0.02265322208404541,0.8103828230949373,-0.12277251956447431,0.5584143759468772,0.12798455479044116,-0.05607803866539617,1.216697075528627,0.3523360782815127
1778795426895994112,2.5738372802734375,-0.0684615895152092,0.24433058500289917,0.04785115271806717,0.9373839497566223,0.05569625273346901,-0.34381574392318726,-0.09491568803787231,-0.09091354161500931,0.07808399200439453,0.8095929820330628,-0.12306770434749903,0.5594161802330849,0.128324182906732,-0.05572508694769459,1.2192496890497788,0.35331499809223366
1778795426906028288,2.583871364593506,-0.15625029802322388,0.20955316722393036,0.016714537516236305,0.9381871819496155,0.055809326469898224,-0.34159931540489197,-0.08441215753555298,-0.03910095617175102,0.07989585399627686,0.8088441163289259,-0.12366713831718244,0.5602738453546324,0.1287277176289779,-0.05583833976064489,1.2216108501152538,0.35475178527554835
1778795426916063232,2.5939064025878906,-0.13335883617401123,0.2015526294708252,-0.006138846278190613,0.9388753771781921,0.05627076327800751,-0.3396272361278534,-0.03184717893600464,0.050601791590452194,0.1003846526145935,0.8081805836178197,-0.12440244916359673,0.5609905662796473,0.12906502708249507,-0.05630050101556123,1.2237026914925007,0.3562322004684752
1778795426926098432,2.6039414405822754,-0.15177007019519806,0.20902810990810394,-0.004755333997309208,0.9395828247070312,0.05678120627999306,-0.3375798165798187,0.03199005126953125,0.10021647810935974,0.09710127115249634,0.8074988674737381,-0.12515201994580935,0.5617357617599342,0.1293660052842985,-0.05681176147194152,1.2258721616105928,0.3576729065693519
1778795426936132096,2.6139752864837646,-0.23920883238315582,0.19477993249893188,-0.0028836640994995832,0.9402660727500916,0.05746728181838989,-0.33555498719215393,0.05254697799682617,0.0649234727025032,0.0804891288280487,0.8068016188796188,-0.1260997736907767,0.5624245262147111,0.12980205838409173,-0.05749895866880138,1.2280122746255493,0.3595721144165138
1778795426946167296,2.6240103244781494,-0.25363969802856445,0.20948991179466248,0.011550403200089931,0.9409319758415222,0.0582689568400383,-0.3335440456867218,0.05445981025695801,0.026737753301858902,0.03558573126792908,0.8060658682898157,-0.12729871628242753,0.5630479621050762,0.13049806755299304,-0.0583019821928633,1.230133647407358,0.3622003543348761
1778795426956202240,2.634045362472534,-0.2671685516834259,0.24408558011054993,0.023533562198281288,0.9417147040367126,0.05895199254155159,-0.331207275390625,0.02283918857574463,0.026878681033849716,-0.0235137939453125,0.8052251275343001,-0.1284793414473369,0.563816827592007,0.13121069650541128,-0.058986190759005984,1.232601943177981,0.36484711573231693
1778795426966236416,2.6440794467926025,-0.35718661546707153,0.23583084344863892,0.0530424527823925,0.9425331354141235,0.05963144451379776,-0.3287482261657715,-0.0015388727188110352,0.013931181281805038,-0.044893741607666016,0.8042987543843292,-0.1298719636027188,0.5645876016894972,0.13220293161644636,-0.05966684225309476,1.235197878569331,0.36821435689646587
1778795426976271360,2.6541144847869873,-0.38102269172668457,0.26109784841537476,0.07483110576868057,0.9433802366256714,0.06026503071188927,-0.3261928856372833,0.003625929355621338,0.02149156481027603,-0.039133042097091675,0.8032884225931901,-0.13147255077626804,0.5653481424623569,0.13350687420006044,-0.06030156809635055,1.2378945413468552,0.37235045945068956
1778795426986306304,2.664149284362793,-0.36234381794929504,0.29202860593795776,0.09400586783885956,0.9443321228027344,0.06069100648164749,-0.3233473002910614,0.00716012716293335,0.05056082084774971,-0.038087666034698486,0.8021889729181755,-0.13297032231718173,0.566255457924251,0.13478337611834285,-0.06072832793366191,1.2409005303886302,0.37633161918666996
1778795426996340224,2.6741833686828613,-0.32565876841545105,0.32055532932281494,0.10805404186248779,0.9453817009925842,0.06084025651216507,-0.32023704051971436,0.00984889268875122,0.04667317122220993,-0.018950611352920532,0.8010072750371445,-0.1343237568295367,0.5673082155620005,0.13603571497313963,-0.060877851830591224,1.244189164937809,0.38011197814148007
1778795427006375424,2.684218406677246,-0.3319518268108368,0.34286409616470337,0.1243366077542305,0.9465162754058838,0.06078415736556053,-0.31687891483306885,0.0044113993644714355,0.023917369544506073,-0.027374625205993652,0.7997453136668078,-0.13558841635424124,0.5684859907375462,0.13728415871050886,-0.060821651562590326,1.2477403541455119,0.3837898681472668
1778795427016410368,2.694253444671631,-0.35573410987854004,0.358622282743454,0.12711481750011444,0.9477044343948364,0.060660470277071,-0.3133312165737152,-0.009639978408813477,0.009987737983465195,-0.03882637619972229,0.7984075091840149,-0.1368938630990716,0.5697319270240082,0.13860352454413125,-0.06069773397502965,1.251488652824881,0.3876414500286899
1778795427026444288,2.70428729057312,-0.4212721288204193,0.3630857467651367,0.13875256478786469,0.9489181637763977,0.06058643013238907,-0.309650719165802,0.0016585588455200195,0.02628185600042343,-0.02395215630531311,0.7969957264763606,-0.1383682697111526,0.5709893700612592,0.14008265176786822,-0.060623556383924034,1.255371237272981,0.3919658748564385
1778795427036479232,2.714322328567505,-0.5768723487854004,0.3275097608566284,0.1555059850215912,0.9500795602798462,0.06072899326682091,-0.30604058504104614,-0.004110932350158691,0.007782958447933197,0.008646786212921143,0.7955316074174061,-0.14025255281759516,0.5721091923223517,0.14194989803278316,-0.060766384831341676,1.2591705763844112,0.397424849038017
1778795427046513408,2.7243564128875732,-0.7303058505058289,0.3095073401927948,0.17332519590854645,0.9511436223983765,0.06115342676639557,-0.30263179540634155,-7.861852645874023e-05,-0.018810294568538666,0.05731627345085144,0.7940212821860126,-0.14269949647840136,0.572992983946108,0.14438173805713647,-0.06119160911626492,1.2627481550067718,0.4044928079350581
1778795427056548352,2.734391450881958,-0.863751232624054,0.2933977246284485,0.1900429129600525,0.9521710276603699,0.061851825565099716,-0.2992399334907532,0.0072710514068603516,0.011039424687623978,0.07028186321258545,0.7924191965135859,-0.1456616079267591,0.5737270508467415,0.14728108379129878,-0.06189133020298567,1.2662986591329004,0.4129631361299756
1778795427066583296,2.7444264888763428,-1.0115724802017212,0.2712956368923187,0.22136834263801575,0.953139066696167,0.06269378215074539,-0.2959655523300171,-0.010801970958709717,0.017399601638317108,0.06030881404876709,0.7907424903818413,-0.14908464297347698,0.5742743192122425,0.15069569900055602,-0.06273492639618417,1.2697193636079496,0.42285011624768304
1778795427076617216,2.754460334777832,-1.069899082183838,0.3029429018497467,0.2513984143733978,0.9541282057762146,0.06352449208498001,-0.2925817668437958,0.0045967698097229,0.0286385640501976,0.030466288328170776,0.788926689777105,-0.1528539964426563,0.5747562777410137,0.15454959452930803,-0.06356729733022606,1.2732514196374063,0.43390078800778914
1778795427086652160,2.764495372772217,-1.0788623094558716,0.3559248745441437,0.2716834545135498,0.95525723695755,0.06413187086582184,-0.28873953223228455,0.0003700852394104004,0.04116903245449066,-0.016314178705215454,0.7869123291265763,-0.15668325348019574,0.5753960283577901,0.15855175206122216,-0.06417591387090257,1.2772640955662526,0.4453006045287143
1778795427096687360,2.7745304107666016,-1.058655858039856,0.380367249250412,0.2580763101577759,0.9564903974533081,0.06468705832958221,-0.2845025360584259,-0.0046929121017456055,0.04857892543077469,-0.05494445562362671,0.7847558375711022,-0.16053133559403585,0.5761756827525931,0.16251011101728893,-0.06473225518024246,1.2816859237158644,0.45668314752138084
1778795427106721280,2.78456449508667,-0.9410795569419861,0.33468523621559143,0.2620611786842346,0.957680881023407,0.06501123309135437,-0.28039395809173584,-0.006783723831176758,0.027151860296726227,-0.04982146620750427,0.782665999877321,-0.16406887260713054,0.5769613757048119,0.16622518639352984,-0.06505711390063953,1.2859724864017583,0.46729548806528826
1778795427116756224,2.7945992946624756,-0.824964702129364,0.3038076162338257,0.25607067346572876,0.9587453603744507,0.06501301378011703,-0.27673205733299255,-0.0024923086166381836,-0.014338582754135132,-0.015519499778747559,0.7807724926421944,-0.16710847775370805,0.5776752732843541,0.1695886966741791,-0.06505889769591756,1.2897940361295483,0.4767117328266725
1778795427126791168,2.8046343326568604,-0.6204501390457153,0.2987574636936188,0.23016397655010223,0.9597229361534119,0.0646481066942215,-0.2734088599681854,0.04192495346069336,0.0031772181391716003,0.0033893883228302,0.7790761539015351,-0.16953387154182845,0.578406292172188,0.17246655801995692,-0.06469322488021195,1.2932652841038215,0.4845639223622579
1778795427136825344,2.8146684169769287,-0.5280004143714905,0.33605530858039856,0.2216533124446869,0.9607404470443726,0.06401059776544571,-0.2699642479419708,0.08613467216491699,0.04112245887517929,-0.02242472767829895,0.7774609662027733,-0.17138492375204614,0.5793488487544739,0.17474754377168691,-0.06405439338607666,1.2968642495296432,0.4907285262949503
1778795427146860288,2.8247034549713135,-0.5718426704406738,0.3394937217235565,0.24506595730781555,0.961789071559906,0.06326638162136078,-0.26638147234916687,0.03988933563232422,-0.008243180811405182,-0.040671080350875854,0.7757935545676402,-0.17319803623416444,0.5803548132034032,0.17701710874733284,-0.0633086597538724,1.300604624869614,0.49683428917120875
1778795427156895488,2.8347384929656982,-0.5960569381713867,0.3564099967479706,0.27132391929626465,0.9628857374191284,0.06230456382036209,-0.26261982321739197,0.03601562976837158,0.025158822536468506,-0.06593239307403564,0.7740187599986197,-0.17504997525925406,0.5814186104585769,0.17945707538709946,-0.06234494291941311,1.304530154870571,0.5032760104633595
1778795427166929152,2.8447723388671875,-0.5970503091812134,0.37090742588043213,0.28730928897857666,0.9640164375305176,0.061158403754234314,-0.258712500333786,0.04872477054595947,0.09469485282897949,-0.03994777798652649,0.7721625365371283,-0.17690167327131415,0.5825371601555527,0.18199292606963727,-0.06119659481925761,1.3086049268775872,0.5098810884231385
1778795427176964352,2.8548073768615723,-0.6886926293373108,0.3503098785877228,0.295695036649704,0.9651351571083069,0.059942737221717834,-0.25479555130004883,0.0030501484870910645,0.046456802636384964,-0.005076855421066284,0.7702463423124969,-0.17886732162187555,0.5836169139780385,0.18471111685280484,-0.05997869167751522,1.3126853287809266,0.5169313984537266
1778795427186999296,2.864842414855957,-0.7931092977523804,0.2623717784881592,0.26206305623054504,0.9661020040512085,0.05911453440785408,-0.25130128860473633,-0.03693336248397827,-0.0028706230223178864,0.016071826219558716,0.7683737223373006,-0.1812623281154075,0.5843743049636445,0.1877562754430027,-0.05914901743898883,1.3163170059225675,0.5250550902003366
1778795427197033472,2.8748764991760254,-0.7775106430053711,0.17168407142162323,0.20310784876346588,0.9667526483535767,0.05886689946055412,-0.24884502589702606,-0.03337264060974121,-0.026029974222183228,0.07065287232398987,0.766811614269841,-0.18388285743760857,0.5846063501225539,0.19084647400389337,-0.05890095211658307,1.3188623781663995,0.5335193213113155
1778795427207068160,2.884911298751831,-0.808520495891571,0.0849640965461731,0.13859650492668152,0.9671877026557922,0.05921009182929993,-0.2470669150352478,-0.03696620464324951,-0.04280689358711243,0.0872921496629715,0.76550517183554,-0.18660484579824235,0.5845042102246535,0.1937401404942703,-0.059244744979095106,1.3206960072920004,0.5417842178327921
1778795427217103360,2.894946336746216,-0.8044037818908691,-0.01894312910735607,0.07532165944576263,0.967328667640686,0.06016209349036217,-0.24628424644470215,-0.034863948822021484,-0.09966710209846497,0.042762547731399536,0.7645282121732773,-0.18947609337388793,0.583914962792604,0.19656761676431536,-0.06019844437037027,1.3214906516766838,0.5501156098084159
1778795427227137280,2.904980421066284,-0.653872549533844,-0.028477512300014496,0.005950041115283966,0.9672820568084717,0.06161992624402046,-0.2461063414812088,0.032687366008758545,-0.008076842874288559,0.026486635208129883,0.7638647433976407,-0.19217301197709888,0.5831092179294239,0.19890651901463743,-0.0616589895597764,1.3216518714885572,0.5574174194614634
1778795427237172480,2.915015459060669,-0.4880809783935547,-0.008211520500481129,-0.011320025660097599,0.9672417044639587,0.06304142624139786,-0.24590469896793365,0.005521297454833984,0.06247735768556595,0.00467856228351593,0.7633738581892711,-0.194305426814606,0.5824886694945254,0.20053088681417588,-0.06308325938566385,1.3218377104136927,0.5628312325060552
1778795427247207424,2.9250504970550537,-0.3997170329093933,-0.05030864104628563,-0.018927346915006638,0.9671780467033386,0.06427770853042603,-0.24583551287651062,-0.022140145301818848,-0.028358526527881622,-0.011336088180541992,0.7630024214106964,-0.19607157249445833,0.581926266372908,0.20185414755924655,-0.06432205266478404,1.321889171588841,0.567279890608965
1778795427257241344,2.935084342956543,-0.2242615818977356,-0.03794584423303604,-0.04375093802809715,0.9670172929763794,0.06540092825889587,-0.24617132544517517,0.0074242353439331055,-0.03445611894130707,0.012544035911560059,0.762862032416674,-0.1974058163418151,0.5813306154306961,0.20279843210174323,-0.0654476428472567,1.321523341126606,0.5705402712825721
1778795427267276288,2.9451193809509277,-0.0194956474006176,0.00884056556969881,-0.057305626571178436,0.9669681787490845,0.06612007319927216,-0.24617215991020203,-0.04378092288970947,-0.045185014605522156,0.015215113759040833,0.7628213507902271,-0.19795522937339308,0.5811433984850981,0.20295238534408183,-0.06616834605913256,1.32151038083871,0.5715034972168748
1778795427277311232,2.9551544189453125,0.05519350245594978,0.025144170969724655,-0.12909671664237976,0.9669471383094788,0.06693464517593384,-0.24603433907032013,-0.10481035709381104,-0.15043076872825623,0.00906534492969513,0.7628824160146626,-0.19816543110840865,0.5811310435510338,0.2025525918963195,-0.06698472916585523,1.3216390383898693,0.5711265123028735
1778795427287345408,2.965188503265381,0.05313248187303543,0.04989505559206009,-0.20892657339572906,0.9669307470321655,0.0684443786740303,-0.24568316340446472,-0.009518086910247803,-0.0820857435464859,0.022325053811073303,0.7629932766972894,-0.1984873016780139,0.581172270713946,0.2016997281983063,-0.06849792772908607,1.3219761161819035,0.5701608962543588
1778795427297380096,2.9752233028411865,0.04327026382088661,0.05554229021072388,-0.24078090488910675,0.9669024348258972,0.07053178548812866,-0.24520374834537506,-0.03428530693054199,-0.026739060878753662,0.02518726885318756,0.7630991956622543,-0.19906967546550136,0.5811793119585826,0.20070228662852863,-0.07059039551941394,1.3224349400116593,0.5693020831596788
1778795427307415296,2.9852583408355713,0.13822287321090698,0.09560900926589966,-0.24083417654037476,0.9669108986854553,0.07265347987413406,-0.24455013871192932,-0.014320015907287598,-0.016989432275295258,-0.014299958944320679,0.7632197294339383,-0.1994918951774337,0.5813156726355562,0.19942591648091268,-0.07271754850404286,1.3230722524129304,0.567787840667875
1778795427317449216,2.9952924251556396,0.1870468705892563,0.1344892978668213,-0.22520434856414795,0.9670156836509705,0.07453621178865433,-0.24356727302074432,0.06353241205215454,0.049197301268577576,-0.04511374235153198,0.7632843796426928,-0.1996709862443274,0.5816767650906254,0.19794092894068566,-0.07460540054560093,1.3240535459314833,0.5656316924565487
1778795427327484416,3.0053274631500244,0.2752496898174286,0.18378281593322754,-0.1652672439813614,0.9672514200210571,0.07590183615684509,-0.24220578372478485,0.021731674671173096,0.021845974028110504,-0.03361213207244873,0.7632516631815259,-0.19951883807469623,0.5823137821128608,0.19634116655073036,-0.07597490455924655,1.3254353697878836,0.5628750654426745
1778795427337519360,3.015362501144409,0.30961352586746216,0.2220122367143631,-0.11840013414621353,0.9676467180252075,0.07652150094509125,-0.24042528867721558,-0.00934898853302002,0.049027830362319946,-0.039604008197784424,0.7630714595363456,-0.19901078254582497,0.5832512871507206,0.1947680218636575,-0.07659637428354917,1.327263909709871,0.5597179421721902
1778795427347553280,3.0253963470458984,0.3107698857784271,0.20110082626342773,-0.078492671251297,0.9680759906768799,0.07672376930713654,-0.23862576484680176,0.011782348155975342,0.052640244364738464,-0.01718781888484955,0.7628500447546036,-0.19834664725813778,0.5842480011691746,0.19332007222415998,-0.0767992388763966,1.3291193278246145,0.5565651344623329
1778795427357588224,3.035431385040283,0.40163454413414,0.2129303216934204,-0.05857648700475693,0.9685168862342834,0.07655873894691467,-0.23688367009162903,0.017521321773529053,0.00857003778219223,0.005758762359619141,0.7626356454652772,-0.1974742266773187,0.5852880453731816,0.19190809887678806,-0.07663372262280967,1.3309215938064842,0.5531999317563746
1778795427367623424,3.045466423034668,0.5700510144233704,0.23885512351989746,-0.07272079586982727,0.9690056443214417,0.07602479308843613,-0.23504988849163055,0.00494760274887085,0.03568480163812637,-0.001629173755645752,0.7624970463344256,-0.19605614538245095,0.5865467099905077,0.1900613079361109,-0.07609821923405195,1.3328245001204349,0.5484244004412208
1778795427377657344,3.0555005073547363,0.6495652794837952,0.2195982038974762,-0.09552597999572754,0.9694918990135193,0.07540097832679749,-0.23323871195316315,-0.004617571830749512,0.025612182915210724,0.0004963874816894531,0.7624739464832541,-0.19422090722620508,0.5879276165718073,0.187757623850051,-0.07547260837896912,1.3347046114051133,0.5423680298960228
1778795427387692288,3.065535306930542,0.6828808784484863,0.15918652713298798,-0.0747155100107193,0.9698646068572998,0.07469623535871506,-0.2319120168685913,-0.032273054122924805,-0.07046955078840256,0.01615273952484131,0.7626314875305955,-0.19215339258414293,0.5891698129581593,0.18533554882443956,-0.07476587056860841,1.3360855501997537,0.5358053187354962
1778795427397727232,3.0755703449249268,0.6992803812026978,0.16187937557697296,-0.013870001770555973,0.9701959490776062,0.07351968437433243,-0.23089934885501862,-0.003307640552520752,-0.056719765067100525,0.01091340184211731,0.7628575013781822,-0.18982446642864018,0.5903532825003852,0.18302460730136166,-0.07358607327455839,1.3371503879322535,0.5290765010728069
1778795427407761408,3.085604429244995,0.7272941470146179,0.18171806633472443,0.05495486781001091,0.9706062078475952,0.07168937474489212,-0.22974781692028046,0.016042232513427734,0.06032966077327728,0.008129209280014038,0.7630048140487995,-0.1871998712422801,0.5916775316823051,0.18082436890148548,-0.07175092215074763,1.338368752281444,0.522152450544316
1778795427417796352,3.09563946723938,0.7919445037841797,0.20347543060779572,0.14579476416110992,0.9711197018623352,0.06894581764936447,-0.2284141480922699,-0.016636669635772705,0.07972057163715363,0.0022025704383850098,0.7630294757628253,-0.18422794701603476,0.5931719741701192,0.1788662494590729,-0.06900055484510478,1.3397882203781284,0.5151789175464025
1778795427427831296,3.1056745052337646,0.7726365923881531,0.20875142514705658,0.1797575205564499,0.9717068672180176,0.0655297189950943,-0.22691738605499268,-0.010021746158599854,0.049704670906066895,-0.01127229630947113,0.7629618140220018,-0.1809743933546345,0.5948021312591107,0.17705332156759468,-0.0655767067237237,1.341383077438523,0.5080831646391482
1778795427437865216,3.115708351135254,0.7637373805046082,0.16083648800849915,0.1943710893392563,0.9722497463226318,0.06203823536634445,-0.2255701869726181,0.040460944175720215,0.030979346483945847,-0.01312306523323059,0.7629067550499443,-0.17774871980094883,0.596339078221279,0.17538106355478691,-0.06207809846559264,1.3428212001449042,0.5012491498103128
1778795427447900416,3.1257433891296387,0.8709290623664856,0.17348730564117432,0.20293261110782623,0.9727410674095154,0.05820833519101143,-0.2244696319103241,0.01064211130142212,0.024234913289546967,0.0010504722595214844,0.762945234807029,-0.1742080434651324,0.5978434111222597,0.17363581654699653,-0.05824125610445566,1.344006344070413,0.49388622857220116
1778795427457935360,3.1357784271240234,0.887323260307312,0.16348980367183685,0.16041338443756104,0.9732393026351929,0.054416850209236145,-0.22325842082500458,0.0009124279022216797,0.04375818744301796,0.005088239908218384,0.7630084726338261,-0.17047158922465266,0.5994249106692224,0.17160254860363364,-0.054443741428964874,1.3453004700227098,0.48581596817919415
1778795427467969280,3.1458122730255127,0.9465977549552917,0.12977737188339233,0.09851539880037308,0.9736254811286926,0.05111690238118172,-0.22235170006752014,0.006980478763580322,-0.011520333588123322,0.013764113187789917,0.7632243983465555,-0.16677156927848558,0.600842239121722,0.16930513950461495,-0.05113919011497844,1.346271865857697,0.47736808136427733
1778795427478004224,3.1558473110198975,1.0161703824996948,0.1520126461982727,0.03623870387673378,0.9739774465560913,0.048263806849718094,-0.22144655883312225,-0.01705300807952881,-0.035110726952552795,0.028468668460845947,0.7635413248329624,-0.16295057467121168,0.6022655788580792,0.16651722679022452,-0.04828256461612607,1.3472337658047384,0.46798661614389375
1778795427488039168,3.1658823490142822,0.9611756205558777,0.1310732662677765,-0.02808329463005066,0.974291980266571,0.04603029042482376,-0.22053679823875427,-0.03335869312286377,-0.036936044692993164,-0.010542362928390503,0.7638997343513084,-0.15930673024689207,0.6036165732396797,0.16347997686369092,-0.046046561229778606,1.3481916422760967,0.4584448444299866
1778795427498073344,3.1759164333343506,0.8744138479232788,0.1227041557431221,-0.07412215322256088,0.9745444059371948,0.04459262266755104,-0.21971525251865387,0.026752591133117676,-0.04375339671969414,-0.016551852226257324,0.7642708511680295,-0.15614894913339983,0.6047808529178383,0.1604610641678674,-0.0446074140239112,1.3490494937915494,0.44956689691491036
1778795427508108288,3.1859514713287354,0.7960987687110901,0.07182978838682175,-0.05458387732505798,0.9747419357299805,0.043397508561611176,-0.21907739341259003,0.03213977813720703,0.004270929843187332,0.01276332139968872,0.7646388006835252,-0.15330521348619566,0.6057712540888069,0.15769048120229287,-0.0434111416739946,1.3497158040033344,0.44149418741372853
1778795427518143232,3.195986270904541,0.7348596453666687,0.049295712262392044,-0.0239253006875515,0.9748514890670776,0.04210280254483223,-0.2188422679901123,0.014680981636047363,0.019771572202444077,0.021347776055336,0.7650652278979582,-0.1505834240251728,0.6065504915863148,0.15522984736990098,-0.04211525160382253,1.3499694507325046,0.43407100513998076
1778795427528177152,3.2060203552246094,0.6840912699699402,0.037812694907188416,0.016354212537407875,0.9749451875686646,0.04057301580905914,-0.2187134027481079,0.0286099910736084,0.05303966626524925,-0.007818549871444702,0.7654687737720618,-0.14789399716513643,0.6072649028665525,0.15301679417215897,-0.04058415594863449,1.3501158279641814,0.42708775557536865
1778795427538212352,3.216055393218994,0.6235153079032898,-0.014301903545856476,0.05187811702489853,0.9749988317489624,0.038799066096544266,-0.21879684925079346,0.013831734657287598,0.07068273425102234,0.007706761360168457,0.7658540671140218,-0.14534757047556832,0.607845094370578,0.15121532626637316,-0.03880880853532966,1.3500461025212747,0.42094488698482796
1778795427548247296,3.226090431213379,0.6719824075698853,-0.034868963062763214,0.06310494244098663,0.9749447107315063,0.0368136465549469,-0.21938039362430573,0.0010991096496582031,0.025976259261369705,0.008366614580154419,0.7663705445004939,-0.14271195705084322,0.6082294808263112,0.1495544354656706,-0.03682196751123479,1.3494644795984034,0.4149068742407648
1778795427558281216,3.236124277114868,0.6823074817657471,-0.03940286114811897,0.08034598082304001,0.9749016761779785,0.03460162505507469,-0.21993094682693481,0.020139217376708984,0.04831462353467941,0.014044106006622314,0.7668893402395572,-0.13986927201726776,0.608663385241932,0.14780491674723492,-0.03460853382704117,1.3489175779497125,0.40846871609768864
1778795427568316160,3.246159315109253,0.6236971616744995,-0.11914590001106262,0.08681772649288177,0.9747528433799744,0.03236020356416702,-0.22092942893505096,-0.00507199764251709,-0.01760495826601982,0.006741821765899658,0.7675066912611511,-0.1371289863653582,0.6088767731741046,0.14628134530474168,-0.03236585269678675,1.3479102824131517,0.40252012865772085
1778795427578351360,3.2561943531036377,0.8555083274841309,-0.06720799207687378,0.10216925293207169,0.9745561480522156,0.029856368899345398,-0.22214636206626892,0.050956547260284424,-0.013636285439133644,-0.02054464817047119,0.7682281791053477,-0.13404457351889898,0.6090639304000814,0.14456386215596756,-0.029860806564980486,1.3466794335033052,0.39582700602841936
1778795427588385280,3.266228437423706,0.9939479231834412,-0.020067647099494934,0.13931049406528473,0.9745030999183655,0.026582183316349983,-0.22279395163059235,0.05563300848007202,0.13827377557754517,-0.056594476103782654,0.7688757248209581,-0.1300580328862647,0.609662148024426,0.1422220040458251,-0.026585315188937676,1.346036022248904,0.38700690972794427
1778795427598420480,3.276263475418091,0.9522881507873535,-0.04406179487705231,0.17157548666000366,0.9744677543640137,0.022880885750055313,-0.2233584076166153,0.027439534664154053,0.08834043145179749,-0.0836179256439209,0.7694776183216719,-0.12586170086461582,0.6103110907241334,0.13994063018951386,-0.02288288330442252,1.3454777434741942,0.3780281671485392
1778795427608455168,3.2862982749938965,1.0581356287002563,-0.012153665535151958,0.20916707813739777,0.9744317531585693,0.018762273713946342,-0.22389943897724152,0.059793829917907715,0.04399711638689041,-0.08495375514030457,0.7700579780451713,-0.12143536494792842,0.6109858716934033,0.1376973482726742,-0.018763375427717232,1.344942249989993,0.3688295334214299
1778795427618489344,3.296332359313965,0.9611202478408813,-0.006961965933442116,0.2630673348903656,0.9744691848754883,0.014159479178488255,-0.22407498955726624,0.08485710620880127,0.13395757973194122,-0.11630281805992126,0.7705001776975637,-0.11680266861513447,0.6118166736079915,0.13552546217996553,-0.014159952110428344,1.3447795203842066,0.35949727512233076
1778795427628524288,3.3063673973083496,0.6935425996780396,-0.09893849492073059,0.2952550947666168,0.9743772149085999,0.009583160281181335,-0.22471584379673004,0.07507652044296265,0.07617123425006866,-0.09405553340911865,0.7709458238642651,-0.11277400719365421,0.6123104638238854,0.13416571303157857,-0.009583306508943451,1.3441343271368067,0.35222839072495116
1778795427638559232,3.3164024353027344,0.4853352904319763,-0.1453121155500412,0.34895187616348267,0.97411048412323,0.005088863894343376,-0.2260155826807022,0.08516991138458252,0.00905601680278778,-0.022946834564208984,0.771433318657489,-0.10949903354973357,0.6123742055216628,0.13378546999899033,-0.005088885844416233,1.3428078683933413,0.34747660761543575
1778795427648593152,3.3264362812042236,0.18494483828544617,-0.26020142436027527,0.34810206294059753,0.973685622215271,0.0009178144973702729,-0.22789351642131805,0.07572227716445923,0.060254666954278946,0.012286856770515442,0.7719536098917024,-0.10706694221200953,0.6120375084421965,0.1342921049284616,-0.0009178146023654289,1.3408825043054318,0.34520826420205525
1778795427658628352,3.3364713191986084,0.11799324303865433,-0.3661048114299774,0.28267166018486023,0.9729295969009399,-0.0024804926943033934,-0.23108907043933868,0.06062459945678711,-0.014273671433329582,0.0497078001499176,0.7727960741718131,-0.1054429786829292,0.6110132950295123,0.13539176158832153,0.0024804953292493423,1.3375987314788063,0.34491385192367935
1778795427668663296,3.346506357192993,0.1001599133014679,-0.40001538395881653,0.24295246601104736,0.972034215927124,-0.00531295919790864,-0.23477959632873535,0.03394734859466553,-0.012722935527563095,0.049064844846725464,0.7738231275227361,-0.10399642044053835,0.6097499039249344,0.13633674119690506,0.005312984055175694,1.333801121171777,0.34460978204639653
1778795427678697472,3.3565404415130615,-0.08510075509548187,-0.5234273076057434,0.18124569952487946,0.9709230065345764,-0.007421955931931734,-0.239277184009552,0.011208951473236084,-0.006783981807529926,-0.005534827709197998,0.7750791619988937,-0.10304015384134378,0.6080658972411079,0.1374444026035732,0.00742202393860556,1.3291682137670036,0.34519513803605273
1778795427688732416,3.3665754795074463,-0.13575807213783264,-0.5987572073936462,0.15484978258609772,0.9695430397987366,-0.008679093793034554,-0.24476762115955353,0.0019689202308654785,-0.1553528904914856,-0.012159913778305054,0.7766044149075826,-0.10270716988564915,0.6058608993889864,0.13881468276456377,0.00867920290945801,1.323506831717456,0.3469950692278609
1778795427698767104,3.376610279083252,-0.1321452409029007,-0.5805901885032654,0.17844565212726593,0.968058168888092,-0.009986049495637417,-0.250526487827301,-0.06466168165206909,-0.1514519453048706,-0.03520956635475159,0.7782008143242422,-0.10234674630920507,0.60354113137192,0.14023790840253558,0.009986215132021345,1.3175593572772069,0.34885765533568885
