time,seconds_elapsed,rotationRateX,rotationRateY,rotationRateZ,gravityX,gravityY,gravityZ,accelerationX,accelerationY,accelerationZ,quaternionW,quaternionX,quaternionY,quaternionZ,pitch,roll,yaw
1780494511543040256,0.07370424270629883,-0.0536637157201767,-0.016835909336805344,0.01393255963921547,-0.04221462830901146,-0.4754461348056793,-0.8787314295768738,-0.018011819571256638,0.004056364297866821,0.00991123914718628,0.9336058628124996,0.24211384000094283,0.044890673593699075,0.260280496248953,0.49547108043068233,-0.048003515806142705,0.555917509090131
1780494511553075200,0.08373904228210449,-0.09050135314464569,-0.033500902354717255,0.008982541970908642,-0.04227413982152939,-0.47446680068969727,-0.8792577385902405,0.0002666860818862915,-0.013432979583740234,0.008408129215240479,0.9337368716953475,0.24160163803815385,0.04471888959029289,0.26031588963044744,0.4943582010146118,-0.048042351876897794,0.5558965956696701
1780494511563110144,0.09377408027648926,-0.11065109819173813,-0.035772182047367096,0.009314637631177902,-0.042610861361026764,-0.47379857301712036,-0.8796017169952393,0.013268213719129562,-0.01638999581336975,0.006219208240509033,0.9338270833978867,0.2412950197849846,0.04445050967821184,0.2603224922639123,0.4935992665543224,-0.0484055170591238,0.5559318412325898
1780494511573145088,0.10380911827087402,-0.10953416675329208,-0.0279115941375494,0.023936457931995392,-0.04312219098210335,-0.4732010066509247,-0.8798984289169312,0.004715826362371445,-0.010487347841262817,0.014587759971618652,0.9338892238686101,0.24104797781315976,0.04412091634913505,0.26038444712543213,0.49292082701683326,-0.04896896800604594,0.5561448787290232
1780494511583179008,0.11384296417236328,-0.10830698162317276,-0.021681129932403564,0.03708528354763985,-0.043581943958997726,-0.47252902388572693,-0.8802368640899658,-7.344037294387817e-05,-0.011540800333023071,0.01729130744934082,0.9339420181230883,0.24075091777179208,0.04382437463755267,0.26051986952011547,0.4921581946904136,-0.049471214631422816,0.5564910421627364
1780494511593213952,0.12387800216674805,-0.11467912793159485,-0.0344773530960083,0.024334600195288658,-0.043706342577934265,-0.47167402505874634,-0.8806891441345215,0.005879804491996765,-0.021825730800628662,0.022183895111083984,0.9340327819963355,0.24031091448334194,0.04365881357788454,0.2606287511924665,0.49118829584422286,-0.0495867501856836,0.5566605989036421
1780494511603249152,0.1339130401611328,-0.1444239765405655,-0.04567940533161163,0.048159774392843246,-0.04412166401743889,-0.47052615880966187,-0.8812822699546814,0.01899043470621109,-0.022195398807525635,0.025874555110931396,0.9341571014619097,0.2397567705486109,0.043307764513412325,0.2607521227018367,0.4898869786512576,-0.05002353446174976,0.5569117077336665
1780494511613284096,0.14394807815551758,-0.12288672477006912,-0.026483608409762383,0.03668820858001709,-0.04478621482849121,-0.4692961871623993,-0.8819043636322021,0.018403764814138412,-0.009021073579788208,0.01657843589782715,0.9342678315941387,0.23919140947330678,0.04284031115188302,0.26095181384638044,0.488493582171638,-0.050739939781465376,0.5573885256163112
1780494511623319040,0.15398311614990234,-0.13683849573135376,-0.021666880697011948,0.0644223690032959,-0.04549965634942055,-0.4682912230491638,-0.8824019432067871,0.0016458891332149506,-0.0033121705055236816,0.01168966293334961,0.9343308324327213,0.23875002169439102,0.042396532278142544,0.2612029758719695,0.4873558370483392,-0.051517790428787735,0.5580151728220699
1780494511633353984,0.164017915725708,-0.13944120705127716,-0.0070961955934762955,0.06697740405797958,-0.04589017853140831,-0.46755844354629517,-0.8827701807022095,0.00269254669547081,0.003096163272857666,0.011127114295959473,0.9343474370056866,0.23840516736040174,0.04216503414545936,0.261495507220543,0.48652669922983854,-0.0519375349860589,0.558668141436687
1780494511643388928,0.17405295372009277,-0.15854458510875702,-0.01244701910763979,0.05962761119008064,-0.04596462473273277,-0.46675270795822144,-0.8831925988197327,0.007481958717107773,0.004487663507461548,0.001387178897857666,0.9343890057898463,0.23797877751232466,0.042069011532023026,0.26175079149854136,0.48561540076023757,-0.051996802549980035,0.5591413350897156
1780494511653424128,0.18408799171447754,-0.19984382390975952,-0.022240526974201202,0.06926345825195312,-0.046293050050735474,-0.4656181335449219,-0.8837741613388062,0.009549885988235474,-0.0028419196605682373,0.004547476768493652,0.9344663583316701,0.23741413124490748,0.04180263267948097,0.2620302315293024,0.4843329624005237,-0.052333260116414544,0.5597007163015064
1780494511663459072,0.1941230297088623,-0.22171583771705627,-0.02514536865055561,0.08020345866680145,-0.04681853950023651,-0.4642803370952606,-0.8844500184059143,0.00682525709271431,-0.01176336407661438,0.005055487155914307,0.9345556194084463,0.2367687767549266,0.041419153110862146,0.26235626920909294,0.4828218842038839,-0.05288584319647744,0.5603919980086292
1780494511673494016,0.20415806770324707,-0.22289694845676422,-0.02995157800614834,0.08044980466365814,-0.04727410152554512,-0.463164746761322,-0.8850104808807373,0.004534237086772919,-0.01040700078010559,0.004090070724487305,0.934612928677592,0.23623106231545649,0.0411052684753103,0.26268588758950995,0.4815627448563596,-0.05336571360299089,0.5610964215956719
1780494511683527936,0.21419191360473633,-0.22559019923210144,-0.023900074884295464,0.08017896115779877,-0.04748470336198807,-0.46207159757614136,-0.8855704665184021,0.002913784235715866,-0.004603207111358643,0.0038718581199645996,0.9346797908107188,0.2356722172197353,0.040906952582284356,0.2629807411775677,0.48032970691943055,-0.05356917050471288,0.5616588081008425
1780494511693562880,0.2242269515991211,-0.22697052359580994,-0.02291097678244114,0.08504961431026459,-0.04768279939889908,-0.4606015980243683,-0.8863252997398376,-0.0014657601714134216,-0.00036641955375671387,-0.0012021660804748535,0.934788302267028,0.23491200945600013,0.040665734885820926,0.2633124362357974,0.4786728393511227,-0.05374649526073616,0.5622521033498433
1780494511703598080,0.23426198959350586,-0.2559049725532532,-0.02060321718454361,0.09851988404989243,-0.04822968319058418,-0.4588335156440735,-0.887212336063385,-0.007632739841938019,4.750490188598633e-05,0.00531536340713501,0.9349054636502511,0.2340414829393414,0.04022961954023224,0.2637384274602841,0.4766819161904306,-0.05430747282366681,0.5631106557130521
1780494511713633024,0.24429702758789062,-0.31760135293006897,-0.028629980981349945,0.1109592393040657,-0.04882335290312767,-0.45653873682022095,-0.8883629441261292,-0.007161147892475128,-0.006657063961029053,0.01011282205581665,0.9350735170097985,0.23289906502111515,0.039705934662526594,0.2642331081522182,0.47410094651239504,-0.05490355640756548,0.5640666562751064
1780494511723668224,0.2543320655822754,-0.3758731782436371,-0.03552836924791336,0.12286809831857681,-0.049463286995887756,-0.45359164476394653,-0.8898359537124634,-0.004888527095317841,-0.014914214611053467,0.015232682228088379,0.9353120990303639,0.23142045891042423,0.039071696155977255,0.264781571292322,0.47079129894906036,-0.055529824175644865,0.5650731955295897
1780494511733703168,0.26436710357666016,-0.4281475841999054,-0.04462519660592079,0.14112167060375214,-0.050173718482255936,-0.45037153363227844,-0.8914303183555603,-0.0010042563080787659,-0.004920154809951782,0.010418415069580078,0.9355686224666702,0.2298094689760051,0.03837233358873825,0.2653798854799949,0.4671814361480515,-0.05622518556055171,0.5661730184244531
1780494511743738112,0.2744021415710449,-0.47147586941719055,-0.06139645352959633,0.1464858055114746,-0.05109245702624321,-0.44692885875701904,-0.8931092619895935,0.006841972470283508,0.01040545105934143,0.005993783473968506,0.9358302963081868,0.22811263429872014,0.03754997139873714,0.26603800338716066,0.4633292983319677,-0.05714511455943522,0.5674305282477612
1780494511753773056,0.2844369411468506,-0.5562847256660461,-0.08515238016843796,0.13827848434448242,-0.0522310808300972,-0.4428466558456421,-0.895074725151062,0.010086305439472198,0.01808774471282959,-0.008627057075500488,0.9361732627496963,0.2261177793312921,0.0365156837735067,0.2666776035343353,0.45877116185663275,-0.05828777903477445,0.5686314832817653
1780494511763808000,0.29447197914123535,-0.561670184135437,-0.11133258789777756,0.12963545322418213,-0.05371842905879021,-0.43763449788093567,-0.8975468873977661,0.01474747434258461,0.02631857991218567,-0.017110705375671387,0.9366578995794685,0.22358991284479138,0.03512998654059027,0.26729288649780075,0.45296618261882043,-0.059778966525227184,0.5697395238359804
1780494511773842944,0.3045070171356201,-0.4457063376903534,-0.10567150264978409,0.14272862672805786,-0.05530258268117905,-0.4329545795917511,-0.8997176885604858,0.013371434062719345,0.0415513813495636,-0.04510653018951416,0.9370625635524648,0.22135989841199255,0.03377781969799272,0.26790409012563915,0.4477679173138936,-0.06138935983683181,0.5709211502136458
1780494511783877120,0.3145411014556885,-0.3951009511947632,-0.0821271613240242,0.14321091771125793,-0.05677897110581398,-0.4291359484195709,-0.9014535546302795,0.0006266199052333832,0.08016744256019592,-0.02773040533065796,0.9373425964155072,0.21956624593265936,0.03261734890569937,0.2685436228530487,0.4435359498714444,-0.06290292227951813,0.5722295273486049
1780494511793912064,0.32457613945007324,-0.3774212896823883,-0.07914149016141891,0.17154189944267273,-0.05815670266747475,-0.42555472254753113,-0.9030619859695435,-0.006326943635940552,0.07414481043815613,-0.03307998180389404,0.9375691009457683,0.2178833756038357,0.031556763387310435,0.2692495310056012,0.4395748027289224,-0.06431064761475894,0.5736769061634327
1780494511803947008,0.3346109390258789,-0.47649967670440674,-0.10841695964336395,0.2136603146791458,-0.059853773564100266,-0.42163532972335815,-0.9047878980636597,0.004510153084993362,0.040425002574920654,-0.025982916355133057,0.9377763854171551,0.2160701778470968,0.030326864262086122,0.2701284621310656,0.4352480297639403,-0.06605602652401833,0.575531145143053
1780494511813981952,0.34464597702026367,-0.7108988165855408,-0.1415967494249344,0.22447249293327332,-0.06188759207725525,-0.41616201400756836,-0.907181978225708,0.015165179967880249,0.01563405990600586,-0.0017383098602294922,0.9381299106738122,0.2135048959817827,0.02871727778355047,0.2711147827313616,0.42922036582498607,-0.06811406780026684,0.5775121992023418
1780494511824017152,0.35468101501464844,-1.1000953912734985,-0.2014387845993042,0.2482832819223404,-0.06441334635019302,-0.40783825516700745,-0.9107792377471924,0.02281789481639862,-0.018675416707992554,0.017529785633087158,0.9387860329372636,0.20954986413474294,0.026442809144407612,0.2721586700905384,0.42008520447988706,-0.07060577083466511,0.5793975531447201
1780494511834052096,0.3647160530090332,-1.6586694717407227,-0.2720397114753723,0.32995548844337463,-0.06773882359266281,-0.39504238963127136,-0.9161620736122131,0.03151445835828781,-0.04856112599372864,0.06661373376846313,0.9398505873824751,0.2034287232487022,0.0231455236361654,0.2734262094736748,0.4061139999108876,-0.07380330275146887,0.5814235548528269
1780494511844087040,0.37475109100341797,-2.2295496463775635,-0.30631259083747864,0.4506954848766327,-0.07191623747348785,-0.3768480122089386,-0.9234790802001953,0.042222633957862854,-0.1009351909160614,0.11168098449707031,0.9412853187925618,0.19470504239981337,0.018719010224667574,0.2751754615673277,0.38639107637948084,-0.07771847570102752,0.5840411893142753
1780494511854122240,0.38478612899780273,-2.8975868225097656,-0.29703518748283386,0.5319836735725403,-0.07657510042190552,-0.3526189923286438,-0.9326286315917969,0.04189187288284302,-0.1469689905643463,0.12266159057617188,0.9430643863617242,0.18305812565234428,0.01324463871490168,0.27738784239149067,0.3603684081584576,-0.08192298382431419,0.5870652792836188
1780494511864156928,0.3948209285736084,-3.5294294357299805,-0.3488266170024872,0.7180129289627075,-0.08165523409843445,-0.3218715786933899,-0.943255603313446,0.03947994112968445,-0.1660587191581726,0.14462584257125854,0.9450483828277714,0.16830720332431906,0.006700007597755449,0.2801986230163689,0.32770558798514426,-0.08635217319936354,0.5907550383304144
1780494511874191872,0.40485596656799316,-4.051773548126221,-0.4048994779586792,0.9646022319793701,-0.08782831579446793,-0.28493431210517883,-0.9545148611068726,0.056883491575717926,-0.19950172305107117,0.18821847438812256,0.9469083101777837,0.15080195527152887,-0.0011568434015213544,0.2839401653949628,0.28893788692908706,-0.09175519665747024,0.5960150743191207
1780494511884226048,0.4148900508880615,-4.526798725128174,-0.45041465759277344,1.1626527309417725,-0.09474269300699234,-0.24257563054561615,-0.9654951691627502,0.07145778089761734,-0.25747013092041016,0.21660906076431274,0.9483938383863545,0.13095992353727723,-0.010095809889081497,0.288611520401765,0.24501990470012433,-0.09781544618464805,0.6028767073397889
1780494511894261248,0.4249250888824463,-4.83645486831665,-0.5661635994911194,1.387807846069336,-0.10256770253181458,-0.19561149179935455,-0.975303053855896,0.060010939836502075,-0.32013559341430664,0.219565749168396,0.9493050586107817,0.10927743954338173,-0.020172348567702367,0.2940601319104925,0.1968809424761742,-0.10477981291794201,0.6111372961703251
1780494511904296192,0.43496012687683105,-5.093904972076416,-0.4692772924900055,1.3321194648742676,-0.11012404412031174,-0.14535920321941376,-0.9832311272621155,0.039552152156829834,-0.36632901430130005,0.23716789484024048,0.9496249281704698,0.08624429279517958,-0.030763174025844334,0.2997131276252458,0.14587602543245748,-0.11153735803668038,0.61959330207697
1780494511914330880,0.4449949264526367,-5.457082271575928,-0.5588854551315308,1.407768964767456,-0.11674322187900543,-0.09179235994815826,-0.9889110922813416,0.03509344905614853,-0.38908836245536804,0.28926515579223633,0.9494284402751596,0.061722242392397896,-0.04165105393848417,0.3050264489498913,0.09192175429380706,-0.11750842692143654,0.627126705138757
1780494511924366080,0.4550299644470215,-6.003636360168457,-0.6290112733840942,1.593589186668396,-0.12364540994167328,-0.033032841980457306,-0.9917765259742737,0.05330239236354828,-0.3696160912513733,0.3532572388648987,0.9483536492395859,0.03501361307690853,-0.05371956879098205,0.31066644744887567,0.033038850630577134,-0.1240306840954606,0.6351881106053295
1780494511934401024,0.46506500244140625,-6.4506001472473145,-0.7126489281654358,1.7082244157791138,-0.13036659359931946,0.031079823151230812,-0.9909785985946655,0.05749063193798065,-0.38569408655166626,0.3356747031211853,0.946173418866655,0.0059614644790990075,-0.06689662231157902,0.3166152545999337,-0.031084829551883988,-0.13080227145764386,0.6437929435794302
1780494511944435968,0.475100040435791,-6.842277526855469,-0.5963097810745239,1.6373963356018066,-0.13589367270469666,0.09933196008205414,-0.9857312440872192,0.054869502782821655,-0.42387115955352783,0.27007877826690674,0.9429054789440091,-0.025118954416465476,-0.08064378325412803,0.3221721432727315,-0.09949603877712984,-0.1369972290371526,0.6516560588199087
1780494511954471168,0.4851350784301758,-7.3189849853515625,-0.521435558795929,1.530813455581665,-0.13913479447364807,0.1711157262325287,-0.9753773212432861,0.05986537039279938,-0.4338262677192688,0.28403210639953613,0.9386119436472578,-0.058299583747457084,-0.09440601523964942,0.32664416527340845,-0.1719619795071255,-0.14169124902220662,0.6575645437381229
1780494511964506112,0.49517011642456055,-7.908461093902588,-0.588867723941803,1.4881389141082764,-0.14133799076080322,0.2471286803483963,-0.9586192965507507,0.08983957767486572,-0.3900577425956726,0.35461539030075073,0.9329423913916435,-0.09389740361249521,-0.10896614523273394,0.33004258980767864,-0.2497158926071681,-0.14638448316615765,0.661645190534519
1780494511974541056,0.5052049160003662,-8.469822883605957,-0.6864513158798218,1.4163010120391846,-0.1431843340396881,0.32708480954170227,-0.9340844750404358,0.1315113604068756,-0.31356552243232727,0.4203515648841858,0.9255002171328888,-0.1319085277498387,-0.12473137337675362,0.33240265695507326,-0.3332170607299978,-0.15210445147910762,0.6639964328329195
1780494511984574976,0.5152390003204346,-9.112283706665039,-0.852370023727417,1.15244722366333,-0.14549624919891357,0.4096640348434448,-0.9005588293075562,0.14528264105319977,-0.20879733562469482,0.5018466711044312,0.9161327488159473,-0.17196864606495788,-0.1419414377817929,0.333136747549862,-0.42208574421676753,-0.1601780775239519,0.6631516446380332
1780494511994610176,0.5252740383148193,-9.193757057189941,-0.9565718173980713,0.9443715214729309,-0.14884966611862183,0.49232593178749084,-0.857589066028595,0.11805742979049683,-0.07580676674842834,0.5566094517707825,0.9048136233273961,-0.2132179511032401,-0.16044806149036342,0.33182365659595864,-0.5147599702525617,-0.17185548188709177,0.6576646088200113
1780494512004645120,0.5353090763092041,-9.174339294433594,-1.1494834423065186,0.8906302452087402,-0.152706578373909,0.5702990889549255,-0.8071181178092957,0.124264195561409,0.04664427042007446,0.45758503675460815,0.8917098779333134,-0.2535866696009386,-0.17926167001512805,0.32926065380628605,-0.6068699341405687,-0.1869895064556738,0.6487323359735954
1780494512014680064,0.5453441143035889,-9.11700439453125,-1.339217185974121,1.1377092599868774,-0.15646295249462128,0.6436225771903992,-0.7491790652275085,0.11503535509109497,0.12384867668151855,0.4418823719024658,0.8762418682330784,-0.29318840575345756,-0.1986228015630283,0.3267869322829121,-0.6992221825365923,-0.20588654604250176,0.6386349730980285
1780494512024715008,0.5553789138793945,-8.426488876342773,-1.1770890951156616,1.1647611856460571,-0.15764212608337402,0.7089159488677979,-0.6874496936798096,0.07428337633609772,0.06404846906661987,0.37955790758132935,0.8592359935077494,-0.33063960158553374,-0.21668547121282916,0.32471273714597243,-0.7879600101663683,-0.22541715307477908,0.6285978234349097
1780494512034749952,0.5654139518737793,-7.809150218963623,-1.021650791168213,0.9884963631629944,-0.15694651007652283,0.7639786601066589,-0.6258628964424133,0.0008948743343353271,-0.05059981346130371,0.36815720796585083,0.842111084888264,-0.3646031114489559,-0.23266526666729323,0.32214960215406135,-0.8694570094677057,-0.24570153716852675,0.6162015610015656
1780494512044784896,0.5754489898681641,-7.538010597229004,-0.7952793836593628,0.7568756341934204,-0.15543289482593536,0.8110496401786804,-0.5639495253562927,-0.01279526948928833,-0.02316206693649292,0.3810882568359375,0.8250326654193032,-0.3962230167391127,-0.24704765843607174,0.3182700975030983,-0.945944194924116,-0.26893778997849044,0.5981194233576552
1780494512054820096,0.5854840278625488,-7.62930154800415,-0.7958833575248718,0.6624242663383484,-0.15380096435546875,0.8525471687316895,-0.49950823187828064,-0.00661468505859375,0.08103126287460327,0.449917197227478,0.8073035152896537,-0.4268822025342617,-0.2608015779372789,0.3130735941837051,-1.0208396776336577,-0.29869300607889393,0.5717939809152778
1780494512064855040,0.5955190658569336,-7.631330966949463,-0.7803260684013367,0.687484860420227,-0.15164369344711304,0.8894036412239075,-0.4312371611595154,0.012758210301399231,0.1794440746307373,0.5094384551048279,0.788173215858726,-0.45723499214627483,-0.27444048060645376,0.30724854671053575,-1.0960388835156525,-0.3381422376109111,0.53576958933263
1780494512074890240,0.6055541038513184,-6.989283561706543,-0.6922846436500549,0.703693687915802,-0.14825016260147095,0.9197283983230591,-0.36348527669906616,0.014781549572944641,0.19584161043167114,0.36881059408187866,0.7687040885582385,-0.4857534456555713,-0.2868814186685678,0.30139124822163527,-1.1673880901148148,-0.38726159588597103,0.48973269339058634
1780494512084925184,0.6155891418457031,-6.3107523918151855,-0.6037580966949463,0.710427463054657,-0.14383342862129211,0.942834198474884,-0.3006252646446228,-0.016460135579109192,0.2082735300064087,0.2070431411266327,0.750116031314062,-0.5110272029473061,-0.2975542959770051,0.2960381219007112,-1.2310349745455273,-0.4462574694028736,0.43357470436322376
1780494512094959104,0.6256229877471924,-6.226371765136719,-0.5107139348983765,0.6866763234138489,-0.1386069804430008,0.9607372283935547,-0.2403581738471985,-0.04996113479137421,0.29336732625961304,0.14872916042804718,0.7319208134862947,-0.5344416299663233,-0.3069088787845616,0.2906388642806909,-1.2896470734957624,-0.5230872703050776,0.3586816100917678
1780494512104994048,0.6356580257415771,-6.2568583488464355,-0.4305570721626282,0.5175322890281677,-0.13374947011470795,0.974791944026947,-0.17858244478702545,-0.07988885045051575,0.3691563606262207,0.11435820162296295,0.7130634792837507,-0.5575022724814516,-0.31606960553413094,0.28430908534127963,-1.3457866190152923,-0.6428292848849411,0.24003054397463
1780494512115028992,0.6456930637359619,-5.467709541320801,-0.30688172578811646,0.3600987493991852,-0.12995721399784088,0.9841935634613037,-0.12030886113643646,-0.08279608190059662,0.3128950595855713,-0.033102989196777344,0.6951214099925035,-0.5784847037769426,-0.3243470626727159,0.27741785255004786,-1.3927610493129077,-0.8239314331624237,0.058863839927088914
1780494512125064192,0.6557281017303467,-5.132069110870361,-0.28685832023620605,0.1600673943758011,-0.12765470147132874,0.9894968867301941,-0.06782424449920654,-0.06607088446617126,0.28952527046203613,0.03474319726228714,0.678753768848885,-0.5966205498152186,-0.33186111245256883,0.27056498578592275,-1.4257339285137633,-1.0824154351100428,-0.19984377783047116
1780494512135099136,0.6657631397247314,-4.973312854766846,-0.3212125897407532,-0.13286460936069489,-0.12753987312316895,0.99168461561203,-0.017188310623168945,-0.05266641080379486,0.4354395270347595,0.16315388679504395,0.6628996790355329,-0.6133051871305963,-0.33950344935923055,0.2629796578631072,-1.4417465336577062,-1.4368353281474824,-0.5546927120278942
1780494512145134080,0.6757979393005371,-4.253823757171631,-0.43619880080223083,-0.6033413410186768,-0.1312035173177719,0.9909079074859619,0.02978060021996498,-0.08669199049472809,0.7092567086219788,-0.024791007861495018,0.6481844489863691,-0.6275378899024008,-0.3479748512219841,0.25488521760592225,-1.435845097713146,-1.7939947616279346,-0.9110776451426612
1780494512155169024,0.6858329772949219,-3.224865198135376,-0.5817834734916687,-0.837196946144104,-0.13828852772712708,0.9880930185317993,0.06744077056646347,-0.13229556381702423,1.0495045185089111,-0.2505462169647217,0.6363891171497412,-0.6375748992405061,-0.3566772096082287,0.24756500540481038,-1.4163252327986633,-2.0245407423513666,-1.1387852623929915
1780494512165203968,0.6958680152893066,-2.470306158065796,-0.4815489947795868,-0.9570522308349609,-0.14672933518886566,0.9844748973846436,0.09633083641529083,-0.10430826246738434,1.160254716873169,-0.19224762916564941,0.6273640998137948,-0.6442749657810865,-0.36479471633151317,0.24134795207454293,-1.3943567882596004,-2.1517418239927144,-1.2621339585480589
1780494512175239168,0.7059030532836914,-1.8697571754455566,-0.3882387578487396,-0.8973841071128845,-0.155537411570549,0.980722188949585,0.11828873306512833,-0.05616302788257599,0.7820494174957275,-0.05377459526062012,0.6206858708083504,-0.6487878841295729,-0.3717776850717225,0.2358065768785833,-1.3741236689939067,-2.220993940212401,-1.328212863591829
1780494512185274112,0.7159380912780762,-1.4123741388320923,-0.3885071873664856,-0.6290786266326904,-0.16259358823299408,0.9774221777915955,0.13494135439395905,-0.01775003969669342,0.21755456924438477,0.028815969824790955,0.6155325233586112,-0.651949799957174,-0.377401818554591,0.23162259221862624,-1.357895932749609,-2.2635229214809596,-1.36767145682002
1780494512195309056,0.7259731292724609,-1.3676460981369019,-0.19015255570411682,-0.35037723183631897,-0.16697879135608673,0.9746901392936707,0.14865075051784515,-0.026701003313064575,-0.1777237057685852,0.05493198335170746,0.611120263867467,-0.6548433440732762,-0.38145192255517907,0.22848763102219824,-1.345330921909774,-2.2981914186747194,-1.4002297873693907
1780494512205342976,0.7360069751739502,-1.7090884447097778,0.07867996394634247,-0.061253003776073456,-0.168891042470932,0.9719403386116028,0.1637313812971115,-0.05777826905250549,-0.3543103337287903,0.03153538703918457,0.6061818001555199,-0.6590610489988941,-0.3840627845297686,0.22511776703868738,-1.333343696431018,-2.340683672920379,-1.4432504792069671
1780494512215377920,0.746042013168335,-1.8339587450027466,0.34642699360847473,0.16248421370983124,-0.1686716228723526,0.9689255952835083,0.1809234619140625,-0.0562887042760849,-0.402351438999176,-0.0783538669347763,0.6005465840290518,-0.6648861911176985,-0.385211735120379,0.22109314639925742,-1.3208496422288585,-2.3912259342534035,-1.4976032476811436
1780494512225413120,0.7560770511627197,-1.710581660270691,0.38100719451904297,0.21478550136089325,-0.16750472784042358,0.9658904671669006,0.19747810065746307,-0.02521374821662903,-0.3813416361808777,-0.18966558575630188,0.5951340300000586,-0.6709982059588654,-0.3853575753015108,0.2169708363067756,-1.3088602658356427,-2.438133320158466,-1.5500568105546983
1780494512235448064,0.7661120891571045,-1.7091048955917358,0.283009797334671,-0.05809582397341728,-0.16705626249313354,0.9625430107116699,0.21354837715625763,0.05711670219898224,-0.17720377445220947,-0.1881578117609024,0.5898559498383147,-0.6767201163195035,-0.38577723434134964,0.21282781928095645,-1.2962305873460154,-2.477745623335542,-1.5947414669537487
1780494512245483264,0.7761471271514893,-1.5949347019195557,-0.01377234049141407,-0.6951860189437866,-0.17117998003959656,0.9582380652427673,0.2290787696838379,0.12038347125053406,0.22126621007919312,-0.21124126017093658,0.5849661016026579,-0.6809084628329225,-0.38846241352730926,0.20802701762758052,-1.280776104813736,-2.4998514375531613,-1.6191526837537407
1780494512255517952,0.7861819267272949,-1.5913742780685425,-0.5383203029632568,-0.6754922270774841,-0.1775674968957901,0.953131914138794,0.24496795237064362,0.1889810711145401,0.5754019618034363,-0.12834502756595612,0.5797136889318567,-0.6839352845483265,-0.393340185757551,0.2035878850508312,-1.2634240364985359,-2.5143761381018623,-1.6317519183451994
1780494512265552896,0.7962169647216797,-1.2163429260253906,-0.7625802755355835,-0.5660946369171143,-0.18146441876888275,0.948458194732666,0.25980302691459656,0.20566485822200775,0.5898260474205017,0.09235450625419617,0.5740270990367746,-0.6861425213211708,-0.3988858942500226,0.2014728717888658,-1.248334630406904,-2.5318948087145445,-1.6426966969306283
1780494512275588096,0.8062520027160645,-0.9678994417190552,-0.4995177388191223,-0.6905156373977661,-0.1856348067522049,0.944446861743927,0.271219402551651,0.0908472090959549,0.334056556224823,0.1550959348678589,0.5696451330098835,-0.6873418733742503,-0.4039441199540565,0.1997367038477411,-1.2359074566760333,-2.541382656652738,-1.6459198480634794
1780494512285623040,0.8162870407104492,-0.6946991086006165,-0.13750053942203522,-0.8338956832885742,-0.19205184280872345,0.9406420588493347,0.2798375189304352,0.006001412868499756,0.18696731328964233,0.2217952311038971,0.5668383281717194,-0.6878638357654457,-0.40836515345636343,0.1969155654260148,-1.224517191517919,-2.5401221579147184,-1.6411688992580318
1780494512295657984,0.826322078704834,-0.41977834701538086,0.0311417356133461,-0.7370421290397644,-0.1994670033454895,0.9375059008598328,0.28512394428253174,0.007145240902900696,0.13063985109329224,0.36168086528778076,0.5656346630105691,-0.6877576803722055,-0.4117661220517408,0.1936375190286324,-1.2153921035931232,-2.531148621826946,-1.6312183640907985
1780494512305691904,0.8363559246063232,0.019983340054750443,-0.055948153138160706,-0.5644240379333496,-0.20552313327789307,0.9355370998382568,0.2872822880744934,0.04114018380641937,0.11081933975219727,0.40317803621292114,0.5654627535377834,-0.6870691305311529,-0.4142187194018969,0.19133982930356597,-1.209776513083616,-2.5206025060288435,-1.6199339182901122
1780494512315727104,0.846390962600708,0.6466898918151855,-0.23289284110069275,-0.4323866069316864,-0.20975609123706818,0.9354298114776611,0.28455850481987,0.02909199893474579,0.05369073152542114,0.29594686627388,0.5667563922055489,-0.6850071416726827,-0.4159861393013014,0.19107064583514996,-1.20947300756613,-2.506380532833669,-1.6032918432028849
1780494512325762048,0.8564260005950928,0.873647928237915,-0.5152889490127563,-0.3895496726036072,-0.2125837206840515,0.9368271827697754,0.2777829170227051,-0.022416919469833374,0.00581514835357666,0.1328311264514923,0.5691089277377337,-0.6814319395010556,-0.41778221287987477,0.19293449815839084,-1.2134467294809668,-2.4883793244159627,-1.5797915336855775
1780494512335796992,0.8664610385894775,0.7500431537628174,-0.5447919964790344,-0.35243692994117737,-0.21446004509925842,0.9382609128952026,0.27142783999443054,-0.0943625420331955,0.03444093465805054,-0.1256149411201477,0.5710517062399507,-0.677884136544976,-0.4197463665937311,0.19541224035758994,-1.217568311887115,-2.472906370541598,-1.5575726503776015
1780494512345832192,0.8764960765838623,0.5134689807891846,-0.3408133387565613,-0.5923773646354675,-0.2174973487854004,0.9390853643417358,0.2661077082157135,-0.15207049250602722,-0.031843721866607666,-0.3067266047000885,0.5728006544886455,-0.6745427722190813,-0.42195485385351833,0.1970925296862484,-1.2199593371699653,-2.456374632053434,-1.5350198537094655
1780494512355867136,0.8865311145782471,-0.2153404951095581,-0.00010925903916358948,-0.8656437993049622,-0.22404685616493225,0.9378035664558411,0.26519280672073364,-0.13775423169136047,-0.16581577062606812,-0.1995801031589508,0.573639626601433,-0.6724091690190674,-0.42480856621769536,0.1958087484401018,-1.216248478761698,-2.4400988822911307,-1.5158967823367282
1780494512365901824,0.8965659141540527,-0.4707767963409424,0.04498804733157158,-0.8259525299072266,-0.2322956770658493,0.9348113536834717,0.2686382830142975,-0.011402413249015808,-0.2854735851287842,0.039665549993515015,0.5733123011633336,-0.6717053015955645,-0.42793823322688723,0.19233794036849297,-1.2077274755453347,-2.428617303984678,-1.5041933644460386
1780494512375937024,0.9066009521484375,-0.45284122228622437,-0.3243231475353241,-0.711665153503418,-0.2390442192554474,0.93174147605896,0.27334126830101013,0.10952766239643097,-0.297265887260437,0.1579025685787201,0.5721741039933814,-0.6712876179203372,-0.43132767918426806,0.1895944641497018,-1.1991795145882778,-2.4230308026998295,-1.4967763625853197
1780494512385971968,0.9166359901428223,-0.3096369206905365,-0.5782122611999512,-0.7639834880828857,-0.24451549351215363,0.9288871884346008,0.2781735956668854,0.1287165880203247,-0.11083310842514038,0.14698204398155212,0.5705066362970574,-0.6703941367130595,-0.43549799646925763,0.18824262113976467,-1.191396747697291,-2.420499838699066,-1.4889666622033249
1780494512396007168,0.926671028137207,0.023028133437037468,-0.5500626564025879,-0.8321207165718079,-0.2504214644432068,0.9264587163925171,0.2810039520263672,0.06875038146972656,0.15384823083877563,0.08119389414787292,0.5695056149538087,-0.6685239656568741,-0.43997463286269883,0.18751352974513633,-1.184892721580013,-2.4136790879110888,-1.4754630385342418
1780494512406042112,0.9367060661315918,0.5468141436576843,-0.6461362242698669,-0.8477768898010254,-0.2564607262611389,0.9251589775085449,0.27983710169792175,0.030432283878326416,0.3196682929992676,0.0033049583435058594,0.5699344017125877,-0.6653011290678761,-0.44417672771362937,0.18776644961424352,-1.1814542020408487,-2.3997553482767433,-1.4539906534557345
1780494512416076032,0.946739912033081,0.6164557933807373,-0.7789201140403748,-0.8420265913009644,-0.26237425208091736,0.924666166305542,0.2759573459625244,0.013457566499710083,0.29185616970062256,-0.12620756030082703,0.5712043793426479,-0.6609645416270691,-0.44844681811339915,0.18906864087929004,-1.1801578827686081,-2.3814210032466763,-1.4264912184361056
1780494512426110976,0.9567749500274658,0.35470113158226013,-0.9762346148490906,-0.7782127261161804,-0.26750266551971436,0.92380690574646,0.2739039361476898,0.002579599618911743,0.06545096635818481,-0.08120071887969971,0.5715594873531207,-0.656933412094974,-0.4532002368282756,0.19070360030106057,-1.1779074439726434,-2.368017343413056,-1.4024702275369723
1780494512436145920,0.9668099880218506,0.13255302608013153,-1.042896032333374,-0.740065336227417,-0.2716556787490845,0.9224745631217957,0.2743067741394043,-0.012981802225112915,-0.2431226372718811,-0.08650156855583191,0.5707759960689951,-0.6534837271817378,-0.4583801930557713,0.19251369334039178,-1.174442042562648,-2.361050235235472,-1.383737986378821
1780494512446181120,0.9768450260162354,-0.2669866681098938,-0.8902028203010559,-0.7188082337379456,-0.2757604718208313,0.9202520251274109,0.27765464782714844,-0.0681115984916687,-0.38587409257888794,-0.13857081532478333,0.5689997241293193,-0.6510532155335983,-0.46363459509365446,0.19342154796166497,-1.1687240701647235,-2.3596171923545,-1.3716015184663402
1780494512456216064,0.9868800640106201,-0.5814670920372009,-0.6415809988975525,-0.5262318849563599,-0.27934256196022034,0.9172772169113159,0.2838485538959503,-0.1396026909351349,-0.33304882049560547,-0.08409574627876282,0.5663596925357276,-0.650072027221756,-0.46832749035445065,0.1931640266861925,-1.1611888978219291,-2.364195140779264,-1.3680588765069372
1780494512466251008,0.9969151020050049,-0.5906366109848022,-0.13419383764266968,-0.5249796509742737,-0.28285226225852966,0.9141068458557129,0.29052236676216125,-0.16494736075401306,-0.14649826288223267,-0.07575491070747375,0.563939511566618,-0.6502053538639556,-0.47169289625014066,0.1916011988915953,-1.1532996345967987,-2.3695708248960172,-1.369566078160273
1780494512476286208,1.0069501399993896,-0.4437353312969208,0.20757947862148285,-0.6203218698501587,-0.2883424162864685,0.9109064340591431,0.2951410412788391,-0.1209898591041565,0.07656610012054443,0.008173108100891113,0.562931270364029,-0.6503723720818143,-0.4739053704761237,0.1885149879771279,-1.1454755464640582,-2.3678457418795698,-1.3683669032301715
1780494512486320896,1.0169849395751953,-0.1521490067243576,0.0609719380736351,-0.5860363841056824,-0.2943384051322937,0.908197283744812,0.29756128787994385,0.011608332395553589,0.296636700630188,0.08323705196380615,0.5628439127165754,-0.6499654028044015,-0.47573691552740127,0.18554284057381396,-1.13895663524815,-2.361639405718981,-1.3632670608945847
1780494512496356096,1.02701997756958,0.2494434267282486,-0.2585786283016205,-0.4585915803909302,-0.2988985478878021,0.9067843556404114,0.2973242402076721,0.14219075441360474,0.40792810916900635,0.08092594146728516,0.5633005695897283,-0.6484547592541383,-0.47766991714600254,0.18447311047769935,-1.135593099027044,-2.353554055777094,-1.3533531235253118
1780494512506391040,1.0370550155639648,0.4229995012283325,-0.6942713856697083,-0.2755000591278076,-0.3008267283439636,0.9067267775535583,0.29555055499076843,0.19062772393226624,0.3721734881401062,0.05378416180610657,0.5636457859934229,-0.6461408736198119,-0.479872122345366,0.18581788506290578,-1.13545655573669,-2.34734768202568,-1.341271295161507
1780494512516425984,1.0470900535583496,0.3210180103778839,-1.020145058631897,-0.1283835768699646,-0.3000902831554413,0.9072377681732178,0.2947295010089874,0.12493464350700378,0.19542336463928223,-0.014394998550415039,0.5629599146081281,-0.6437658594156255,-0.48262850550536973,0.1889745446060162,-1.1366697134041996,-2.3471823036292023,-1.331466352231354
1780494512526460160,1.057124137878418,0.26314777135849,-1.033581256866455,-0.027847377583384514,-0.2975643575191498,0.9078794121742249,0.2953149378299713,-0.017819583415985107,-0.031078636646270752,-0.07567983865737915,0.5613689005258685,-0.6417859248213051,-0.485559780755201,0.1928929560312012,-1.138197820841245,-2.352400474440562,-1.3255038600667797
1780494512536494848,1.0671589374542236,0.17528025805950165,-0.6071340441703796,-0.02764764055609703,-0.29531800746917725,0.9084532260894775,0.2958037257194519,-0.16568046808242798,-0.1908782720565796,-0.1654478907585144,0.5600507704840836,-0.6402742197797063,-0.48780200105379234,0.19606424563008315,-1.1395684603374638,-2.357016195896484,-1.3212803129822452
1780494512546530048,1.0771939754486084,0.025909140706062317,-0.09239085018634796,0.033534225076436996,-0.2942655086517334,0.9087489247322083,0.2959443926811218,-0.2564546763896942,-0.19459187984466553,-0.11332717537879944,0.5595061326817944,-0.6396544276703742,-0.4886864117398088,0.19743517302095115,-1.1402764913877368,-2.359039009899216,-1.3196319194666002
1780494512556564992,1.0872290134429932,0.08627688139677048,0.3687216341495514,0.05250046029686928,-0.29428401589393616,0.9089947938919067,0.2951700985431671,-0.23948365449905396,-0.04549992084503174,0.0015523433685302734,0.5599484466918929,-0.6398263007515067,-0.48806490969655075,0.19716159422317212,-1.140866013636065,-2.3576976988923644,-1.3198567528268523
1780494512566600192,1.097264051437378,0.24621142446994781,0.41165244579315186,0.03741578385233879,-0.2951032221317291,0.9096267223358154,0.2923929989337921,-0.13104426860809326,0.10431993007659912,-0.003833979368209839,0.5614732394211265,-0.6398874094137361,-0.4865599708728845,0.19634516020650136,-1.142384591527912,-2.3515813694041476,-1.3177962285811846
1780494512576635136,1.1072990894317627,0.3125233054161072,0.14449745416641235,0.012446781620383263,-0.2956976890563965,0.9105156660079956,0.2890050709247589,0.01250988245010376,0.16066646575927734,-0.08150079846382141,0.5630347088413049,-0.6394419039510296,-0.48540353341802406,0.1961869942584049,-1.1445295721501556,-2.344748787644128,-1.313415193516033
1780494512586670080,1.1173341274261475,0.321609228849411,-0.1879461258649826,0.03432917967438698,-0.29548901319503784,0.9115011692047119,0.2860981225967407,0.09880316257476807,0.07835185527801514,-0.032985299825668335,0.564011530373009,-0.6385484552131344,-0.4850823994938293,0.19708381693447685,-1.1469192536073174,-2.340048920722345,-1.3080503959083967
1780494512596705280,1.1273691654205322,0.2835252285003662,-0.32538124918937683,0.11383306235074997,-0.29399600625038147,0.9125446677207947,0.2843034863471985,0.08115121722221375,-0.05384117364883423,0.0446607768535614,0.5641670683245421,-0.6376306451818976,-0.48536470482526706,0.1989063316736215,-1.1494634854662986,-2.339435630902737,-1.3042454506363004
1780494512606739968,1.137403964996338,0.26789674162864685,-0.1524505913257599,0.08439500629901886,-0.29230111837387085,0.9136938452720642,0.28235384821891785,0.004383057355880737,-0.12156432867050171,0.018686741590499878,0.5643911766960625,-0.6368209344209651,-0.48542354499805496,0.2007129578511773,-1.1522822286567214,-2.338886242175624,-1.3009334668666606
1780494512616774912,1.1474390029907227,0.02760743908584118,0.056965213268995285,-0.0007883295184001327,-0.29179200530052185,0.9141924977302551,0.28126391768455505,-0.06286802887916565,-0.0853046178817749,-0.003889709711074829,0.5646589883616285,-0.6364848440030951,-0.4853029956310045,0.20131618152090353,-1.1535108946849422,-2.337824715975545,-1.2992170739821043
1780494512626810112,1.1574740409851074,0.004048317205160856,0.2077414095401764,-0.03945156931877136,-0.2923794090747833,0.9141596555709839,0.28076040744781494,-0.05298799276351929,-0.027257800102233887,-0.02027761936187744,0.5650536766955921,-0.6365467611707578,-0.4849622860505909,0.20083366757546195,-1.1534300111275526,-2.335924711512316,-1.2986778357197135
1780494512636844032,1.1675081253051758,-0.00017785304225981236,0.1149614080786705,-0.048069555312395096,-0.2932892441749573,0.9140288233757019,0.28023749589920044,0.017791777849197388,-0.039669573307037354,0.0006004869937896729,0.5655340576342125,-0.6366236713356384,-0.48459163771716174,0.20013149692038584,-1.1531073272158396,-2.3334414232295626,-1.2979409164657572
1780494512646879232,1.1775431632995605,-0.04110291600227356,-0.11817225068807602,-0.06481444835662842,-0.29377251863479614,0.9138175249099731,0.28041979670524597,0.07599911093711853,-0.040419697761535645,0.011297821998596191,0.5655206338656987,-0.6365452588539252,-0.48478864230529417,0.19994135180674683,-1.1525867729355446,-2.3329438710310884,-1.2973689687379493
1780494512656913920,1.1875779628753662,-0.021634675562381744,-0.2256515622138977,-0.09340214729309082,-0.2939544916152954,0.9134741425514221,0.2813463807106018,0.06623232364654541,-0.011435508728027344,0.005946069955825806,0.5650105778150746,-0.6362809444846644,-0.48561276223590255,0.20022459606831802,-1.1517420649253338,-2.334282311011429,-1.2967620610610038
1780494512666949120,1.197613000869751,0.037511467933654785,-0.18859395384788513,-0.12730978429317474,-0.2943737506866455,0.9131655097007751,0.28190940618515015,0.011002779006958008,-0.015185773372650146,0.007717609405517578,0.5646278832353716,-0.635779230717026,-0.48655881443193505,0.20060076088687176,-1.1509841210266016,-2.334569030110862,-1.294754404282592
1780494512676984064,1.2076480388641357,0.013653806410729885,-0.07455472648143768,-0.13757041096687317,-0.29517707228660583,0.9128563404083252,0.2820706367492676,-0.030155539512634277,-0.019164323806762695,0.013751506805419922,0.5645081873852535,-0.6352463019182826,-0.4873371009655816,0.20073670330071333,-1.1502263131540664,-2.3334933334277985,-1.292062513011663
1780494512687019008,1.2176830768585205,0.04829700291156769,0.07799313217401505,-0.20876096189022064,-0.2967933118343353,0.9124038815498352,0.28183847665786743,-0.028768211603164673,-0.014103710651397705,-0.018578648567199707,0.5647734058082631,-0.6347595297392121,-0.487852010143437,0.20027927878644017,-1.149119468630694,-2.3303550817015526,-1.2886927351220137
1780494512697054208,1.2277181148529053,0.06530369073152542,0.06999379396438599,-0.21410539746284485,-0.2990260422229767,0.9119405150413513,0.28097638487815857,0.017074137926101685,-0.03106600046157837,0.019438594579696655,0.565414908063966,-0.6341322329906196,-0.4882258742288311,0.1995438124667347,-1.1479887906604682,-2.3250845534135176,-1.283886056993188
1780494512707089152,1.23775315284729,-0.039513543248176575,-0.13342629373073578,-0.19412502646446228,-0.3009134531021118,0.9113453030586243,0.2808934152126312,0.07586157321929932,-0.005354583263397217,0.054830461740493774,0.5656242309935829,-0.6335370947746813,-0.4889554721258236,0.19905438632587272,-1.1465405199819392,-2.321797944464685,-1.280020517226912
1780494512717124096,1.2477879524230957,-0.02761746756732464,-0.30492669343948364,-0.19029806554317474,-0.30201455950737,0.9106405377388,0.281995564699173,0.07816809415817261,0.019657552242279053,0.0017417073249816895,0.5651093582156665,-0.6329630401936472,-0.49026071097894547,0.19913269648958254,-1.144831642104972,-2.3219293774058003,-1.2776315263867748
1780494512727159040,1.2578229904174805,0.0064486246556043625,-0.2298029065132141,-0.1725800633430481,-0.3026011288166046,0.9101049900054932,0.2830936312675476,0.015156030654907227,-0.0017795562744140625,-0.0029268860816955566,0.5644649012019106,-0.6323398610042145,-0.4916229358597398,0.1995814790697144,-1.143537334405046,-2.322900178133863,-1.2754159183625162
1780494512737193984,1.2678580284118652,0.08377803862094879,-0.14335644245147705,-0.12441572546958923,-0.30309075117111206,0.9098852872848511,0.2832753658294678,-0.04957041144371033,-0.0006139874458312988,-0.0032155215740203857,0.5642438851000303,-0.6317427585222534,-0.49248224614402003,0.19997810175205213,-1.14300751443851,-2.3224137738531003,-1.2727633737743074
1780494512747229184,1.27789306640625,0.11687420308589935,-0.024194888770580292,-0.15755850076675415,-0.3039831519126892,0.9097447991371155,0.2827695608139038,-0.0836205780506134,0.008468031883239746,-0.0993284285068512,0.5644135199736567,-0.6310882545631368,-0.4930642840878079,0.20013139909743669,-1.1426688993429723,-2.3200559882273266,-1.2691329421876478
1780494512757263104,1.2879271507263184,0.10134956985712051,0.09419061243534088,-0.11986757814884186,-0.3055473268032074,0.9095832109451294,0.2816011309623718,-0.10151132941246033,-0.0057288408279418945,-0.03761318325996399,0.565031980896842,-0.6304037183423037,-0.4933474537574058,0.19984563168448058,-1.1422798592389027,-2.3154331800309276,-1.2644654182996855
1780494512767298304,1.2979621887207031,0.02370457537472248,0.20690278708934784,-0.08740364760160446,-0.3069353699684143,0.9094321131706238,0.28057757019996643,-0.0754498839378357,0.008795976638793945,-0.001433253288269043,0.5657165160064919,-0.6301483777952163,-0.49315495809770027,0.1991883497925798,-1.1419164699350692,-2.3113612073054086,-1.2617690518939726
1780494512777332992,1.3079969882965088,0.026317935436964035,0.2002936154603958,-0.09814684092998505,-0.3083318769931793,0.9092029929161072,0.27978822588920593,-0.04353576898574829,-0.004829764366149902,-0.04352116584777832,0.5663636137854532,-0.6300721386656231,-0.49285211702697806,0.19833850690805205,-1.141365737097225,-2.3076988183445413,-1.2599646137217493
1780494512787367936,1.3180320262908936,0.002923131687566638,0.20069056749343872,-0.08467257767915726,-0.3093603551387787,0.9089646339416504,0.27942776679992676,-0.010723292827606201,-0.02482438087463379,-0.026177585124969482,0.5667901058324966,-0.6301527859337557,-0.49256608509477945,0.1975733723450504,-1.1407936013905713,-2.3054006064518116,-1.2593512357541947
1780494512797403136,1.3280670642852783,-0.0741191878914833,0.27122437953948975,-0.08508723229169846,-0.3104756474494934,0.9087153077125549,0.27900147438049316,0.006993532180786133,-0.01056748628616333,0.03432255983352661,0.5673028906698975,-0.6303272521009111,-0.4921262974379965,0.19663889036446885,-1.140195892863307,-2.302851780935587,-1.2590228467776357
1780494512807438080,1.338102102279663,-0.10938955843448639,0.1510540246963501,-0.07361672818660736,-0.3116895854473114,0.9082294702529907,0.27922922372817993,0.03217911720275879,0.018619894981384277,0.03357589244842529,0.5675978869572703,-0.6306796677467843,-0.49179036640301044,0.1954944527802504,-1.1390335094194795,-2.3013176011117804,-1.25981387402615
1780494512817473280,1.3481371402740479,-0.0719393864274025,-0.009246964007616043,-0.1101401150226593,-0.3129250705242157,0.9076428413391113,0.2797546088695526,0.03350609540939331,0.014278054237365723,-0.028930634260177612,0.5676233948082856,-0.6306987858090345,-0.49203286877261815,0.19474720937016923,-1.1376337685040792,-2.300285867748544,-1.2594483181355505
1780494512827508224,1.3581721782684326,-0.1410321742296219,0.012215849943459034,-0.07582688331604004,-0.31418827176094055,0.9071130752563477,0.2800568640232086,-0.014257192611694336,-0.005562722682952881,-0.006069988012313843,0.567675819653531,-0.6305065848314702,-0.49243261025810775,0.1942056745291884,-1.136373455160054,-2.298820958206552,-1.2580609226797217
1780494512837542912,1.3682069778442383,0.04313686490058899,0.21130551397800446,-0.06948377192020416,-0.3155723214149475,0.906678318977356,0.2799079418182373,-0.06063312292098999,-0.015839755535125732,0.029708117246627808,0.568020479973861,-0.630452920872985,-0.4924257140548596,0.19338751416890262,-1.135341573906382,-2.2963741300119986,-1.256860424811433
1780494512847578112,1.378242015838623,0.011086253449320793,0.2795376777648926,-0.07394056767225266,-0.31717461347579956,0.9064794778823853,0.2787380814552307,-0.06298279762268066,0.00697249174118042,-0.0025388598442077637,0.5688774825477818,-0.6303653507805186,-0.49194365791638905,0.19237789626277083,-1.1348704502773503,-2.291783421648248,-1.2546985511646211
1780494512857613056,1.3882770538330078,0.11679138243198395,0.2641163766384125,-0.09993408620357513,-0.31896594166755676,0.9063846468925476,0.276997447013855,-0.014652222394943237,0.03560143709182739,-0.02768409252166748,0.5699819751480643,-0.6301263615717456,-0.4913649335648751,0.19136826281881508,-1.1346459079059168,-2.2858893214063207,-1.2514241717021821
1780494512867647232,1.3983111381530762,0.06944943219423294,0.20047470927238464,-0.04652465879917145,-0.320361852645874,0.9064490795135498,0.27517014741897583,0.037799566984176636,0.010512709617614746,0.026602894067764282,0.5710250368573254,-0.6298439516327108,-0.4907969792718231,0.19064475207695378,-1.1347984335685186,-2.280455091215112,-1.2481607815353055
1780494512877682176,1.408346176147461,0.034138042479753494,-0.01883501000702381,-0.0100790336728096,-0.3207360804080963,0.9064208269119263,0.27482670545578003,0.0824701189994812,-0.00792229175567627,0.06223997473716736,0.5712657660207582,-0.6298459891796211,-0.4906193826193511,0.19037354847661797,-1.1347315223540473,-2.2792609148107683,-1.247705520662813
1780494512887717120,1.4183809757232666,0.05166750028729439,-0.12785497307777405,0.005959588102996349,-0.3202385902404785,0.9065501093864441,0.2749806344509125,0.06631708145141602,0.0017598867416381836,0.010801196098327637,0.5710498233569298,-0.6297453890068674,-0.4908269131887589,0.19081889929373738,-1.1350377018760112,-2.280304711678858,-1.2477005568069757
1780494512897752064,1.4284160137176514,0.06368768215179443,-0.04158825799822807,0.02832641266286373,-0.31960153579711914,0.9068911671638489,0.2745959460735321,3.680586814880371e-05,0.023375988006591797,0.0015117526054382324,0.5710115145765468,-0.6295281004294887,-0.4909097116579928,0.19143597965735548,-1.135846420900442,-2.280597027688477,-1.246928503528038
1780494512907787008,1.4384510517120361,-0.001892928732559085,0.006995389237999916,0.032802123576402664,-0.3193778991699219,0.9070578813552856,0.2743058204650879,-0.042179107666015625,0.017426371574401855,-0.004408359527587891,0.5710850106777927,-0.6294879421887958,-0.4908134554954795,0.19159582304996675,-1.1362422583291945,-2.2804205372790656,-1.2466958563745996
1780494512917822208,1.448486089706421,0.01654812879860401,0.009170393459498882,0.042559944093227386,-0.31940385699272156,0.9069713354110718,0.2745615541934967,-0.05039289593696594,-0.009327352046966553,-0.053187042474746704,0.5710007111130471,-0.6295657854706661,-0.49084386623443266,0.19151336826348947,-1.1360367825095556,-2.280840944725017,-1.2471771703251546
1780494512927857152,1.4585211277008057,-0.013167154975235462,0.09379193186759949,0.09093999117612839,-0.3193342685699463,0.907078742980957,0.2742875814437866,-0.05781722068786621,-0.012120306491851807,-0.007090955972671509,0.571155270623483,-0.6296696138134139,-0.4905710679940529,0.19141008955415148,-1.136291830737333,-2.2804551828535753,-1.2474498349720418
1780494512937892096,1.4685561656951904,0.03391673415899277,0.19269800186157227,0.10971075296401978,-0.3187922239303589,0.9075010418891907,0.27352067828178406,-0.05481922626495361,0.0251162052154541,0.030586957931518555,0.571527021764081,-0.6299911973189406,-0.48976670730266586,0.19130234824608114,-1.1372960659837095,-2.279910986012985,-1.2485500230185604
1780494512947927040,1.478590965270996,0.14276759326457977,0.21808886528015137,0.064162977039814,-0.31836217641830444,0.9080387353897095,0.27223411202430725,-0.025708287954330444,0.04586458206176758,0.016950517892837524,0.5721372551866989,-0.6302365379946052,-0.48879336904000303,0.19115966260288936,-1.1385779968600724,-2.2782484769835487,-1.2489041595422088
1780494512957961984,1.4886260032653809,0.08776398748159409,0.10724861919879913,0.09751320630311966,-0.3175438642501831,0.9085966348648071,0.27132609486579895,0.03695002198219299,0.01552128791809082,0.04254719614982605,0.5725049761159748,-0.6305252547557232,-0.4879558932648433,0.19124570387744122,-1.1399117224746076,-2.2778695416878434,-1.2499398426308876
1780494512967997184,1.4986610412597656,0.1633748561143875,-0.03353526070713997,0.05522274225950241,-0.3166273534297943,0.9092473387718201,0.27021563053131104,0.09371167421340942,-0.02503103017807007,0.022997260093688965,0.5728201003474972,-0.6304886230238692,-0.48743401082159266,0.19175337624060784,-1.141472328063233,-2.2772716544296157,-1.2495581003474339
1780494512978032128,1.5086960792541504,0.1523459106683731,-0.24282215535640717,0.10293061286211014,-0.315570592880249,0.9099276065826416,0.26916033029556274,0.09520313143730164,-0.02838146686553955,0.04971781373023987,0.5729285440875531,-0.6300704563906303,-0.4874334685766915,0.1928026392574719,-1.1431095134056446,-2.2769902331051,-1.2477347199654747
1780494512988067072,1.5187311172485352,0.16645720601081848,-0.3038357198238373,0.09436827898025513,-0.313975989818573,0.9106340408325195,0.26863497495651245,0.0500141978263855,0.013285636901855469,0.020747900009155273,0.5726372570815502,-0.6295679943439126,-0.4878131149299586,0.19434274322960188,-1.1448159288427147,-2.278527241507354,-1.2462884544828383
1780494512998100992,1.5287649631500244,0.09735775738954544,-0.16144341230392456,0.06788873672485352,-0.3128963112831116,0.911266565322876,0.2677478492259979,-0.02893105149269104,0.007739663124084473,-0.0044117271900177,0.5725898546134288,-0.6289822707956594,-0.4881139473994655,0.19561907945139825,-1.1463491545367481,-2.278594783114411,-1.243919479625643
1780494513008135936,1.5388000011444092,0.03001413680613041,-0.00910728145390749,0.07316871732473373,-0.31234094500541687,0.9115279316902161,0.26750648021698,-0.05576205253601074,-0.008512914180755615,0.002070486545562744,0.5725415649274754,-0.6288759607422113,-0.4881273037804451,0.19606838238717528,-1.146984297825424,-2.2790268652577512,-1.2436592705504699
1780494513018171136,1.548835039138794,0.010331513360142708,-0.04580164700746536,0.06285163015127182,-0.3118714392185211,0.9116923809051514,0.26749464869499207,-0.029055684804916382,-0.017390012741088867,-0.019844412803649902,0.5724742427179703,-0.6289456948006007,-0.4880313866772087,0.19628035152007914,-1.1473843646795698,-2.279748332800531,-1.2442366653931283
1780494513028206080,1.5588700771331787,-0.001447381917387247,-0.13278260827064514,0.10928092151880264,-0.31095370650291443,0.9119099378585815,0.2678205072879791,-0.012380003929138184,0.011399269104003906,-0.021955639123916626,0.5721656759038035,-0.6290522513644189,-0.48806097622991595,0.19676406756745182,-1.147914216356121,-2.2818068895024166,-1.2455053932295386
1780494513038241024,1.5689051151275635,0.007161020301282406,-0.1111641377210617,0.16367119550704956,-0.3091012239456177,0.9123392701148987,0.2685023248195648,-0.038600802421569824,0.01705831289291382,-0.022515416145324707,0.5715676324395702,-0.6293589573115446,-0.48801482112230965,0.19763422004659514,-1.148961601427949,-2.286021390376086,-1.2484759653915969
1780494513048276224,1.5789401531219482,0.021694688126444817,0.09015006572008133,0.11322798579931259,-0.30733227729797363,0.9128647446632385,0.26874715089797974,-0.08208727836608887,-0.013511598110198975,-0.05976268649101257,0.5712555009029447,-0.629819895878975,-0.4875453617663477,0.19822623603205225,-1.1502467925343385,-2.289315558355822,-1.2517229483192187
1780494513058310912,1.588974952697754,-0.166315957903862,0.5587937235832214,0.060906462371349335,-0.3069040775299072,0.9130110144615173,0.2687387466430664,-0.08330890536308289,-0.03947603702545166,0.007292717695236206,0.5715008885717244,-0.6306427623758916,-0.4864761877839624,0.197527902187872,-1.1506053228773299,-2.289991042533532,-1.2553838062344207
1780494513068346112,1.5990099906921387,0.005650208797305822,0.3953438997268677,0.365231990814209,-0.30673840641975403,0.9132596850395203,0.2680826187133789,-0.005639493465423584,-0.10686326026916504,0.2586660385131836,0.5723405437952471,-0.6320372781141776,-0.4843244690201905,0.1959209236394172,-1.1512153310831663,-2.2890472131631223,-1.2607612604632212
1780494513078381056,1.6090450286865234,0.1822686642408371,-0.3740116357803345,0.19745364785194397,-0.303302526473999,0.9146094918251038,0.2673901319503784,0.13238877058029175,-0.003857910633087158,-0.24125176668167114,0.5721657568340498,-0.6326194304949949,-0.4832056674162291,0.19731053721435513,-1.1545410634525883,-2.2933496264865902,-1.2650124891171677
1780494513088416000,1.6190800666809082,-0.07794561237096786,-0.2035437375307083,-0.44346511363983154,-0.3040509819984436,0.9143720269203186,0.2673514783382416,0.0703473687171936,0.2690843939781189,-0.615160346031189,0.5719327233388439,-0.6316084886826606,-0.4845064010290234,0.19803339619237262,-1.1539541528966182,-2.29205550643368,-1.2602870455315145
1780494513098451200,1.629115104675293,-0.2763247787952423,0.07996173948049545,0.07287976890802383,-0.3062785267829895,0.9129444360733032,0.269677996635437,-0.08027243614196777,0.10232973098754883,0.4318296015262604,0.5713267724063861,-0.6316404714512088,-0.4856637924983855,0.19684214404966097,-1.150442062764958,-2.2927324665008424,-1.2605972214306618
1780494513108485120,1.6391491889953613,0.18212351202964783,-0.09334400296211243,0.7924365997314453,-0.3018297255039215,0.914365828037262,0.2698781490325928,-0.03226149082183838,-0.2792338728904724,0.5563242435455322,0.5707955030204231,-0.6329296022760652,-0.4840859341617857,0.1981250546159518,-1.1539388979015828,-2.3003646237668196,-1.2691407871720801
1780494513118520064,1.649183988571167,0.2306622862815857,-0.2057054191827774,0.20158235728740692,-0.29607662558555603,0.9167094826698303,0.268295556306839,-0.04994696378707886,-0.16480213403701782,-0.3589327335357666,0.5704973933438475,-0.633426073782645,-0.4826170148940739,0.20096021401902886,-1.1597656168735953,-2.307009454380791,-1.2742097872055878
1780494513128555008,1.6592190265655518,-0.11804749816656113,0.3819767236709595,-0.29566285014152527,-0.2972559332847595,0.9164754152297974,0.26779037714004517,-0.1813817322254181,0.27152812480926514,-0.41924917697906494,0.5708617641724545,-0.6331044028654544,-0.482777390861566,0.20055331593996614,-1.1591801591671111,-2.304094552494774,-1.2716350127019318
1780494513138590208,1.6692540645599365,-0.054491158574819565,0.9138408899307251,0.13870511949062347,-0.30023056268692017,0.9158283472061157,0.26668310165405273,-0.13617080450057983,0.3363535404205322,0.2916054427623749,0.5723284858161056,-0.6338175830516086,-0.4812658508281035,0.19773335380565554,-1.1575658384131366,-2.2970878051419255,-1.2716262090683255
1780494513148625152,1.6792891025543213,0.2711678743362427,0.5539993643760681,0.6690688133239746,-0.29829418659210205,0.9174360632896423,0.2633085250854492,0.05380263924598694,-0.08567959070205688,0.5310640335083008,0.57413559808724,-0.6353282162007778,-0.4775063574492568,0.19675861455783106,-1.1615879138993528,-2.2939787714043267,-1.2768264748604048
1780494513158660096,1.689324140548706,0.4170862138271332,-0.2688803970813751,0.4386148452758789,-0.2930910587310791,0.9201993942260742,0.25948184728622437,0.2056887149810791,-0.23453032970428467,-0.18433234095573425,0.5750282116583019,-0.6357912019985482,-0.47487943491821977,0.1990017123129891,-1.1685895615195998,-2.295446210718977,-1.2797305633837284
1780494513168695296,1.6993591785430908,0.1406138837337494,-0.31280285120010376,0.17560908198356628,-0.2896295487880707,0.9217028021812439,0.25802889466285706,0.1461206078529358,0.08777302503585815,-0.5597256422042847,0.5747758412621762,-0.6353353083321152,-0.4747246573925109,0.20154001667138202,-1.1724476756271232,-2.298557031863766,-1.2793396978450784
1780494513178729984,1.7093939781188965,0.12426048517227173,0.23014697432518005,0.13930407166481018,-0.288053035736084,0.9224685430526733,0.25705477595329285,-0.0029625892639160156,0.2686935067176819,-0.21588662266731262,0.5748841608565578,-0.6353092609315943,-0.4742462743272388,0.2024370863730947,-1.174426377518425,-2.299389376248995,-1.2797026623120684
1780494513188764928,1.7194290161132812,0.08318335562944412,0.2352318912744522,0.35446643829345703,-0.2867254316806793,0.9233958125114441,0.2552027106285095,-0.023073703050613403,-0.05555236339569092,0.265198290348053,0.5756817718236413,-0.6357871769338355,-0.4726267209651943,0.20245748677507328,-1.1768351482258697,-2.2980922385535885,-1.2813160550425333
1780494513198800128,1.729464054107666,0.07892655581235886,-0.2710062563419342,0.6114854216575623,-0.2819044888019562,0.9250614047050476,0.2545410394668579,0.08543232083320618,-0.33778125047683716,0.1836455762386322,0.5753555068319418,-0.6367564888406406,-0.4709688869446384,0.20419470569862877,-1.1811972483679472,-2.3052298638503617,-1.2888049621846946
1780494513208835072,1.7394990921020508,-0.06369157880544662,-0.14677712321281433,0.43057024478912354,-0.27632415294647217,0.9265615940093994,0.2552027404308319,0.049639612436294556,-0.2247336506843567,-0.14022782444953918,0.5742278577175056,-0.6377361090773926,-0.46999364980811537,0.20654525011536415,-1.1851661800533044,-2.316478144153569,-1.298218196755924
1780494513218870272,1.7495341300964355,-0.03509056195616722,0.2797728478908539,0.38380593061447144,-0.27288690209388733,0.9274688959121704,0.25560516119003296,-0.07684451341629028,0.02377915382385254,-0.005132228136062622,0.5737871719497684,-0.6389155220744807,-0.468603818060644,0.20728156264000028,-1.1875855939604703,-2.3235060482111702,-1.306586845649266
1780494513228905216,1.7595691680908203,0.34753909707069397,0.408610463142395,0.33277976512908936,-0.2703493535518646,0.9288311004638672,0.2533457279205322,-0.060781627893447876,0.1273517608642578,0.0021474361419677734,0.5746939808715419,-0.6397842089458506,-0.46620707412666107,0.2074945265510257,-1.1912453669164151,-2.3237373515431763,-1.310809907549182
1780494513238939136,1.7696030139923096,0.6686028838157654,0.24439436197280884,0.2768661677837372,-0.26847898960113525,0.9309667348861694,0.24742695689201355,0.011917680501937866,0.07303106784820557,-0.07381248474121094,0.5768935359764341,-0.639254254625921,-0.4637536780495681,0.20851954984869728,-1.1970517377022818,-2.315411174511725,-1.305447147727903
1780494513248974080,1.7796380519866943,0.5310503840446472,0.12997524440288544,0.373487263917923,-0.265863299369812,0.9333310723304749,0.24126720428466797,0.08188807964324951,-0.01928389072418213,-0.01815319061279297,0.5789185989645056,-0.6384535778176939,-0.46153074497854363,0.21028479253284607,-1.2035820728447548,-2.3077319149409696,-1.2991960862458591
1780494513259009024,1.789673089981079,0.616257905960083,0.011246460489928722,0.28380638360977173,-0.26282596588134766,0.9355822801589966,0.23581436276435852,0.10044193267822266,-0.08046448230743408,-0.06841015815734863,0.5805156798626667,-0.6376825984188789,-0.4596390784037317,0.21235441043795802,-1.209904447321336,-2.302076869908609,-1.2938908546117196
1780494513269044224,1.7997081279754639,0.6696644425392151,0.09811011701822281,0.09212696552276611,-0.26113417744636536,0.937606692314148,0.22957074642181396,0.061808615922927856,-0.05500781536102295,-0.22128522396087646,0.5824886783532653,-0.6362504231236634,-0.4582256776899115,0.21429326392389914,-1.2156818403975564,-2.2919603449346244,-1.283488598738495
1780494513279079168,1.8097431659698486,0.5496450662612915,0.21051707863807678,-0.0004871260025538504,-0.26123663783073425,0.9391078352928162,0.2232302725315094,0.02301645278930664,0.005411088466644287,-0.1746615469455719,0.5848426335592528,-0.6346698284128159,-0.4569566118641805,0.21527633679037161,-1.2200246844162979,-2.2779049908534716,-1.270329465937628
1780494513289114112,1.8197779655456543,0.29960671067237854,0.14315509796142578,0.14905816316604614,-0.26101619005203247,0.9401689767837524,0.21898137032985687,0.004744827747344971,-0.04643124341964722,0.01783500611782074,0.5864558987938492,-0.633832271088055,-0.45579308341550034,0.21582122116067864,-1.2231259570736401,-2.2688443631318345,-1.2625844790173573
1780494513299149056,1.829813003540039,0.5220935940742493,0.019864849746227264,0.2759564220905304,-0.2591002285480499,0.9416074156761169,0.21504148840904236,-0.011117726564407349,-0.14111590385437012,-0.06309445202350616,0.5876506213270655,-0.6332527877276635,-0.4544355260957523,0.21713161399834197,-1.2273727579339324,-2.263537385408011,-1.2577626653259404
1780494513309184000,1.8398480415344238,0.6656689047813416,-0.007496600970625877,0.2840641736984253,-0.25644823908805847,0.9436261653900146,0.20929370820522308,-0.08699658513069153,-0.09362012147903442,-0.2515453100204468,0.5892919820655564,-0.6321372062431864,-0.4528238135200077,0.21928992674768064,-1.2334193816830397,-2.2552922733765994,-1.2491939318007343
1780494513319219200,1.8498830795288086,0.6852213144302368,-0.0710902288556099,0.3745386600494385,-0.25332415103912354,0.9458385705947876,0.20301784574985504,-0.18460309505462646,0.13008910417556763,-0.30302393436431885,0.5909741220358087,-0.6308207706662909,-0.4511918455243022,0.2219023840594681,-1.2401681315770774,-2.2463996797723107,-1.239322506900993
1780494513329254144,1.8599181175231934,1.0973342657089233,0.011630488559603691,0.3884206712245941,-0.24939598143100739,0.948560357093811,0.19502553343772888,-0.2666867971420288,0.31935346126556396,-0.34756767749786377,0.5931129394510558,-0.6291446324602964,-0.4490988708812445,0.22517613754213595,-1.2486571803657716,-2.23445958096348,-1.2262204942026678
1780494513339289088,1.8699531555175781,1.5114421844482422,0.1487177610397339,0.23537839949131012,-0.24647778272628784,0.9518970847129822,0.18204620480537415,-0.35680896043777466,0.3723980784416199,-0.40856289863586426,0.5971142341434778,-0.6258946194506064,-0.44640679465364863,0.228979378350493,-1.2593686467779508,-2.206955420186886,-1.1978430609816773
1780494513349324032,1.8799879550933838,1.5712956190109253,0.6894536018371582,0.17738141119480133,-0.24507249891757965,0.9550731182098389,0.16665804386138916,-0.38383376598358154,0.38013195991516113,-0.20437777042388916,0.6024364943532758,-0.622262826309164,-0.442852119744141,0.2318217001234425,-1.2699064485527676,-2.1679973903611898,-1.16094588464272
1780494513359358976,1.8900229930877686,1.8593746423721313,0.8290082812309265,0.027745576575398445,-0.24564753472805023,0.9580604434013367,0.14757202565670013,-0.18844974040985107,0.5375145077705383,-0.24335145950317383,0.609779384628081,-0.6181402382185333,-0.43782263113491343,0.23320185342255123,-1.280155546515928,-2.1117649219410874,-1.1115028515552219
1780494513369393152,1.900057077407837,2.76021671295166,-0.5927338004112244,-0.2730291783809662,-0.24681462347507477,0.9608219265937805,0.12611041963100433,-0.042659878730773926,0.9468623995780945,-0.647091269493103,0.6169776637006887,-0.6113484241039836,-0.43509575459152805,0.23724123128639127,-1.2899526805216042,-2.0431670980315513,-1.041538408217948
1780494513379428096,1.9100921154022217,4.966601848602295,-1.2750599384307861,-0.4309154748916626,-0.24966387450695038,0.9640207290649414,0.09128079563379288,-0.039932698011398315,0.9787588119506836,-0.47468841075897217,0.6270623122408212,-0.597281847531437,-0.4346202868431611,0.24729039005683306,-1.3017345029708147,-1.9213135546890407,-0.9049714226425192
1780494513389463296,1.9201271533966064,6.892942905426025,-1.623875379562378,-0.23149611055850983,-0.25184452533721924,0.9670539498329163,0.03716382011771202,-0.07040584087371826,0.8124260902404785,-0.6802455186843872,0.6418164523021845,-0.5756768763526479,-0.4326407786363088,0.2636091645742697,-1.3133916479917767,-1.717305483815737,-0.6783452419428915
1780494513399497984,1.930161952972412,8.26561164855957,-1.5631600618362427,-0.16922767460346222,-0.2537216544151306,0.966727077960968,-0.03262186795473099,-0.2519699037075043,0.6408016085624695,-0.7401900291442871,0.6600549246786004,-0.5481617473314863,-0.4280277615877057,0.28396912331684426,-1.31211075883279,-1.442924414771714,-0.3779013209208976
1780494513409532928,1.9401969909667969,9.305821418762207,-1.2138950824737549,-0.03499210625886917,-0.2558157444000244,0.9599664807319641,-0.11411762982606888,-0.3536355495452881,0.4769384264945984,-0.5060453414916992,0.6807310186738016,-0.516271743532463,-0.42000556145831025,0.3060460633732693,-1.2868825176240555,-1.1511961736450063,-0.06074062639252755
1780494513419568128,1.9502320289611816,10.524072647094727,-0.8808764219284058,0.24729737639427185,-0.2564902603626251,0.9443209767341614,-0.20608443021774292,-0.30581134557724,0.3296505808830261,-0.4433448910713196,0.7031637170774875,-0.4804687067371804,-0.4075630063572025,0.32954983437775254,-1.2355246809937137,-0.8939379043868094,0.2200287666554579
1780494513429603072,1.9602670669555664,11.590444564819336,-0.6474164128303528,0.6578577160835266,-0.25435197353363037,0.9168167114257812,-0.30781856179237366,-0.20196208357810974,0.22821807861328125,-0.26661384105682373,0.7264943115866307,-0.4402252561918116,-0.3902466501782129,0.3551272382310396,-1.1600340834137177,-0.6905759974688224,0.4464364091688209
1780494513439638016,1.9703021049499512,12.18397045135498,-0.3831130862236023,1.2308045625686646,-0.24765467643737793,0.876063883304596,-0.4137381911277771,-0.10248877108097076,0.20721858739852905,0.1354178786277771,0.7487863371713421,-0.39702891845395166,-0.36810181360859506,0.3823456241980327,-1.0676377711598584,-0.5393734385483056,0.6203157800802177
1780494513449673216,1.980337142944336,12.554186820983887,-0.23689264059066772,1.6261048316955566,-0.23687833547592163,0.8215503096580505,-0.5185980200767517,-0.08024507761001587,0.162580668926239,0.41392266750335693,0.7686124451395435,-0.35177726749389493,-0.34198500321802294,0.41052898127508114,-0.9641248585861734,-0.428466886706967,0.7544279067089954
1780494513459708160,1.9903721809387207,12.893243789672852,0.03216678649187088,1.7946105003356934,-0.2238277941942215,0.7528929710388184,-0.618912935256958,-0.10499909520149231,0.09564822912216187,0.5395978093147278,0.7857095638563227,-0.3048026819773106,-0.3124721768838715,0.43831137130175696,-0.8524467695007748,-0.3470125515714142,0.8588769830659748
1780494513469743104,2.0004069805145264,13.401134490966797,0.3943004906177521,1.7613632678985596,-0.2096463441848755,0.6688410043716431,-0.7132322192192078,-0.1426333338022232,0.047955870628356934,0.46251505613327026,0.8004424698615339,-0.2556306020583101,-0.2793508185173122,0.4646591202375503,-0.7326486397633702,-0.28588645294534526,0.9416013496324032
1780494513479778048,2.010442018508911,13.854218482971191,0.9343259334564209,1.6149219274520874,-0.1941520869731903,0.5684928894042969,-0.7994503378868103,-0.1872871071100235,0.06407541036605835,0.3413051962852478,0.8130017688465314,-0.204128103803604,-0.24208791895639703,0.4886238524859556,-0.604672750160014,-0.23824460782342918,1.0076997572048092
1780494513489812992,2.020477056503296,13.734370231628418,1.552975058555603,1.547478199005127,-0.1755346953868866,0.4551776945590973,-0.8729265928268433,-0.2129235714673996,0.1921916902065277,0.29239070415496826,0.8228003625015984,-0.15222563613277607,-0.20090809912311344,0.5093748526777133,-0.47257175903374526,-0.19844108811054556,1.0607243400638815
1780494513499847168,2.0305111408233643,13.016278266906738,1.9799658060073853,1.4038612842559814,-0.15341849625110626,0.33615121245384216,-0.9292282462120056,-0.18348030745983124,0.29959097504615784,0.3161453604698181,0.8291044041234001,-0.10259541270602678,-0.1576707409788066,0.5264977911723281,-0.34282730507483233,-0.16362701873534125,1.1031569900634572
1780494513509882112,2.040546178817749,11.773292541503906,2.31691837310791,1.1488069295883179,-0.12945330142974854,0.21962645649909973,-0.9669570922851562,-0.11842571198940277,0.2960290312767029,0.438484251499176,0.8321386464198656,-0.057410491013927575,-0.11500207705616042,0.5394662660236051,-0.22143156411428316,-0.13308564548488303,1.1355260577870627
1780494513519917056,2.0505809783935547,10.220680236816406,2.596345901489258,1.0318504571914673,-0.1033128872513771,0.11271775513887405,-0.98824143409729,-0.0038190707564353943,0.17225539684295654,0.511221170425415,0.8324742125386325,-0.018681568511629686,-0.0743658207093048,0.5487326302364212,-0.11295781325570213,-0.10416377686318702,1.159678975838725
1780494513529952000,2.0606160163879395,8.722777366638184,2.5992114543914795,1.2713621854782104,-0.07660854607820511,0.019501322880387306,-0.9968705177307129,0.08495510369539261,-0.07112181186676025,0.5594010353088379,0.8301933133944661,0.013225631124290453,-0.03728034112246832,0.5560703498818866,-0.019502559889510544,-0.07669828964702254,1.179600441423936
1780494513539987200,2.070651054382324,7.298983097076416,2.5866057872772217,1.5382654666900635,-0.05105207860469818,-0.05987301468849182,-0.9968996644020081,0.14995954930782318,-0.2826257646083832,0.47836023569107056,0.8254163475144467,0.03914575001887144,-0.004217411142021826,0.5631497474207614,0.059908845704821814,-0.0511661529856591,1.1989762557155554
1780494513550022144,2.080686092376709,6.121829509735107,2.6432979106903076,1.5808446407318115,-0.026392880827188492,-0.12582606077194214,-0.9917011857032776,0.1656293272972107,-0.37789708375930786,0.4222126603126526,0.8191561230112488,0.05930286899761864,0.025151195987369663,0.5699420112824687,0.12616046813812476,-0.026607462536620732,1.2174398864737286
1780494513560057600,2.090721607208252,5.119478702545166,2.606049060821533,1.4090070724487305,-0.0027027276810258627,-0.18167999386787415,-0.9833539724349976,0.2002430111169815,-0.48792144656181335,0.37860244512557983,0.8124034847069517,0.07520290194925322,0.05164809252823394,0.5759146670290753,0.18269460178163874,-0.0027484720453184587,1.2336032532403935
1780494513570092800,2.1007566452026367,3.492525815963745,2.4303717613220215,1.2355988025665283,0.01945357397198677,-0.22420789301395416,-0.9743471741676331,0.27520889043807983,-0.45227527618408203,0.20710474252700806,0.8060660181053245,0.08581368500024486,0.07390827830952632,0.5808882932769439,0.22613016544257342,0.019963099121863465,1.2466299932237328
1780494513580127744,2.1107916831970215,2.5068411827087402,2.08146071434021,1.391099452972412,0.038277920335531235,-0.2532707452774048,-0.9666378498077393,0.36980313062667847,-0.19214856624603271,0.12889981269836426,0.8000067326913156,0.09162353144102382,0.09102859110473815,0.5859250952380287,0.25605975816727605,0.03957834876374913,1.2591878543590334
1780494513590162688,2.1208267211914062,2.062119245529175,1.8299301862716675,1.4441224336624146,0.05328426882624626,-0.27577224373817444,-0.9597449898719788,0.40722599625587463,0.06660476326942444,-0.14688342809677124,0.7937452060224864,0.09561276295371643,0.10481268780113903,0.591473697736229,0.27939300360746283,0.055462254652715946,1.2730026226030693
1780494513600197888,2.130861759185791,2.266260862350464,1.6664022207260132,1.2411075830459595,0.06619587540626526,-0.2969663739204407,-0.9525907039642334,0.33552226424217224,0.39462265372276306,-0.21585100889205933,0.7877096753957857,0.09957931000104951,0.11742488018851521,0.596497160218554,0.30151414682222494,0.06937883436079854,1.2857130271086377
1780494513610232832,2.140896797180176,2.9065420627593994,1.5364089012145996,1.0199253559112549,0.0780353918671608,-0.32235783338546753,-0.9433959126472473,0.3624248206615448,0.7975165247917175,-0.15783089399337769,0.7819866395972283,0.10561185171770182,0.13095101671213769,0.6001622921012221,0.32821923746922044,0.08252965215583309,1.2955202050060344
1780494513620267520,2.1509315967559814,3.4275429248809814,1.4134920835494995,0.9600871205329895,0.08850053697824478,-0.3532487750053406,-0.9313339591026306,0.4444279372692108,1.1248857975006104,-0.12793117761611938,0.7762504512088254,0.11436700933513674,0.14578478666571965,0.6025796931927024,0.361041511395788,0.09474108408921185,1.3029022398077605
1780494513630302720,2.160966634750366,3.673642873764038,1.2354514598846436,0.9104849100112915,0.09735661745071411,-0.387040376663208,-0.9169086217880249,0.4484350085258484,1.173569917678833,-0.1650921106338501,0.7702552126776858,0.12483049631571191,0.16113048462946275,0.6042857239088526,0.397419644876442,0.10578284796714026,1.309148719460495
1780494513640336640,2.1710007190704346,3.574586868286133,0.9671388864517212,0.7913979291915894,0.10405407845973969,-0.42135581374168396,-0.9009062051773071,0.3428910970687866,0.8146816492080688,-0.2227662205696106,0.7643280428805397,0.13629370854395553,0.1759855632795096,0.6051905435589846,0.43493979712144853,0.11498982361938648,1.313999246991927
1780494513650371840,2.1810357570648193,2.809218645095825,0.6578704714775085,0.7608781456947327,0.10798996686935425,-0.45105889439582825,-0.8859367966651917,0.24448806047439575,0.32640984654426575,-0.14740365743637085,0.7589657793265564,0.14683567202914052,0.18833714236513416,0.6057551481154747,0.46795142029522174,0.12129515396357962,1.3182590577518143
1780494513660406784,2.191070795059204,1.7055737972259521,0.4183841347694397,0.8741735219955444,0.10896041244268417,-0.4718655049800873,-0.8749117255210876,0.21016189455986023,-0.020596623420715332,-0.05720186233520508,0.7542942003535867,0.15455779073141346,0.19661133290184993,0.6070388277136396,0.49140547126459333,0.12390081588521026,1.3241864277656294
1780494513670441728,2.2011055946350098,0.7480950355529785,0.2218196839094162,0.9894055724143982,0.1070263609290123,-0.48373591899871826,-0.868645429611206,0.1858813464641571,-0.27956971526145935,-0.00887221097946167,0.7501782863471639,0.15928647714649716,0.2007613030916756,0.6095532510602873,0.5049182839428239,0.12259277768548646,1.3330252000400107
1780494513680476672,2.2111406326293945,-0.2207440435886383,0.010767623782157898,0.8486207723617554,0.10347041487693787,-0.4861942231655121,-0.8677033185958862,0.16107121109962463,-0.4018825590610504,0.10792243480682373,0.7470523690950235,0.16051027984121918,0.2009596840116763,0.6129962524264664,0.5077292850341347,0.11868586673139064,1.3434684356375253
1780494513690511616,2.2211756706237793,-0.730459988117218,0.10829098522663116,-0.17547251284122467,0.10203006863594055,-0.4821351170539856,-0.8701353669166565,0.022115454077720642,-0.2594878077507019,0.339602530002594,0.7461606616984056,0.15880912533100716,0.19927862428744583,0.6150706811490512,0.5030901676000044,0.11672467574370336,1.3487547003698879
1780494513700546816,2.231210708618164,-0.18832352757453918,0.25108301639556885,-0.9402112364768982,0.10656046122312546,-0.47686171531677246,-0.8724951148033142,-0.10208964347839355,0.6610352993011475,0.4310126304626465,0.748427321590223,0.15569902310816877,0.1987718452756834,0.6132732601929387,0.4970808687040042,0.12153113152443457,1.3420578993782522
1780494513710581760,2.241245746612549,0.7078648209571838,0.46353521943092346,-0.011774934828281403,0.11250431835651398,-0.4786139130592346,-0.8707878589630127,0.028990425169467926,1.5805578231811523,0.2747490406036377,0.7495220267574977,0.1549961134103698,0.2014504186297323,0.6112370383607477,0.49907539509020615,0.12848655754829005,1.3354579874117336
1780494513720616704,2.2512807846069336,1.7218060493469238,0.5967806577682495,0.2751905024051666,0.1158742755651474,-0.4893612861633301,-0.8643487095832825,0.0673532485961914,1.568920612335205,0.32109004259109497,0.7472828128915443,0.15815284508997016,0.2069137837992161,0.611345155145886,0.5113571984548583,0.1332650824486652,1.3364665272019498
1780494513730651648,2.2613155841827393,2.1337828636169434,0.7442457675933838,-0.2564485967159271,0.12189668416976929,-0.5065739154815674,-0.8535361886024475,-0.15227694809436798,0.8391544818878174,0.366277277469635,0.7449976575901651,0.1635116229111876,0.2156289495130879,0.6097102973942237,0.5312064817199282,0.14185450308541814,1.333078462901059
1780494513740686592,2.271350622177124,1.8410632610321045,0.5211852192878723,-0.1547510027885437,0.12853534519672394,-0.5232483744621277,-0.8424308896064758,-0.11606889963150024,0.2963349223136902,0.24944382905960083,0.743316382901126,0.16874010804918285,0.22430187781344096,0.607203520778813,0.5506583244722252,0.15140901426798883,1.327054539365077
1780494513750721792,2.281385660171509,1.5693886280059814,0.36771881580352783,-0.11001042276620865,0.13279180228710175,-0.5374270677566528,-0.8327895998954773,-0.10795047879219055,-0.04864776134490967,0.053904712200164795,0.7417273117488252,0.17364906152918327,0.2311951693342877,0.6051738514686491,0.5673831148018302,0.15812304253669954,1.3225302215275665
1780494513760756736,2.2914206981658936,1.02549147605896,0.48626625537872314,-0.05857333168387413,0.13693538308143616,-0.5480703115463257,-0.8251470327377319,-0.23570555448532104,-0.23700964450836182,-0.2395501732826233,0.7404103516932409,0.17704817300060632,0.23681303640304327,0.6036274153449397,0.5800554074869098,0.16445392969485342,1.3187732787906816
1780494513770790912,2.301454782485962,1.367567539215088,0.4903262257575989,0.48324915766716003,0.14006343483924866,-0.5577335357666016,-0.8181170225143433,-0.25934141874313354,-0.23491472005844116,-0.07732969522476196,0.7381903568930589,0.17996333528859465,0.24198073892880237,0.6034347361415566,0.5916527072062288,0.16955836102015553,1.3187948632410063
1780494513780825600,2.3114895820617676,1.164912223815918,0.47621893882751465,0.827143132686615,0.14008241891860962,-0.5697066187858582,-0.8098217844963074,-0.1972571164369583,-0.37716227769851685,-0.10114318132400513,0.7343274274220408,0.18435071768004743,0.24719207902245577,0.604709958184896,0.6061488108316607,0.17128435677931653,1.3241192181383332
1780494513790860544,2.3215246200561523,0.18034452199935913,0.4690716862678528,1.0481208562850952,0.1386101096868515,-0.5765685439109802,-0.8052055835723877,-0.2379448264837265,-0.6057434678077698,-0.1135108470916748,0.7302462062930649,0.18657075643495485,0.2501770846188193,0.6077362534798273,0.6145226165229656,0.17047175147821927,1.3339687012549877
1780494513800895744,2.331559658050537,-0.713636577129364,0.32284122705459595,1.3729209899902344,0.13481804728507996,-0.5759294629096985,-0.8063059449195862,-0.17099663615226746,-0.7341138124465942,-0.13146865367889404,0.7263054909431683,0.18583355061730072,0.24962554607338763,0.612889245315576,0.613740674610065,0.16567199672473876,1.3492132261246859
1780494513810930688,2.341594696044922,-1.2446469068527222,0.1764102429151535,1.49330472946167,0.1284835785627365,-0.5696818232536316,-0.8117601871490479,-0.036473095417022705,-0.6329701542854309,-0.12342047691345215,0.7224428682189352,0.18321889614683462,0.24607060706367287,0.6196422195220569,0.6061186886415729,0.15697556087408487,1.3687235150630288
1780494513820965888,2.3516297340393066,-1.5441601276397705,0.010437790304422379,1.478756308555603,0.12090270966291428,-0.5600340366363525,-0.8196001648902893,0.06990845501422882,-0.39859938621520996,-0.1467084288597107,0.718962770282771,0.1796330819515423,0.24069040290862934,0.6268115217933691,0.5944268774919647,0.14645801682318227,1.389130022140692
1780494513831000832,2.3616647720336914,-1.7777588367462158,-0.19854764640331268,1.521337628364563,0.11184147745370865,-0.5480425357818604,-0.8289396166801453,0.16077205538749695,-0.19979071617126465,-0.15642720460891724,0.7158052330196483,0.17571500652334113,0.23378286300814602,0.6341078129173445,0.5800222193324339,0.13411127641955248,1.4098259522452963
1780494513841035776,2.371699810028076,-2.1254942417144775,-0.4001883566379547,1.4837045669555664,0.10109154880046844,-0.5332968235015869,-0.839866042137146,0.20095616579055786,-0.15994048118591309,-0.188728928565979,0.7130177958539161,0.1714247514187044,0.2251233433238088,0.6415128252830146,0.5624930813271256,0.11978998184895474,1.4306694972133556
1780494513851070720,2.381734609603882,-2.407541513442993,-0.4280114471912384,1.3948894739151,0.08997885882854462,-0.5153690576553345,-0.852231502532959,0.1324179768562317,-0.17272603511810303,-0.06440973281860352,0.7107777126641984,0.1662517209954143,0.21504560483541169,0.6487764087335186,0.5414382586488452,0.1051905939700739,1.4504325475783242
1780494513861105664,2.3917696475982666,-2.794825553894043,-0.4140213429927826,1.4354389905929565,0.0792020782828331,-0.49420860409736633,-0.865727961063385,0.026297174394130707,-0.22327491641044617,0.146794855594635,0.7087288516500633,0.15987824907731535,0.20389938433104382,0.6561764286281216,0.5169242482220799,0.09123213700118733,1.4696941250980724
1780494513871140608,2.4018046855926514,-3.082662343978882,-0.32441064715385437,1.4965792894363403,0.06883081048727036,-0.46928897500038147,-0.8803579807281494,-0.045439086854457855,-0.24398311972618103,0.2769339084625244,0.706571210842637,0.1520350716438475,0.19158901195415035,0.664030181408362,0.4884854164519896,0.07802629173716051,1.4892849426977677
1780494513881175808,2.411839723587036,-2.936660051345825,-0.2272057980298996,1.576698660850525,0.059350140392780304,-0.4433021545410156,-0.8944052457809448,-0.03377640247344971,-0.16404342651367188,0.22018039226531982,0.7039237246879365,0.14366662355291757,0.17932451991244885,0.6720817426308326,0.4592792492583079,0.06625996152416891,1.5090281550504723
1780494513891210752,2.421874761581421,-2.8123960494995117,-0.14130406081676483,1.6023832559585571,0.050851378589868546,-0.41837093234062195,-0.9068516492843628,0.047003235667943954,-0.06815555691719055,0.10246932506561279,0.7006841508100488,0.13559752994003546,0.16789127660949063,0.6800497552634539,0.43165098604763164,0.05601597625464689,1.5286256477213178
1780494513901245952,2.4319097995758057,-3.044147253036499,-0.12227126210927963,1.6511510610580444,0.0430753193795681,-0.39249154925346375,-0.9187463521957397,0.0833437442779541,-0.062220364809036255,0.13981568813323975,0.6971359439885263,0.12715759712135763,0.15638975941893526,0.6880222987245397,0.4033389544400017,0.0468505787789271,1.5480573236820585
1780494513911280640,2.4419445991516113,-3.5461997985839844,-0.17522820830345154,1.633481740951538,0.035494256764650345,-0.36271318793296814,-0.9312246441841125,0.08953626453876495,-0.21701398491859436,0.17061978578567505,0.6935203959172962,0.1174587508420792,0.1434960950454309,0.69616217718644,0.3711777040939557,0.03809723576053441,1.567444751641228
1780494513921314816,2.4519786834716797,-4.323910713195801,-0.26402732729911804,1.5880961418151855,0.027896558865904808,-0.3263089954853058,-0.9448513984680176,0.06675371527671814,-0.3596803545951843,0.23211342096328735,0.6902401392069435,0.10570725932204968,0.12806351620235454,0.7042685648934837,0.33239620182258234,0.029516235562039174,1.5859635558903729
1780494513931349760,2.4620137214660645,-4.9288434982299805,-0.3144872784614563,1.6113271713256836,0.020212996751070023,-0.28211745619773865,-0.959166944026947,0.08015931397676468,-0.34929123520851135,0.297728955745697,0.6870151987806961,0.09157877735039584,0.10968075642241412,0.7124559927996748,0.2860004962137886,0.021070372783073877,1.6041161252150002
1780494513941384704,2.472048759460449,-4.944107532501221,-0.38664618134498596,1.4787033796310425,0.012825732119381428,-0.2343120574951172,-0.9720768332481384,0.10713886469602585,-0.2468128204345703,0.3699802756309509,0.6837037375642359,0.0765506815135322,0.09000876833778161,0.7201303028852248,0.2365108652691906,0.013193388785926284,1.6211130273003524
1780494513951419904,2.482083797454834,-4.700587749481201,-0.4452032446861267,1.384089469909668,0.005671817809343338,-0.1870410442352295,-0.9823357462882996,0.12595048546791077,-0.015412569046020508,0.42148369550704956,0.680388455384007,0.06211777110429499,0.07052317980508828,0.7268008442717212,0.18814916213345367,0.005773743745679678,1.6361923755354928
1780494513961454592,2.4921185970306396,-4.32380485534668,-0.3938066363334656,1.4268769025802612,-0.0007738731801509857,-0.14229173958301544,-0.9898244738578796,0.15851923823356628,0.19798631966114044,0.39157313108444214,0.6766574346378387,0.04867257639574225,0.052141635103381864,0.7328348790453069,0.14277632937453144,-0.0007818285475152751,1.6505230997214337
1780494513971489792,2.5021536350250244,-4.013063430786133,-0.21826569736003876,1.5023002624511719,-0.005694598890841007,-0.10103941708803177,-0.994866132736206,0.14668580889701843,0.19807004928588867,0.27019572257995605,0.672182167541341,0.036154410987084606,0.03549360111506988,0.7386502598736201,0.10121212864524237,-0.005723922386310208,1.6652419824133324
1780494513981524736,2.512188673019409,-3.9912800788879395,-0.1771736592054367,1.5808510780334473,-0.008890002965927124,-0.06098556146025658,-0.9980990290641785,0.08934959769248962,0.10712814331054688,0.31749606132507324,0.6670836358075977,0.023672349424593835,0.0197507228302274,0.7443446020389182,0.061023428415398116,-0.008906699073820547,1.680438082359878
1780494513991559680,2.522223711013794,-4.4600982666015625,-0.16446025669574738,1.559441089630127,-0.011104907840490341,-0.01895393617451191,-0.9997586607933044,0.08227190375328064,0.04793037846684456,0.4355192184448242,0.6615168830451013,0.010433940765113042,0.003433674753796505,0.7498497260063997,0.01895507114806772,-0.011107131249861218,1.6959118910523516
1780494514001594880,2.5322587490081787,-5.566542625427246,-0.2548138499259949,1.4830464124679565,-0.013138537295162678,0.03130323812365532,-0.9994235634803772,0.0809028223156929,0.00904100015759468,0.4682956337928772,0.6558565882726326,-0.005308955954271738,-0.016125337639503544,0.7546946092012232,-0.03130835281325071,-0.01314535747643594,1.7105028616040798
1780494514011629824,2.5422937870025635,-6.57045316696167,-0.3067372143268585,1.4694377183914185,-0.015037225559353828,0.09256275743246078,-0.9955933094024658,0.11431090533733368,-0.07232960313558578,0.4600861072540283,0.6497491919969118,-0.024420737945418963,-0.04008712625280932,0.7586980035134093,-0.09269544454418906,-0.015102635027687696,1.7244960924471686
1780494514021664512,2.552328586578369,-6.915518283843994,-0.5160480737686157,1.359265685081482,-0.017213700339198112,0.16023536026477814,-0.9869287014007568,0.14375483989715576,-0.19317908585071564,0.45837950706481934,0.6430129142242758,-0.04525771820918418,-0.06698786738167624,0.7615764836089517,-0.16092909284379198,-0.017439916516784768,1.7378137785855534
1780494514031699712,2.562363624572754,-6.950557708740234,-0.8401838541030884,1.1506175994873047,-0.021512717008590698,0.22894224524497986,-0.9732022881507874,0.1513955295085907,-0.16279539465904236,0.48676735162734985,0.6360062557574362,-0.065475055766744,-0.09545619600010061,0.7629528313292978,-0.23099092327346266,-0.022101484077840787,1.7492235268339873
1780494514041734656,2.5723986625671387,-6.468478679656982,-0.8956857323646545,1.2543216943740845,-0.026715388521552086,0.29460734128952026,-0.9552448987960815,0.18447601795196533,0.06986409425735474,0.38741958141326904,0.6284954594493813,-0.08426960006365089,-0.12359687797405007,0.7632928442027492,-0.29904460378953773,-0.027959768292262925,1.7596856595078547
1780494514051769856,2.5824337005615234,-4.580415725708008,-0.8728733062744141,1.361525058746338,-0.03202243149280548,0.3480322062969208,-0.936935544013977,0.20099826157093048,0.3001764118671417,0.18882763385772705,0.620086236055638,-0.09878452472360126,-0.14755967077869078,0.7641733971784236,-0.3554712558799174,-0.034164538791722224,1.7720912894179899
1780494514061804800,2.592468738555908,-3.811527729034424,-0.19040130078792572,1.1628812551498413,-0.03118181973695755,0.3867699205875397,-0.9216489195823669,0.13718461990356445,0.5495857000350952,-0.03585535287857056,0.6127870975944469,-0.11092122145826473,-0.16392688085519674,0.7650597974787998,-0.3971263371062045,-0.03381974490065518,1.7841273540474258
1780494514071838720,2.6025025844573975,-3.1347196102142334,-0.2816883325576782,1.3067630529403687,-0.02862042933702469,0.41921693086624146,-0.90743488073349,0.047938063740730286,0.6612120866775513,0.4007057547569275,0.6058202755220171,-0.121654438644552,-0.17743383035931662,0.7659629868042994,-0.4325826439065953,-0.03152947513183193,1.796296936900716
1780494514081873664,2.6125376224517822,-2.9879376888275146,-0.0470084585249424,1.1205542087554932,-0.024564078077673912,0.44672298431396484,-0.8943350315093994,0.07774095982313156,0.39348694682121277,0.19157624244689941,0.5990258385817755,-0.131316391639732,-0.18864911107312324,0.7670303134546747,-0.4630991781927143,-0.027459400114332587,1.809062634245686
1780494514091908608,2.622572660446167,-3.452455759048462,0.046046383678913116,0.960274875164032,-0.019957460463047028,0.47523340582847595,-0.879633367061615,0.05789081007242203,0.20427098870277405,0.11959314346313477,0.592887056422867,-0.14175753615282663,-0.20022013672112252,0.7670082339949426,-0.49522928638201014,-0.022684491947595458,1.819755853601099
1780494514101943808,2.6326076984405518,-4.726555824279785,-0.007320167496800423,0.8903064131736755,-0.015010662376880646,0.5107390880584717,-0.8596047163009644,0.14034634828567505,0.10585331916809082,0.07631003856658936,0.5863507562062322,-0.1548616845247255,-0.21497790429634495,0.7655032669277393,-0.5360442627570714,-0.017460510470484417,1.8295127935305797
1780494514111978752,2.6426427364349365,-5.95839786529541,-0.34018680453300476,0.6811915636062622,-0.012115178629755974,0.5565265417098999,-0.8307414650917053,0.10978668183088303,-0.0766223669052124,0.1721264123916626,0.5786879496940288,-0.1708732016317289,-0.23543917642691994,0.7618996050080137,-0.5901992255279938,-0.014582539008812049,1.838011041987639
1780494514122013696,2.6526777744293213,-6.36495304107666,-0.5328060388565063,0.32662200927734375,-0.012873312458395958,0.6073500514030457,-0.7943300604820251,0.08843483775854111,-0.07719868421554565,0.061465680599212646,0.570634873515652,-0.1877262160553387,-0.25998813710814406,0.7560033142372286,-0.6527206614100026,-0.016205084022617743,1.8429697911708878
1780494514132048896,2.662712812423706,-5.171202182769775,-0.6314237117767334,0.20886290073394775,-0.016067301854491234,0.653160810470581,-0.7570487260818481,0.09411600977182388,0.18692708015441895,-0.16983115673065186,0.5630707707987548,-0.202462392214144,-0.28369810564088366,0.7493167413230248,-0.7117511688198369,-0.021220417734422438,1.844853313981559
1780494514142083584,2.6727476119995117,-3.325361967086792,-0.594837486743927,0.2904914319515228,-0.01897585019469261,0.6847827434539795,-0.7285001873970032,0.0814606100320816,0.4694530963897705,-0.34587109088897705,0.5569180955857609,-0.2124632300626759,-0.30101374251011465,0.7443738631265804,-0.7543055560224996,-0.026041941714696863,1.84661911572574
1780494514152118784,2.6827826499938965,-1.924430012702942,-0.33415114879608154,0.3865854740142822,-0.020015288144350052,0.7035878896713257,-0.7103263139724731,0.03628116473555565,0.6713663339614868,-0.34780967235565186,0.5520375020630917,-0.21841301296157886,-0.3116610233620605,0.7419014375330639,-0.7804339736347993,-0.028170143318360315,1.85059627427147
1780494514162153728,2.6928176879882812,-1.1501835584640503,-0.07496459037065506,0.272807776927948,-0.01894904114305973,0.7142708897590637,-0.6996127963066101,-0.003374563530087471,0.6670615077018738,-0.45570647716522217,0.5488328295336727,-0.22239204583076994,-0.3173883885493267,0.7406678879618449,-0.7955817665771958,-0.027078420957336216,1.8547852172558477
1780494514172188672,2.702852725982666,-0.589904248714447,-0.03011229634284973,0.26499247550964355,-0.0174289271235466,0.7203530669212341,-0.6933885812759399,0.008761944249272346,0.49514681100845337,-0.27102792263031006,0.5468296259237131,-0.22499982866233195,-0.32043844451179865,0.7400484357860967,-0.8043112382251459,-0.02513058154547861,1.8581712515011843
1780494514182223872,2.712887763977051,-0.4330534040927887,0.09839188307523727,0.3000708222389221,-0.015189978294074535,0.7237218022346497,-0.6899246573448181,0.06566605716943741,0.27629339694976807,-0.19206386804580688,0.545245378850588,-0.22685311746483924,-0.3218312410755014,0.7400471709277492,-0.8091804125336237,-0.022013309814805888,1.8622045095326345
1780494514192258816,2.7229228019714355,-0.7558985352516174,0.10177769511938095,0.3917088806629181,-0.01184753142297268,0.7277718186378479,-0.685716986656189,0.012427370063960552,0.0662650465965271,-0.027036309242248535,0.5435503624227123,-0.22946614479389943,-0.3232441629531068,0.7398726125627385,-0.815067392033152,-0.017275863222945,1.8669202492537513
1780494514202293760,2.732957601547241,-1.014357089996338,0.019905727356672287,0.5515571236610413,-0.008116514421999454,0.7339401841163635,-0.6791654825210571,-0.06540034711360931,-0.1065140962600708,0.1906554102897644,0.5407392575799236,-0.2327742085687106,-0.3259346784180071,0.7397186297281654,-0.8241050488844981,-0.011950148254396128,1.8739009716400783
1780494514212328704,2.742992639541626,-1.2603801488876343,0.19370108842849731,0.3371340334415436,-0.0038180898409336805,0.7417328357696533,-0.6706845760345459,-0.0850338488817215,-0.10603642463684082,0.0715634822845459,0.537953204980476,-0.23714618672667012,-0.3292710179895085,0.7388832892366702,-0.8356502794862282,-0.005692763577073966,1.8804398093109593
1780494514222362880,2.7530267238616943,-1.51510751247406,0.025152821093797684,0.27650558948516846,-0.0008432958275079727,0.7509836554527283,-0.6603202223777771,-0.02289940044283867,0.15320634841918945,0.09687411785125732,0.5354008134217599,-0.24179407954673585,-0.33372971613568847,0.7372286116362866,-0.8495505264852119,-0.0012771006767373313,1.8847812235880443
1780494514232397824,2.763061761856079,-1.0707916021347046,-0.21884973347187042,0.2565057873725891,0.0005997001426294446,0.7601068615913391,-0.6497978568077087,0.051844771951436996,0.3479100465774536,0.025499701499938965,0.5324885974319167,-0.24559944811498174,-0.33879491045347565,0.7357682524870445,-0.8634775960608768,0.000922902366097524,1.889083513063596
1780494514242432768,2.773096799850464,0.2544589638710022,-0.34884393215179443,0.01711583510041237,-2.4596556613687426e-05,0.7626839280128479,-0.6467714309692383,-0.025076095014810562,0.3743094801902771,-0.23036479949951172,0.5309941147085167,-0.24591303581721785,-0.34079477019540655,0.7358199552830614,-0.8674527653326319,-3.802975369365332e-05,1.8913758812058123
1780494514252467712,2.7831315994262695,0.6424674391746521,-0.26095229387283325,-0.10291735827922821,-0.0028192622121423483,0.7593469023704529,-0.6506799459457397,-0.1479833424091339,0.5363531708717346,-0.22764647006988525,0.5312750308071998,-0.24313881358924505,-0.3399169717854748,0.7369443238474308,-0.8623088582628075,-0.004332766909418039,1.8903474273967034
1780494514262502656,2.7931666374206543,0.9688625931739807,0.17928287386894226,0.08097657561302185,-0.003207119181752205,0.754307746887207,-0.6565131545066833,-0.22634609043598175,0.6273603439331055,-0.21456527709960938,0.5321752354640287,-0.24090129578611538,-0.3372091026926617,0.7382723841185188,-0.8545990489680155,-0.004885041025680119,1.8902179684920573
1780494514272537600,2.803201675415039,1.4209319353103638,0.6304604411125183,0.21887531876564026,0.0006296556093730032,0.7462875843048096,-0.6656233668327332,-0.2604563236236572,0.32512354850769043,-0.21017009019851685,0.5337688279713951,-0.23943654524918626,-0.3314490259900232,0.7402044068094515,-0.8424671569842462,0.0009459635312699348,1.8925091026416263
1780494514282572800,2.813236713409424,1.3485419750213623,0.8934428095817566,0.4777880907058716,0.008522586897015572,0.7367027997970581,-0.6761628985404968,-0.16880092024803162,-0.02503293752670288,-0.1678159236907959,0.5354777952149534,-0.23912728623260374,-0.3236304825715663,0.7425260149553033,-0.8281813802605353,0.012603672808027133,1.8975627559756008
1780494514292607744,2.8232717514038086,0.7759312391281128,0.620804488658905,0.5669094324111938,0.01802811585366726,0.7293624877929688,-0.6838898658752441,0.024894848465919495,-0.20497894287109375,0.01753854751586914,0.5359935863077342,-0.24013455068524733,-0.3168445613662198,0.7447520996215253,-0.8173895887008806,0.026355036684920063,1.9053639575483512
1780494514302642944,2.8333067893981934,0.24714672565460205,0.12088839709758759,0.27425095438957214,0.023722197860479355,0.7258473038673401,-0.6874467134475708,0.15552279353141785,-0.2651234269142151,0.1603623628616333,0.5355299514849471,-0.24084692281241038,-0.3134795304027811,0.7462780713866499,-0.8122653654925531,0.03449400494004664,1.9115449038412056
1780494514312677632,2.843341588973999,-0.10375377535820007,-0.055442824959754944,0.11199947446584702,0.02500949241220951,0.7254064083099365,-0.6878662705421448,0.18035852909088135,-0.21277213096618652,0.10269170999526978,0.5349838418923908,-0.24098952653043523,-0.3130349993766646,0.7468101019474231,-0.8116246405279858,0.036342065440218445,1.9139672515708517
1780494514322712576,2.853376626968384,-0.23317062854766846,0.017386112362146378,0.2201901227235794,0.02604064531624317,0.7266322374343872,-0.6865329146385193,0.13970032334327698,-0.10146439075469971,0.1348819136619568,0.534097359633389,-0.24164646635747528,-0.31359294004634813,0.7469982361751586,-0.813407201041293,0.03791248421093489,1.9164903974915166
1780494514332747776,2.8634116649627686,-0.21286135911941528,0.20002728700637817,0.2273242026567459,0.028464384377002716,0.7281738519668579,-0.6848011016845703,0.094200998544693,-0.10691231489181519,0.1442432999610901,0.5331001389560376,-0.24302944607378082,-0.3139046779199125,0.7471309447272358,-0.8156537945920127,0.04154200284463182,1.9200453574522531
1780494514342782720,2.8734467029571533,-0.09840135276317596,0.21686673164367676,0.11474492400884628,0.03131314367055893,0.7291998863220215,-0.6835839748382568,0.11823824793100357,-0.17915105819702148,0.13625121116638184,0.5326199210963648,-0.24458499365375083,-0.3136657497289894,0.7470662709844638,-0.8171519749472493,0.04577531438481968,1.9226862140821697
1780494514352817664,2.883481740951538,0.10680479556322098,0.031449466943740845,0.03908904641866684,0.03272826969623566,0.7291957139968872,-0.68352210521698,0.19880861043930054,-0.1898127794265747,0.21938025951385498,0.5325421859495075,-0.2451876326628491,-0.31324427172825303,0.7471009950739935,-0.8171459044450997,0.047845260390304,1.9237645352165356
1780494514362852864,2.893516778945923,0.2848306894302368,-0.1359083652496338,-0.0347452312707901,0.03244069963693619,0.7278409600257874,-0.684978187084198,0.23118539154529572,-0.16872841119766235,0.14699912071228027,0.5326703873316713,-0.24448307279026354,-0.312632247040401,0.747496698309959,-0.8151681703762671,0.047324829546277994,1.923756467746174
1780494514372887552,2.9035515785217285,0.3954315185546875,-0.22785599529743195,-0.1658254861831665,0.03041304089128971,0.7254223227500916,-0.6876319050788879,0.14832840859889984,-0.09822505712509155,0.07662415504455566,0.5332213377653473,-0.24268283225022363,-0.3119120148730695,0.7479913608574044,-0.8116477532330795,0.04419985964746376,1.921962774077749
1780494514382922752,2.9135866165161133,0.2534908950328827,-0.15960024297237396,-0.010407401248812675,0.0281987264752388,0.7230430841445923,-0.6902272701263428,0.035567767918109894,0.02434772253036499,0.016750037670135498,0.533707740170028,-0.24079642122114459,-0.3112931996720909,0.748511760421541,-0.8081973435129324,0.040831556549790975,1.9202271577425856
1780494514392956672,2.9236207008361816,-0.0954633578658104,0.011465106159448624,0.15517011284828186,0.028317732736468315,0.7225323915481567,-0.6907568573951721,-0.053479474037885666,0.019288837909698486,-0.04341977834701538,0.5333669479517628,-0.2404739552433363,-0.31111711981271506,0.7489312285500842,-0.8074583493412639,0.040972283262654854,1.9214023522217496
1780494514402991872,2.9336557388305664,-0.3760915696620941,0.022290322929620743,0.13426296412944794,0.02962329424917698,0.7240921258926392,-0.6890668272972107,-0.11037280410528183,-0.19516146183013916,0.0637616515159607,0.5325321246778534,-0.24142857307280702,-0.3117352000125743,0.7489612916724899,-0.8097171750936976,0.04296399822933855,1.9238290377029
1780494514413026816,2.943690776824951,-0.6009020209312439,-0.04838251322507858,0.036413103342056274,0.03016604855656624,0.7275866270065308,-0.6853522658348083,-0.04367008060216904,-0.31671321392059326,0.12558364868164062,0.5315780856896958,-0.2428841242462549,-0.3135780019268032,0.7483989295607298,-0.8147974158094183,0.043987000612394446,1.9253840345390671
1780494514423061504,2.953725576400757,-0.4869304597377777,-0.09907418489456177,-0.06592951714992523,0.029639773070812225,0.7314670085906982,-0.6812323331832886,0.06090586632490158,-0.12381625175476074,0.13504397869110107,0.530848568645085,-0.24413944358070344,-0.31587934896390946,0.7475399461797075,-0.8204709070098631,0.04348162734171684,1.925524597521322
1780494514433096704,2.9637606143951416,-0.2425505369901657,-0.16334651410579681,0.00803845189511776,0.028349382802844048,0.7340099811553955,-0.678546667098999,0.1042952686548233,0.2199695110321045,0.09682059288024902,0.5302825098796612,-0.24450372357687306,-0.3177177752601448,0.7470433107351967,-0.8242077629905646,0.0417552785979419,1.925246052122863
1780494514443131648,2.9737956523895264,0.06067164987325668,-0.14323192834854126,0.09384230524301529,0.027776118367910385,0.7346646785736084,-0.6778615713119507,0.09459937363862991,0.4110109806060791,-0.07589209079742432,0.5297268945017876,-0.2443146584529866,-0.31840156683201787,0.7472082660634554,-0.8251722546426572,0.04095318123771769,1.9261167527786618
1780494514453166848,2.983830690383911,0.4944568872451782,-0.21660414338111877,0.120902419090271,0.027331000193953514,0.7326863408088684,-0.6800174713134766,-0.02060188353061676,0.3082529902458191,-0.17310142517089844,0.5293793948144426,-0.2430435397011691,-0.3176808019872928,0.7481752911600126,-0.8222608167064351,0.040169993887730716,1.927543346489336
1780494514463201792,2.993865728378296,0.6238186359405518,-0.08333850651979446,0.1605672687292099,0.027225185185670853,0.7287359237670898,-0.684253454208374,-0.17767684161663055,0.14228153228759766,-0.273052453994751,0.5292820820828443,-0.24112545959478174,-0.3158033812314867,0.749658142087992,-0.816474211718324,0.03976718241305079,1.929270761017693
1780494514473236736,3.0039007663726807,0.7411671280860901,-0.004121976904571056,0.12435920536518097,0.028161684051156044,0.7241209149360657,-0.6890978217124939,-0.233041450381279,0.13420122861862183,-0.33246278762817383,0.5294683345020794,-0.23950800064987784,-0.31318843224980863,0.7511406669501841,-0.8097589361359462,0.04084473810783572,1.9311041480657152
1780494514483271936,3.0139358043670654,1.082584261894226,0.014586463570594788,0.003120924811810255,0.028630131855607033,0.7177966237068176,-0.6956638693809509,-0.18245398998260498,0.1913524866104126,-0.286529004573822,0.5303362948353909,-0.23720732705156689,-0.3096784468165189,0.752711933892256,-0.800632529696511,0.04113190939549026,1.9314306347897647
1780494514493306624,3.023970603942871,1.4616317749023438,0.03755209967494011,0.03638407588005066,0.028871899470686913,0.708906888961792,-0.7047109603881836,-0.06419598311185837,0.3224499225616455,-0.2511606216430664,0.5318019883245904,-0.23393236829978253,-0.3048280889636976,0.7546802301450641,-0.7879471132276963,0.04094694562742738,1.930907482153338
1780494514503341568,3.034005641937256,1.8477102518081665,0.17410807311534882,0.0541502870619297,0.02996593527495861,0.6970935463905334,-0.7163536548614502,0.015566285699605942,0.3270915746688843,-0.09809941053390503,0.5337018244508331,-0.22998178822249296,-0.29821392108978284,0.7571916157855729,-0.7713357429731158,0.04180682969270755,1.9306293097218887
1780494514513376768,3.0440406799316406,1.522678017616272,0.1809685230255127,0.13462676107883453,0.032208412885665894,0.6845739483833313,-0.7282314896583557,-0.004101719707250595,0.1137048602104187,0.1386776566505432,0.5356704668819542,-0.22634434273249135,-0.29095102595712996,0.7597189123449563,-0.754019066982069,0.04419945598677429,1.9308274474430578
1780494514523411712,3.0540757179260254,1.0073318481445312,0.22044029831886292,0.11316833645105362,0.034522734582424164,0.6752162575721741,-0.7368114590644836,-0.06067631021142006,-0.19172626733779907,0.2599743604660034,0.5367782759179024,-0.2238236008141603,-0.2854772364644777,0.7617576774788659,-0.7412578306388641,0.04681998868678027,1.9320990635087778
1780494514533446912,3.06411075592041,0.8077437281608582,0.18681642413139343,-0.05043124780058861,0.036189932376146317,0.668633759021759,-0.7427107095718384,-0.07014073431491852,-0.33088046312332153,0.15010511875152588,0.5380339882754036,-0.22227075794309464,-0.2814966485765206,0.7628071822158736,-0.7323699348287235,0.04868831314757677,1.931672863536636
1780494514543481856,3.074145793914795,0.6617385745048523,0.18636848032474518,0.1168682649731636,0.037744659930467606,0.6632840037345886,-0.74741530418396,0.008245311677455902,-0.09768646955490112,0.20667433738708496,0.5389915012866985,-0.22108598012736902,-0.2782325215464665,0.763672552442779,-0.7251985023456712,0.05045738662452725,1.9315372988603372
1780494514553516288,3.0841803550720215,0.7936633229255676,0.258992075920105,0.15106084942817688,0.040412478148937225,0.6577162146568298,-0.7521809935569763,0.019325684756040573,0.006559908390045166,0.16323751211166382,0.5395291719957753,-0.22016370589775067,-0.2746588000432857,0.7648521061448695,-0.7177828774574596,0.0536754613632127,1.9330462472636907
1780494514563551488,3.0942153930664062,0.6272421479225159,0.3221481442451477,0.1294170767068863,0.043547194451093674,0.6521954536437988,-0.756799042224884,0.010880913585424423,-0.08887147903442383,0.18712735176086426,0.5402199587568115,-0.2195359831980746,-0.2709325396086054,0.7658733668340973,-0.7104770484144107,0.057477912667633614,1.934286198742923
1780494514573585152,3.1042492389678955,0.46962717175483704,0.2461424618959427,0.1232483983039856,0.04663194343447685,0.6480221152305603,-0.7601926326751709,0.09216202050447464,-0.1737179160118103,0.2902524471282959,0.5406910531079263,-0.21936803703777316,-0.2679203945784668,0.7666482992611308,-0.7049845986468121,0.06126550407403254,1.9356326810496953
1780494514583620352,3.1142842769622803,0.3427720367908478,0.1841648370027542,0.07193567603826523,0.04883092641830444,0.6448514461517334,-0.7627465128898621,0.11147792637348175,-0.2382352352142334,0.31242913007736206,0.5410796321510263,-0.21919165991079836,-0.26567228593156134,0.7672067747737241,-0.7008288962864481,0.06393261557841018,1.9364731627372183
1780494514593655296,3.124319314956665,0.1595015525817871,0.15141116082668304,0.1462770253419876,0.05085949972271919,0.6428574919700623,-0.7642954587936401,0.04481310397386551,-0.28003400564193726,0.27992045879364014,0.5411655838966084,-0.2193139763191897,-0.26410915021254977,0.7676507228193457,-0.698222955582266,0.06644632801044877,1.9376898449595297
1780494514603690496,3.13435435295105,-0.2082812488079071,0.07216906547546387,0.12081693112850189,0.05259725823998451,0.6429240107536316,-0.7641218900680542,-0.028610430657863617,-0.3175303339958191,0.1692885160446167,0.5407474689743548,-0.21996684183001639,-0.26373023007465873,0.7678888446928596,-0.6983097972912743,0.0687251920467223,1.9395435785188886
1780494514613725440,3.1443893909454346,-0.4582410454750061,0.01225633081048727,0.08333480358123779,0.05357091873884201,0.645463228225708,-0.7619103789329529,-0.04195898398756981,-0.204911470413208,-0.06841188669204712,0.5400497007812464,-0.22118403470059492,-0.2648064204461589,0.7676597770850601,-0.701629601011338,0.07019578879203962,1.941146106272255
1780494514623760128,3.1544241905212402,-0.6547170281410217,-0.05384146422147751,0.10074468702077866,0.05391046032309532,0.6497445106506348,-0.7582386136054993,-0.04135248064994812,0.011571407318115234,-0.17640799283981323,0.5390524340162216,-0.22272548359314548,-0.26697202197112735,0.7671647853409416,-0.7072482664067418,0.07098015321117063,1.9427921839362525
1780494514633795328,3.164459228515625,-0.7242838740348816,0.0068505131639540195,0.20997583866119385,0.05475239455699921,0.6549718976020813,-0.7536670565605164,-0.0670357197523117,0.1424676775932312,-0.13138848543167114,0.5376276650747603,-0.2247338045085894,-0.2695574131489656,0.7666746926348834,-0.7141454532386317,0.07252058823202144,1.9455341926340235
1780494514643830272,3.1744942665100098,-0.7088325023651123,0.10993242263793945,0.19057923555374146,0.05662708356976509,0.6602767109870911,-0.7488845586776733,-0.08421498537063599,0.10743880271911621,-0.06047213077545166,0.5360876392417587,-0.22720393560596472,-0.2719119158235566,0.7661934157052586,-0.7211871083939888,0.07547161674305111,1.9490453319673287
1780494514653865216,3.1845293045043945,-0.6138162016868591,0.1253100484609604,0.1761811226606369,0.058722950518131256,0.6651857495307922,-0.7443651556968689,-0.05109354853630066,0.07207316160202026,-0.03387880325317383,0.5348048338428877,-0.22971322138109365,-0.27395118225440607,0.7656150194869561,-0.7277425749061667,0.07872692569197356,1.9521103677483618
1780494514663900416,3.1945643424987793,-0.17955826222896576,0.08556556701660156,0.12519676983356476,0.06060729920864105,0.6682358384132385,-0.7414766550064087,0.02616944909095764,0.12978357076644897,-0.02623879909515381,0.5338520964461214,-0.23148405909145564,-0.27509417450574475,0.7653367207744901,-0.731834920432193,0.08155733513636641,1.9547135638794149
1780494514673935360,3.204599380493164,0.41297242045402527,0.003224086482077837,0.06384952366352081,0.061483610421419144,0.667306125164032,-0.7422414422035217,0.04067397862672806,0.21752053499221802,-0.06507062911987305,0.5337041089924336,-0.23143829317975498,-0.27443689189705306,0.765689631258895,-0.7305858771980689,0.08264637005427838,1.9557649315849508
1780494514683970304,3.2146341800689697,0.8120599389076233,-0.003072424791753292,0.08920653909444809,0.061981379985809326,0.6626092195510864,-0.7463962435722351,0.01498393714427948,0.2610357403755188,-0.1901424527168274,0.5341379254815355,-0.22987253270606653,-0.2719568130309033,0.7667429230643308,-0.7242971539209411,0.08285076240457265,1.9560721706739665
1780494514694005248,3.2246692180633545,1.0276092290878296,0.07093255966901779,0.0771528109908104,0.06279344856739044,0.655545175075531,-0.752540647983551,-0.06215260177850723,0.15307903289794922,-0.2144697904586792,0.5349071686916789,-0.22760917333355443,-0.2681860008878607,0.7682086645124003,-0.7149043329022708,0.08324908355341967,1.9562183241213698
1780494514704040192,3.2347042560577393,1.0767003297805786,0.149338960647583,-0.009871040470898151,0.06391355395317078,0.6474741101264954,-0.7594025731086731,-0.12041684985160828,-0.015424549579620361,-0.15545332431793213,0.5361243195636984,-0.22525487493074464,-0.26374029026976564,0.7695920550373007,-0.7042652978890733,0.08396506211215245,1.9555337399874886
1780494514714075392,3.244739294052124,1.1676321029663086,0.11624704301357269,-0.03629359230399132,0.06476341187953949,0.6390421986579895,-0.7664403915405273,-0.07622275501489639,-0.0538371205329895,-0.07622623443603516,0.5376545859525611,-0.22276673615136938,-0.2591424087116023,0.7708099205920106,-0.6932523764396128,0.0842987022973973,1.9539401991058927
1780494514724110336,3.254774332046509,1.3425301313400269,0.09997805953025818,-0.042592767626047134,0.06536324322223663,0.6292919516563416,-0.7744154930114746,0.004354171454906464,0.005549967288970947,-0.10925149917602539,0.5393325662341408,-0.2197188758031208,-0.2539997485284547,0.7722229549756535,-0.6806418287768556,0.08420375580127121,1.9521009891068233
1780494514734145280,3.2648093700408936,1.2904086112976074,0.06569891422986984,-0.10441672056913376,0.06555357575416565,0.6190417408943176,-0.782617449760437,0.011015035212039948,0.11600464582443237,-0.10904514789581299,0.5411724173356187,-0.21637836238452088,-0.24874016969477689,0.7735898532971912,-0.6675219659621485,0.08356688817436732,1.9497219549345033
1780494514744180224,3.274844169616699,1.2831120491027832,0.10901976376771927,-0.1221696138381958,0.06551238894462585,0.6089752316474915,-0.7904791831970215,0.0016110241413116455,0.20277702808380127,-0.10437250137329102,0.5431004183885825,-0.21306712387050544,-0.24364485312494547,0.7747784575631039,-0.6547680194335257,0.08268783944980358,1.9469279263522306
1780494514754214400,3.2848782539367676,1.1955095529556274,0.23856577277183533,-0.10728280991315842,0.0661356970667839,0.5991758704185486,-0.7978811264038086,-0.0187113955616951,0.15659189224243164,-0.09037870168685913,0.5450923397553114,-0.21019862367141756,-0.23848685351518797,0.7757672310595044,-0.642471370211772,0.08270010419799642,1.9441222172732497
1780494514764249344,3.2949132919311523,1.185030460357666,0.29139968752861023,0.025024091824889183,0.06814108043909073,0.5896625518798828,-0.8047701120376587,-0.011393636465072632,-0.008455276489257812,0.08952963352203369,0.5468359034437187,-0.20799206266698794,-0.2331399913319096,0.7767597215852791,-0.630640977718741,0.08447000572290633,1.9423559807014839
1780494514774284288,3.304948329925537,0.9605796337127686,0.14739485085010529,0.002093477174639702,0.07017362862825394,0.580729067325592,-0.8110668659210205,0.02551424503326416,-0.27466827630996704,0.268296480178833,0.548120463364553,-0.20589857335441733,-0.2281936331695726,0.7778801536381009,-0.6196239245200615,0.08630522446727223,1.941578296799639
1780494514784319488,3.314983367919922,0.351044625043869,0.023120297119021416,-0.0998038575053215,0.07048338651657104,0.5753114819526672,-0.8148919343948364,0.029721081256866455,-0.43543416261672974,0.20739376544952393,0.5491071816401673,-0.20429471774235577,-0.22542784679917585,0.778413376862873,-0.612984929927636,0.08627941865027797,1.9402058478416402
1780494514794354176,3.3250181674957275,-0.1439155787229538,0.03583822399377823,-0.08308693021535873,0.07014813274145126,0.5747804641723633,-0.8152954578399658,0.013607360422611237,-0.3003664016723633,0.11180424690246582,0.5495869795225684,-0.20408877465976796,-0.2251667085780561,0.7782042715000635,-0.612335831578171,0.08582875653075361,1.938956117452897
1780494514804389120,3.3350532054901123,-0.0936388224363327,0.0682893767952919,-0.09951836615800858,0.0701037049293518,0.5760658979415894,-0.814391553401947,0.0033520981669425964,-0.07876670360565186,0.10902351140975952,0.5498143862292135,-0.20461552980303283,-0.22569163951516996,0.7777531022163162,-0.6139075198943246,0.08586940448900318,1.9381066702967726
1780494514814424320,3.345088243484497,0.14960604906082153,0.09387409687042236,-0.21309871971607208,0.06990587711334229,0.5759039521217346,-0.8145231008529663,0.036783576011657715,0.10421079397201538,0.02123391628265381,0.5505520589354636,-0.20468247069910456,-0.22548514270796408,0.7772734471068341,-0.6137094310308403,0.085614513560326,1.9361703102812162
1780494514824459264,3.355123281478882,0.31588980555534363,0.09416703879833221,-0.20331160724163055,0.06944883614778519,0.5741910338401794,-0.8157705068588257,0.12044679373502731,0.2696809768676758,-0.09812414646148682,0.5517763738430503,-0.204196162960861,-0.22454105873184776,0.7768063181959076,-0.6116157559915754,0.08492803460274626,1.9331907056686346
1780494514834494464,3.3651583194732666,0.6442272663116455,0.0036414042115211487,-0.09240666031837463,0.0690685510635376,0.5703887343406677,-0.8184657692909241,0.1725391149520874,0.22169500589370728,-0.08267253637313843,0.5528729138951909,-0.20292457483175716,-0.22268525157851168,0.7768941793607587,-0.6069790735980396,0.08418836703244768,1.930974063415719
1780494514844529408,3.3751933574676514,0.7243236899375916,-0.07370185106992722,-0.1827850341796875,0.06795372813940048,0.5646311044692993,-0.8225411772727966,0.06372961401939392,-0.053049683570861816,-0.02369600534439087,0.5540185356487974,-0.20062240907598364,-0.2201818806688392,0.7773892566002482,-0.5999862483912799,0.0824271888666458,1.9287511252826923
1780494514854564352,3.385228395462036,0.5215436816215515,0.07607126235961914,-0.3300301432609558,0.06644484400749207,0.5596434473991394,-0.8260655403137207,-0.08831068873405457,-0.2121703028678894,-0.0435023307800293,0.5556555254673291,-0.19858002674720188,-0.21802108983444876,0.7773543326077985,-0.5939555096380856,0.08026251591269266,1.9249828299314475
1780494514864599296,3.395263195037842,0.42840489745140076,0.1602734923362732,-0.4057600796222687,0.06542549282312393,0.5559948086738586,-0.8286068439483643,-0.09839972853660583,-0.10877496004104614,-0.06934237480163574,0.5576989147954092,-0.19736017077315146,-0.2162071574717957,0.7767080954672292,-0.5895593382592371,0.07879494695830323,1.9200806950830411
1780494514874634240,3.4052982330322266,0.38718822598457336,0.17087699472904205,-0.43236851692199707,0.06451090425252914,0.5529661178588867,-0.8307026028633118,-0.0021329671144485474,0.09095478057861328,-0.03178519010543823,0.5599362663437955,-0.1964663831181826,-0.21459182262237642,0.7757724017599654,-0.5859199635957786,0.07750269399429953,1.9145938392454127
1780494514884669184,3.4153332710266113,0.5294250249862671,0.0828520655632019,-0.4467964470386505,0.06316810846328735,0.5494428277015686,-0.8331400752067566,0.07559531927108765,0.1771959662437439,0.03269451856613159,0.5622061849588503,-0.1952115190103587,-0.21289061706972753,0.7749157197884396,-0.5816972323380407,0.07567452376854567,1.9089749631599757
1780494514894704384,3.425368309020996,0.5350717306137085,0.06867646425962448,-0.5060986280441284,0.06118985638022423,0.5452075600624084,-0.836064875125885,0.08950594067573547,0.12604182958602905,0.007405877113342285,0.564678173443897,-0.19347436938943824,-0.21103368936456504,0.7740614313993543,-0.5766367222508574,0.07305767043867717,1.9027655493010598
