time,seconds_elapsed,rotationRateX,rotationRateY,rotationRateZ,gravityX,gravityY,gravityZ,accelerationX,accelerationY,accelerationZ,quaternionW,quaternionX,quaternionY,quaternionZ,pitch,roll,yaw
1780495476724417280,0.4410421848297119,-0.06960859149694443,-0.06389915943145752,0.020653046667575836,0.08678506314754486,-0.47347965836524963,-0.8765189051628113,-0.024910658597946167,0.040969282388687134,-0.01599818468093872,-0.8490039894590313,-0.19265289302587654,-0.15692489579189853,-0.46631706323208144,0.49323715171001564,0.09868940744711936,0.9796740159055977
1780495476734451200,0.4510762691497803,-0.09452938288450241,-0.062191806733608246,0.03694653511047363,0.08580806851387024,-0.47396621108055115,-0.876352071762085,-0.019951142370700836,0.016828149557113647,-0.010534524917602539,-0.8488967172877065,-0.193101032333637,-0.15663953426244334,-0.46642294954002594,0.49378962572106155,0.09760393077269461,0.9802174919094452
1780495476744486400,0.46111130714416504,-0.1696835309267044,-0.07042310386896133,0.04457968473434448,0.08457934856414795,-0.4738891124725342,-0.8765132427215576,-0.0007170513272285461,-0.02064824104309082,-0.0008671283721923828,-0.8488246092011353,-0.19332696150286935,-0.15610275910831117,-0.4666404906802319,0.49370205594733196,0.0961973982166629,0.9810426031967914
1780495476754521088,0.4711461067199707,-0.2845163941383362,-0.0601479597389698,0.06034639850258827,0.08350484073162079,-0.4724232852458954,-0.8774070739746094,0.0034092366695404053,-0.052158623933792114,0.004741668701171875,-0.8488977684242404,-0.19284229040284026,-0.155268526502272,-0.466986187565788,0.4920382161501583,0.09488649115254268,0.9820102539113088
1780495476764556288,0.48118114471435547,-0.35617804527282715,-0.047954678535461426,0.05437985435128212,0.08271905034780502,-0.4697848856449127,-0.8788968920707703,-0.004151538014411926,-0.05458340048789978,-0.0030153393745422363,-0.8490885572184952,-0.19172050462589849,-0.15425566850070382,-0.4674366953658225,0.48904709266622387,0.09384047057011358,0.9830474516130188
1780495476774590208,0.49121522903442383,-0.28444740176200867,-0.04850315675139427,0.04618051275610924,0.08215843886137009,-0.46698862314224243,-0.8804383277893066,-0.0032857581973075867,-0.03157705068588257,0.00020456314086914062,-0.8493210433892863,-0.1904802490625736,-0.15329095999510134,-0.4678386222180597,0.4858821916709969,0.09304593704890277,0.9838975731849923
1780495476784625408,0.5012502670288086,-0.18460415303707123,-0.03861617296934128,0.04749744385480881,0.08160770684480667,-0.46468478441238403,-0.8817076086997986,0.002941228449344635,0.003075927495956421,0.003426969051361084,-0.8495107116984424,-0.18948118657296276,-0.1524568441435738,-0.4681724379237228,0.48327858883625974,0.09229347965089278,0.9846262257308064
1780495476794660352,0.5112853050231934,-0.09373469650745392,-0.028525052592158318,0.0434904545545578,0.08101020008325577,-0.4631085991859436,-0.8825914859771729,0.0007463768124580383,0.043781816959381104,0.0040514469146728516,-0.8496049548394328,-0.188839819341075,-0.15180173421236634,-0.46847325658895433,0.4814993794500556,0.09153027687792455,0.9853503521010575
1780495476804695040,0.521320104598999,-0.06925385445356369,-0.035191215574741364,0.04936778172850609,0.08037137985229492,-0.46215566992759705,-0.883149266242981,0.004391193389892578,0.042447417974472046,-0.009230494499206543,-0.8496317341338289,-0.18850880510615117,-0.15129376767366853,-0.468722378604345,0.48042451353087856,0.0907554401429281,0.9860157937963822
1780495476814729216,0.5313541889190674,-0.15215753018856049,-0.05932917073369026,0.07771074026823044,0.07949938625097275,-0.46121424436569214,-0.8837201595306396,0.017104007303714752,0.012163341045379639,0.0013959407806396484,-0.8496165465670453,-0.18822631127559253,-0.15070098372175617,-0.469054273683269,0.4793632162970058,0.08971840968819321,0.9869347721943865
1780495476824764160,0.5413892269134521,-0.3010873794555664,-0.06934691965579987,0.07364915311336517,0.07860269397497177,-0.45971202850341797,-0.8845826387405396,0.01964864879846573,-0.02632617950439453,0.02583324909210205,-0.8496417338976401,-0.1876750176029103,-0.14995587557523973,-0.4694680361329517,0.4776709118568873,0.08862574155327566,0.988002892575184
1780495476834799360,0.5514242649078369,-0.47986218333244324,-0.041068144142627716,0.08451911062002182,0.07781842350959778,-0.4570879638195038,-0.8860107064247131,-0.0008073076605796814,-0.045277148485183716,0.04369497299194336,-0.8497683985788173,-0.18655475944753236,-0.1489697388692883,-0.46999908300324245,0.4747183499392034,0.08760531193857748,0.9892200993410438
1780495476844834304,0.5614593029022217,-0.6232004165649414,-0.028921999037265778,0.10036172717809677,0.07709228992462158,-0.4529319107532501,-0.8882057666778564,-0.01772034913301468,-0.02993243932723999,0.039420366287231445,-0.8500010935375187,-0.18467360995634363,-0.14762377366954252,-0.4707452455475982,0.47005118531593465,0.08657855382447883,0.9907949004961201
1780495476854868224,0.5714931488037109,-0.5857747197151184,-0.06034304201602936,0.11059784889221191,0.07622305303812027,-0.4480430483818054,-0.8907567262649536,-0.01268545538187027,-0.01561051607131958,0.04166615009307861,-0.8502772629515639,-0.18247400175285616,-0.14603043842984173,-0.4716005310241111,0.4645751872070633,0.08536317297821894,0.9925974020798268
1780495476864903168,0.5815281867980957,-0.43813443183898926,-0.09673567116260529,0.09217197448015213,0.07507450133562088,-0.44356802105903625,-0.8930908441543579,0.001814529299736023,-0.011586397886276245,-0.0010894536972045898,-0.8505620806925361,-0.18056327181675325,-0.14440044519032955,-0.4723235907443278,0.45957586285896507,0.08386427230897099,0.9941896550618559
1780495476874938368,0.5915632247924805,-0.3761885166168213,-0.12871170043945312,0.1207687258720398,0.07358177751302719,-0.4400402009487152,-0.8949583172798157,0.002452760934829712,0.01435050368309021,-0.027404963970184326,-0.8507614856868937,-0.17919577479759005,-0.14286259756421305,-0.4729525931692502,0.4556434392105143,0.08203359618464137,0.9957197755264646
1780495476884973312,0.6015982627868652,-0.3919224739074707,-0.1488981992006302,0.12860241532325745,0.07177980989217758,-0.43673235177993774,-0.896723210811615,0.0023778975009918213,0.023142874240875244,-0.014577388763427734,-0.8508984036797921,-0.1780002446884846,-0.1412597247067375,-0.4736385094059515,0.4519630738352887,0.07987647046230986,0.9974699870703725
1780495476895008256,0.61163330078125,-0.4750993847846985,-0.13657855987548828,0.11450763791799545,0.06995229423046112,-0.43297553062438965,-0.8986873030662537,-0.006323136389255524,-0.01578545570373535,0.004857957363128662,-0.8510925833980113,-0.17660732337240623,-0.13952133153373433,-0.4743258763736726,0.4477911498364761,0.07768166924045805,0.9991849291622312
1780495476905042176,0.6216671466827393,-0.6505427956581116,-0.11055734008550644,0.10817224532365799,0.06834883987903595,-0.42800793051719666,-0.9011867642402649,-0.02394576370716095,-0.033112674951553345,0.05491912364959717,-0.8514065062973373,-0.1745949673304396,-0.13756162638504218,-0.4750792300711291,0.4422874525442997,0.07569822534023754,1.0008926244985679
1780495476915077120,0.631702184677124,-0.8205326199531555,-0.05357341468334198,0.11130572110414505,0.06715993583202362,-0.4213789403438568,-0.9043944478034973,-0.04088430851697922,-0.011924892663955688,0.060522377490997314,-0.8518468398510054,-0.17169955254694155,-0.13535889037823495,-0.4759772245167463,0.43496530845885584,0.07412350639377475,1.0026997647735774
1780495476925112320,0.6417372226715088,-1.0112261772155762,-0.045464888215065,0.11220533400774002,0.06628686189651489,-0.4131697118282318,-0.9082382917404175,-0.035433582961559296,-0.0056535303592681885,0.04210364818572998,-0.8465911375311342,-0.16637766277776617,-0.134904837123278,-0.4872397403767235,0.42593201599823427,0.0728548203699839,1.0287058363587331
1780495476935147264,0.6517722606658936,-1.2687275409698486,-0.09373161941766739,0.13428106904029846,0.0651967003941536,-0.4027981758117676,-0.9129638671875,-0.014583289623260498,-0.03264188766479492,0.0076904296875,-0.8472831466221302,-0.1617584530778237,-0.1317279946011405,-0.4884601694094881,0.41457195156420906,0.07129110864882846,1.030925272421353
1780495476945181184,0.6618061065673828,-1.3168926239013672,-0.17383791506290436,0.13429732620716095,0.06342754513025284,-0.3908427655696869,-0.9182695150375366,0.013430975377559662,-0.08828321099281311,-0.03133070468902588,-0.8480854110833356,-0.1566007400610157,-0.12783371410776406,-0.48978143438620136,0.40154700936496224,0.06896337212083263,1.0334030709395259
1780495476955216128,0.6718411445617676,-1.1628456115722656,-0.2598731815814972,0.11027693748474121,0.06092948839068413,-0.3793323338031769,-0.9232521653175354,0.018629837781190872,-0.11889764666557312,-0.0884513258934021,-0.8488914008515459,-0.1518781736556111,-0.12372119527093488,-0.49092712242160114,0.38907458954794627,0.06589885800871499,1.0356563662061187
1780495476965251328,0.6818761825561523,-0.7763225436210632,-0.24979472160339355,0.05768190696835518,0.058228760957717896,-0.3703136444091797,-0.9270799160003662,0.0007922351360321045,-0.038240402936935425,-0.08328074216842651,-0.8495821507443452,-0.1484016937759911,-0.12015394693153367,-0.49168083614869157,0.3793466492276472,0.06272638260998287,1.0372235457243706
1780495476975286272,0.6919112205505371,-0.400723934173584,-0.22388070821762085,0.06286361813545227,0.05579964071512222,-0.3649378716945648,-0.9293582439422607,-0.024961624294519424,0.12452039122581482,-0.0018398761749267578,-0.8500148571258792,-0.14654828631943037,-0.11766257863449509,-0.4920911879502808,0.3735660778604279,0.05996905249665794,1.0382148804054978
1780495476985320448,0.7019453048706055,-0.11343889683485031,-0.19768638908863068,0.06798620522022247,0.053584713488817215,-0.3626135587692261,-0.9303978085517883,-0.030528679490089417,0.22322452068328857,0.01841050386428833,-0.8501558320281175,-0.14602907106574703,-0.1160887804533091,-0.4923759145611599,0.3710708119502402,0.057529782366490125,1.0391086247714867
1780495476995355136,0.7119801044464111,-0.01974090188741684,-0.19623136520385742,0.0483027845621109,0.05156226456165314,-0.36220839619636536,-0.930669903755188,-0.023928608745336533,0.17026808857917786,0.015173077583312988,-0.8501611915386862,-0.1463434151460203,-0.1151028479427833,-0.4925048467197045,0.37063609266640196,0.055346806598135935,1.0397528316801234
1780495477005390080,0.7220151424407959,-0.20165424048900604,-0.21324576437473297,0.06689244508743286,0.049449797719717026,-0.36132320761680603,-0.9311285018920898,-0.013408530503511429,0.03148922324180603,0.030829429626464844,-0.8502147117483427,-0.1464641727161156,-0.11394738422868474,-0.49264501262288274,0.36968658609796223,0.053057539036809515,1.040400431739665
1780495477015425280,0.7320501804351807,-0.43681618571281433,-0.22717702388763428,0.11597051471471786,0.047070592641830444,-0.35839033126831055,-0.9323844313621521,-0.004513826221227646,-0.07503557205200195,0.0410270094871521,-0.8503512062008013,-0.1457006554401119,-0.11215660908831883,-0.4930465917159787,0.3665431092009997,0.05044128084413736,1.0415396943880337
1780495477025459200,0.742084264755249,-0.7563642859458923,-0.23127403855323792,0.12998832762241364,0.044464558362960815,-0.3529246151447296,-0.9345946311950684,-0.0006565786898136139,-0.12853595614433289,0.03391408920288086,-0.8505963091548792,-0.14382457518629896,-0.10962288230199106,-0.49374412861272365,0.3606950194499041,0.047540457147300735,1.0431986350768683
1780495477035494400,0.7521193027496338,-1.147348165512085,-0.2181011140346527,0.1361660659313202,0.04189136251807213,-0.344060480594635,-0.9380125403404236,-0.0033781826496124268,-0.12481158971786499,0.038247525691986084,-0.851071338079877,-0.14040065601989885,-0.10621389644544238,-0.4946552561087302,0.351237983878284,0.04463004749932342,1.0450638839877577
1780495477045529088,0.7621541023254395,-1.3067854642868042,-0.23723246157169342,0.1509908139705658,0.03925898298621178,-0.3322831988334656,-0.9423622488975525,0.0014362148940563202,-0.09558850526809692,0.02625507116317749,-0.8516996442187971,-0.13568119115276203,-0.10202690919447104,-0.4957709346599135,0.33872329038045046,0.041636105499937084,1.0471807008908507
1780495477055564288,0.7721891403198242,-1.0754984617233276,-0.21015730500221252,0.12804049253463745,0.03670260310173035,-0.32085540890693665,-0.9464167952537537,0.0016427338123321533,-0.05783718824386597,-0.05071455240249634,-0.852274356516419,-0.13112404999934024,-0.09796988339413719,-0.49682661949682005,0.3266325244312976,0.03876116732386668,1.049176912847125
1780495477065599232,0.782224178314209,-0.7161513566970825,-0.18999530375003815,0.13449759781360626,0.034374624490737915,-0.312389075756073,-0.9493321180343628,-0.009121332317590714,0.026790350675582886,-0.03424942493438721,-0.8526286736302913,-0.1278613014575176,-0.09479153109031645,-0.4976851019764545,0.31770694803608684,0.03619346035610049,1.0509071411225284
1780495477075633408,0.7922582626342773,-0.45895102620124817,-0.15861061215400696,0.13254229724407196,0.03230893239378929,-0.30689382553100586,-0.9511951804161072,-0.01102292537689209,0.10799553990364075,-0.012412548065185547,-0.8527366768954135,-0.1258693761041018,-0.09251648658532682,-0.4984352641173591,0.3119276410874684,0.033953613838271515,1.0525681708421388
1780495477085668352,0.8022933006286621,-0.28718727827072144,-0.13635563850402832,0.12110162526369095,0.030536387115716934,-0.3033772110939026,-0.9523811340332031,-0.015140267089009285,0.1288166642189026,0.000202178955078125,-0.8527253909995213,-0.12469816616644919,-0.090883511959037,-0.4990489132785955,0.3082349237633356,0.03205222128958676,1.054011710184771
1780495477095703040,0.8123281002044678,-0.20049522817134857,-0.12280495464801788,0.1423882693052292,0.028939561918377876,-0.30116406083106995,-0.9531331062316895,-0.013818103820085526,0.08448922634124756,0.008751392364501953,-0.8526007751975859,-0.12406392534670428,-0.08967489698837297,-0.4996384402675663,0.30591314364481426,0.03035323469647399,1.0554691368300608
1780495477105738240,0.8223631381988525,-0.29233357310295105,-0.13437744975090027,0.15435758233070374,0.027262315154075623,-0.298953652381897,-0.9538781046867371,-0.0020242854952812195,0.011920571327209473,0.012853384017944336,-0.8524309298889199,-0.12344575694903072,-0.08844251760809282,-0.5003005476401403,0.30359596248985826,0.02857272341659079,1.057107193830585
1780495477115772160,0.8323972225189209,-0.5408549308776855,-0.14268958568572998,0.1272476613521576,0.025510458275675774,-0.2950749397277832,-0.9551334977149963,0.00039895810186862946,-0.0512690544128418,0.04125410318374634,-0.8523878445809405,-0.1221080479915131,-0.08673451302613625,-0.5010006860629811,0.2995339423775932,0.02670243918550337,1.0587143002595902
1780495477125807360,0.8424322605133057,-0.7651905417442322,-0.13998088240623474,0.1316693127155304,0.023781539872288704,-0.28876426815986633,-0.9571048021316528,-0.008858444169163704,-0.07820957899093628,0.06925696134567261,-0.8525304268596993,-0.119691154929139,-0.08438966942613947,-0.5017412589064636,0.29293586227790624,0.024842261130599966,1.0602236146490205
1780495477135842304,0.8524672985076904,-0.8443692922592163,-0.10072122514247894,0.18261398375034332,0.022153930738568306,-0.28095540404319763,-0.9594650864601135,-0.016141965985298157,-0.06969156861305237,0.053993284702301025,-0.8526685124017549,-0.1165754035886008,-0.0817167542202267,-0.5026818365906905,0.2847894706316021,0.023085774436664572,1.0620752485049434
1780495477145877248,0.8625020980834961,-0.7805370092391968,-0.09213439375162125,0.17349745333194733,0.02074406109750271,-0.27306482195854187,-0.9617719650268555,-0.016380049288272858,-0.05283239483833313,-0.005574226379394531,-0.8527116413538853,-0.11336465960205636,-0.07913580546106454,-0.5037548073158575,0.2765774902105632,0.021565241779993846,1.0642058803433998
1780495477155911168,0.8725361824035645,-0.5854071974754333,-0.10963229089975357,0.15584149956703186,0.019361916929483414,-0.26641717553138733,-0.9636633396148682,-0.011885114014148712,-0.03408941626548767,-0.061650991439819336,-0.8527297087444753,-0.11071686061794742,-0.07687728192348792,-0.504661919479269,0.2696739509541728,0.020089291016264076,1.0660397119961844
1780495477165946368,0.8825712203979492,-0.3831055462360382,-0.14617273211479187,0.16780388355255127,0.01769401691854,-0.2618228495121002,-0.9649537205696106,0.004293894395232201,-0.0015438199043273926,-0.05485212802886963,-0.8526340608608839,-0.10905877244801473,-0.07502877292382809,-0.5054621287385824,0.2649104619582701,0.018334592407010127,1.067810040724306
1780495477175981312,0.892606258392334,-0.3158993422985077,-0.16874901950359344,0.1815444678068161,0.015682663768529892,-0.2585946321487427,-0.9658586382865906,0.009723225608468056,0.025013089179992676,-0.024970829486846924,-0.852432436551812,-0.10809277835107738,-0.07339375145867849,-0.5062491967893002,0.2615670699374176,0.016235591911873824,1.0696905965238783
1780495477186016256,0.9026412963867188,-0.38309913873672485,-0.13978473842144012,0.16708536446094513,0.013699661009013653,-0.2552641034126282,-0.9667742848396301,-0.000683911144733429,0.02314743399620056,0.004738211631774902,-0.8522325752966702,-0.10707795187035607,-0.07174371409942161,-0.5070371523951169,0.2581208365822405,0.014169536717344146,1.0715592931415194
1780495477196050176,0.912675142288208,-0.4565821588039398,-0.10689296573400497,0.16648295521736145,0.012102731503546238,-0.25119659304618835,-0.9678604006767273,-0.021013867110013962,0.013586759567260742,0.04909825325012207,-0.8520789699563072,-0.10564427491224407,-0.07006478838428216,-0.5078303301563387,0.2539162743021964,0.012503973036334954,1.0733350514746687
1780495477206085120,0.9227101802825928,-0.5454773902893066,-0.11125921458005905,0.18496635556221008,0.010614498518407345,-0.24635902047157288,-0.9691205024719238,-0.02419482171535492,0.016424328088760376,0.06259584426879883,-0.8519286866756453,-0.10384366690255724,-0.06823662248296529,-0.5087020560004838,0.24892167984935432,0.010952274859405123,1.0752253397008635
1780495477216120320,0.9327452182769775,-0.5965139269828796,-0.13026607036590576,0.16343523561954498,0.009009651839733124,-0.24078162014484406,-0.9705374836921692,-0.021704964339733124,0.03451332449913025,0.041048407554626465,-0.8518152749964379,-0.10175407871398122,-0.06616158570288151,-0.5095876655460921,0.24317107644086028,0.009282890092666283,1.0771105931716243
1780495477226155264,0.9427802562713623,-0.515942394733429,-0.1361130326986313,0.15106138586997986,0.00737624941393733,-0.23523850739002228,-0.9719097018241882,-0.03165298327803612,0.05213303864002228,0.03987234830856323,-0.8517547941905399,-0.09970079103200248,-0.06406955658867307,-0.510361319850655,0.2374639473445159,0.007589293367281298,1.0787392749740565
1780495477236190208,0.9528152942657471,-0.2900767922401428,-0.15253940224647522,0.18801407516002655,0.005601065699011087,-0.23130656778812408,-0.9728648066520691,-0.04577745497226715,0.06289531290531158,0.04004925489425659,-0.8515748315525837,-0.09839091716554742,-0.06234445756603224,-0.5111288681521888,0.2334204508545527,0.00575722732222187,1.0804816867608393
1780495477246224128,0.9628491401672363,-0.24106982350349426,-0.16405172646045685,0.19826911389827728,0.0036052451469004154,-0.2288936823606491,-0.9734447598457336,-0.03775441274046898,0.054043203592300415,-0.012028872966766357,-0.8512376733234548,-0.09779707177861519,-0.06093730861711574,-0.5119735112627577,0.2309410378588661,0.003703578094562988,1.0825346481331004
1780495477256259328,0.9728841781616211,-0.3665233552455902,-0.20297981798648834,0.17562797665596008,0.001430806703865528,-0.22594639658927917,-0.9741386771202087,-0.03055984154343605,0.02036471664905548,-0.04345470666885376,-0.8509694270806926,-0.09702448246351611,-0.059303494113908,-0.5127577677785946,0.22791444155680618,0.0014687905417273804,1.084427395599044
1780495477266294272,0.9829192161560059,-0.4606080651283264,-0.2446252554655075,0.24272365868091583,-0.0012340634129941463,-0.22187046706676483,-0.975075364112854,-0.008287418633699417,-0.04120631515979767,-0.022086501121520996,-0.8507058693505509,-0.095885146497565,-0.057169527403627296,-0.5136508208914424,0.22373232715636793,-0.0012656075428465366,1.086550728476912
1780495477276329216,0.9929542541503906,-0.6667358875274658,-0.2806554138660431,0.2560575604438782,-0.004408222157508135,-0.2164379060268402,-0.9762864112854004,0.0183547530323267,-0.0963062196969986,-0.018220365047454834,-0.8503772027652293,-0.09427942269140574,-0.05448094767643404,-0.5147832431032454,0.21816440233861156,-0.004515265248341925,1.0891952838977401
1780495477286363136,1.0029881000518799,-0.8562448620796204,-0.2830362915992737,0.2217765748500824,-0.007693530526012182,-0.20885628461837769,-0.9779160618782043,0.00932621955871582,-0.09512929618358612,0.02065598964691162,-0.8502027653429817,-0.09178295299016735,-0.051164914087974495,-0.5158617714027999,0.2104053088696373,-0.007867108389025795,1.0915688294601504
1780495477296398080,1.0130231380462646,-0.7153934240341187,-0.25604167580604553,0.24186426401138306,-0.010864469222724438,-0.20087213814258575,-0.97955721616745,-0.018173005431890488,-0.016977593302726746,0.05453890562057495,-0.8500473814326803,-0.08909406815548232,-0.04778741053996617,-0.5169120524688513,0.20224812145943194,-0.011090749147945538,1.0938305880360149
1780495477306433280,1.0230581760406494,-0.43464118242263794,-0.19285660982131958,0.25194910168647766,-0.013571183197200298,-0.19524715840816498,-0.9806601405143738,-0.04195554554462433,0.06522703170776367,0.0025107860565185547,-0.8496966129063249,-0.08730978863493585,-0.04524285720756412,-0.5180208856327204,0.1965094471547324,-0.013837940177352851,1.096339477008784
1780495477316468224,1.0330932140350342,-0.31468573212623596,-0.12256833165884018,0.19388821721076965,-0.015541710890829563,-0.19160304963588715,-0.9813494682312012,-0.05434354394674301,0.12129056453704834,-0.002247333526611328,-0.8493027675837728,-0.08620140361690652,-0.04352695648161416,-0.5189987443689578,0.19279520101214023,-0.01583575779690716,1.098596632453923
1780495477326502400,1.0431272983551025,-0.24291911721229553,-0.0994289219379425,0.1569128781557083,-0.016897380352020264,-0.18882982432842255,-0.9818644523620605,-0.04506855830550194,0.13594287633895874,0.016715526580810547,-0.8489990697907753,-0.08532301370650802,-0.042281964202958884,-0.5197429945963625,0.1899704003597274,-0.017207785771702764,1.1002987033250622
1780495477336537088,1.0531620979309082,-0.2144957333803177,-0.15130864083766937,0.1783454716205597,-0.018440254032611847,-0.18663106858730316,-0.9822570085525513,-0.008811939507722855,0.08387838304042816,-0.00040900707244873047,-0.8486871048134295,-0.08474605646771739,-0.04110487047507367,-0.520440743240602,0.18773184095073106,-0.01877114489160099,1.1019490796885871
1780495477346572288,1.063197135925293,-0.34629613161087036,-0.20313774049282074,0.19514548778533936,-0.020517362281680107,-0.1838971972465515,-0.9827313423156738,0.025003444403409958,-0.0013445019721984863,-0.012172222137451172,-0.8483490791301392,-0.08407748634614903,-0.039564043280182246,-0.5212192080111572,0.1849498050324177,-0.02087486323945159,1.1038059005088556
1780495477356606976,1.0732319355010986,-0.4530707895755768,-0.24735046923160553,0.21484382450580597,-0.023146705701947212,-0.17981165647506714,-0.9834287166595459,0.026061134412884712,-0.061734989285469055,-0.0049593448638916016,-0.8480285653771307,-0.08297234812316683,-0.03743316954263842,-0.5220745309448898,0.1807949787004485,-0.023532394996025108,1.1058036231598312
1780495477366641152,1.083266019821167,-0.4665690064430237,-0.24470223486423492,0.20210805535316467,-0.025953399017453194,-0.17520815134048462,-0.9841892719268799,0.007627591490745544,-0.09162229299545288,-0.026034116744995117,-0.8477124754527903,-0.08169508214876893,-0.03508955975011115,-0.5229513939475711,0.1761171835568914,-0.0263642231617535,1.107830323217312
1780495477376676096,1.0933010578155518,-0.44408419728279114,-0.21639442443847656,0.1863623857498169,-0.02856820449233055,-0.17059046030044556,-0.984927773475647,-0.02355581894516945,-0.06779760122299194,-0.03417617082595825,-0.847434805558699,-0.08036916856994185,-0.032816170340365665,-0.5237539154478116,0.17142887863152848,-0.02899724860679077,1.109658259681412
1780495477386710784,1.1033358573913574,-0.3353864848613739,-0.16379806399345398,0.17800672352313995,-0.030773399397730827,-0.16667623817920685,-0.9855313301086426,-0.04375052824616432,0.004215925931930542,0.010296404361724854,-0.84714012894313,-0.0792429266486518,-0.030901220140074234,-0.5245182713750792,0.1674577836340756,-0.03121504258860325,1.1114026425372068
1780495477396745984,1.1133708953857422,-0.2899627983570099,-0.0992443636059761,0.14555476605892181,-0.03230402618646622,-0.16359378397464752,-0.9859987497329712,-0.04658391326665878,0.07037784159183502,-0.0012449026107788086,-0.8468473200842047,-0.07830089320876094,-0.029488960916912745,-0.525213179740784,0.1643324237868062,-0.03275103185853962,1.1129750025537966
1780495477406780928,1.123405933380127,-0.2872716784477234,-0.10656459629535675,0.0958695039153099,-0.03346408158540726,-0.16066905856132507,-0.986440896987915,-0.031004302203655243,0.10894176363945007,-0.02729201316833496,-0.8466669210209434,-0.07733717794854551,-0.028258124244882346,-0.5257142858880121,0.16136848210677013,-0.03391105615307921,1.1140654290959537
1780495477416815104,1.1334400177001953,-0.302915096282959,-0.15517555177211761,0.08476252853870392,-0.03489084169268608,-0.1577794998884201,-0.9868577718734741,0.001596163958311081,0.0876043289899826,-0.01738417148590088,-0.8465656772341885,-0.07646542264733089,-0.026910102948460083,-0.526075567026826,0.1584415809351283,-0.03534077152998814,1.114852165135298
1780495477426850048,1.14347505569458,-0.37125393748283386,-0.17557016015052795,0.09327025711536407,-0.03668670356273651,-0.1543760746717453,-0.9873307943344116,0.02548675239086151,0.0260649174451828,0.013972640037536621,-0.8464862785622612,-0.07547315503610147,-0.025266604266243234,-0.5264280569843512,0.15499593098554615,-0.03714037360147928,1.1156155078756202
1780495477436884992,1.1535098552703857,-0.4011889398097992,-0.1467563509941101,0.11050410568714142,-0.03844858705997467,-0.15048934519290924,-0.9878636598587036,0.02018382027745247,-0.026665180921554565,0.03368586301803589,-0.8463770561659211,-0.07426444609714311,-0.023514836603101694,-0.5268565792586247,0.15106323040268357,-0.038901309230309294,1.1165210764973592
1780495477446919936,1.1635448932647705,-0.3799073398113251,-0.12208402901887894,0.10876107215881348,-0.039925381541252136,-0.14653624594211578,-0.9883992671966553,-0.005866244435310364,-0.040414437651634216,0.010905981063842773,-0.846247603719668,-0.07295282505884797,-0.02186909411088583,-0.5273182839620081,0.1470658120235299,-0.040372031840667254,1.117474540316327
1780495477456954112,1.1735789775848389,-0.29451656341552734,-0.09622620046138763,0.14621736109256744,-0.04117847979068756,-0.14309172332286835,-0.9888524413108826,-0.019124258309602737,-0.025990918278694153,-0.005684912204742432,-0.8460536262298838,-0.07179973503584137,-0.020459505329088034,-0.5278442602770658,0.1435845782834561,-0.041618648202976956,1.1185947547893786
1780495477466989056,1.1836140155792236,-0.232498437166214,-0.10153814405202866,0.15277034044265747,-0.04235159233212471,-0.14045633375644684,-0.9891806244850159,-0.00905526801943779,-0.009720653295516968,-0.037033915519714355,-0.8457423240993488,-0.07097022249848944,-0.019310651669801435,-0.5284981416215467,0.14092229747460694,-0.04278868629045259,1.1200646298373218
1780495477477024000,1.1936490535736084,-0.2089310586452484,-0.1026512086391449,0.11254435777664185,-0.04355987533926964,-0.138189896941185,-0.9894473552703857,-0.0024758875370025635,-0.004067778587341309,-0.04126852750778198,-0.8454820616363675,-0.07031198916133337,-0.018235694478209583,-0.5290404989819683,0.13863353867026515,-0.04399603937477586,1.121298210644978
1780495477487058944,1.203683853149414,-0.17739976942539215,-0.09115807712078094,0.12325531989336014,-0.04469083994626999,-0.1362185925245285,-0.9896702766418457,-0.0056021325290203094,0.006320521235466003,-0.015655040740966797,-0.8452526671651592,-0.06976204339873404,-0.017266352574157814,-0.529512151521402,0.13664341789329007,-0.04512664425785689,1.1223773245076538
1780495477497092864,1.2137179374694824,-0.23386438190937042,-0.052008144557476044,0.1440572738647461,-0.04557684808969498,-0.13419699668884277,-0.9899060130119324,-0.003693781793117523,0.021999120712280273,-0.006553947925567627,-0.8449702580923656,-0.0691246534666261,-0.016394362369766474,-0.5300738708599237,0.13460308700786794,-0.04600909912277211,1.1236456358179703
1780495477507128064,1.2237529754638672,-0.3979414701461792,-0.028251148760318756,0.13745130598545074,-0.046140898019075394,-0.13102702796459198,-0.9903044700622559,-0.0022752396762371063,0.02749614417552948,0.02381277084350586,-0.8447041878786756,-0.06791190924349594,-0.015353804456775125,-0.5306855915141941,0.13140487413326954,-0.046558966354249505,1.124930391395402
1780495477517163008,1.233788013458252,-0.47809144854545593,-0.03443380817770958,0.14823924005031586,-0.046603843569755554,-0.12649288773536682,-0.9908721446990967,0.005084678530693054,0.03437557816505432,0.05970454216003418,-0.8444810548484591,-0.06609255523172901,-0.013989135932029247,-0.5313076768927283,0.12683266823787773,-0.046998519703242064,1.1261451911598448
1780495477527197952,1.2438230514526367,-0.4336771070957184,-0.06773850321769714,0.16547495126724243,-0.04731188714504242,-0.12186243385076523,-0.991418719291687,0.01809130609035492,0.027654685080051422,0.03977388143539429,-0.8442114844051899,-0.06429950846642025,-0.012497976950457793,-0.5319928460992599,0.12216608799591373,-0.04768521861979544,1.1275272211522815
1780495477537232896,1.2538578510284424,-0.4365543723106384,-0.08424477279186249,0.15196126699447632,-0.04827765375375748,-0.1174996942281723,-0.9918987154960632,0.025648869574069977,0.0091165229678154,0.012345552444458008,-0.8439292118122621,-0.06269257814214593,-0.01096700298289431,-0.5326659266881337,0.1177717576976022,-0.04863357728762448,1.1289208738568188
1780495477547267072,1.2638919353485107,-0.34987300634384155,-0.1097264289855957,0.13169728219509125,-0.04940871149301529,-0.11337186396121979,-0.9923233389854431,0.00929335504770279,0.006270416080951691,0.006666600704193115,-0.8436800314832514,-0.061233649425673484,-0.009421909316609443,-0.5332596256481502,0.11361614258501536,-0.049749855679366566,1.130155559069174
1780495477557302016,1.2739269733428955,-0.18204618990421295,-0.11419627815485,0.1321241855621338,-0.05066448822617531,-0.11068905889987946,-0.9925628900527954,-0.00646442174911499,-0.0006848499178886414,-0.01181638240814209,-0.8434180705394373,-0.06042525848840846,-0.008206982706193933,-0.5337860632164576,0.11091633947706721,-0.050999845822855806,1.1313297299188347
1780495477567336960,1.2839620113372803,-0.12819626927375793,-0.10863160341978073,0.14062659442424774,-0.05193538963794708,-0.10913164168596268,-0.9926696419715881,-0.016713902354240417,-0.001479320228099823,0.008843958377838135,-0.8430967694295967,-0.060100204871106754,-0.007290316487331294,-0.5343432246286836,0.10934942994547169,-0.0522712480488437,1.1326467504937503
1780495477577372160,1.293997049331665,-0.14426258206367493,-0.06890829652547836,0.11177470535039902,-0.05294263735413551,-0.10770702362060547,-0.9927720427513123,-0.025411244481801987,0.0012769699096679688,0.018544137477874756,-0.8427973900961765,-0.05976211102673122,-0.006517855154561591,-0.5348631377398982,0.10791636600587087,-0.053277625543220214,1.1338645413080828
1780495477587405824,1.3040308952331543,-0.17582157254219055,-0.044782187789678574,0.12070214748382568,-0.053615834563970566,-0.10609716922044754,-0.9929092526435852,-0.023212168365716934,-0.01904015988111496,0.003941357135772705,-0.8425415670182191,-0.05925680938744494,-0.00583239979349915,-0.5353301617420749,0.10629723327448143,-0.05394633623453116,1.1349216071696897
1780495477597441024,1.314065933227539,-0.33941903710365295,-0.0882260724902153,0.1474650502204895,-0.05435633286833763,-0.10351178795099258,-0.9931418299674988,0.005848638713359833,-0.049060843884944916,0.0021597743034362793,-0.8422483194232173,-0.058356195769424225,-0.004861887166594227,-0.5358999421020685,0.10369753217530572,-0.05467713771993127,1.1361677842358644
1780495477607475968,1.3241009712219238,-0.4649279713630676,-0.18688233196735382,0.10533464699983597,-0.05584295466542244,-0.0993582084774971,-0.9934835433959961,0.04023321345448494,-0.0521310493350029,-0.015091896057128906,-0.8420215411159698,-0.05699408459091944,-0.003148412663241537,-0.5364154545616785,0.0995224170984196,-0.05615015387064724,1.1372418952520986
1780495477617510912,1.3341360092163086,-0.47063112258911133,-0.26389217376708984,0.09217250347137451,-0.05820994824171066,-0.09456533938646317,-0.9938153624534607,0.04452281445264816,-0.03716379404067993,0.005686700344085693,-0.8419080782593181,-0.05560163479767511,-0.0008778841253288792,-0.5367481062987806,0.0947068498766019,-0.05850535224600351,1.1379021438216619
1780495477627544832,1.3441698551177979,-0.3558454215526581,-0.2631933391094208,0.1272846907377243,-0.061006899923086166,-0.09029148519039154,-0.994045078754425,0.017214175313711166,-0.0005135685205459595,0.03185635805130005,-0.8417285665094342,-0.0545473845402772,0.0014304555426618288,-0.5371365571906932,0.09041462027935247,-0.06129548649212898,1.138752039108827
1780495477637580032,1.3542048931121826,-0.2367832064628601,-0.18729884922504425,0.12244439125061035,-0.0633891299366951,-0.08728241920471191,-0.994164764881134,-0.027309104800224304,0.026689782738685608,0.03280007839202881,-0.8414599219823836,-0.053919051460555624,0.00321701810494435,-0.5376127937932438,0.08739362594054122,-0.06367499173554075,1.1398567533795159
1780495477647614976,1.3642399311065674,-0.1810661405324936,-0.11279959231615067,0.10588937997817993,-0.06496995687484741,-0.08513970673084259,-0.9942485094070435,-0.05981641262769699,0.030177555978298187,0.027360141277313232,-0.8412114464538071,-0.0534421644071019,0.004435180953376708,-0.5380405778580769,0.08524290286183842,-0.06525301761801956,1.1408456100362638
1780495477657649920,1.3742749691009521,-0.17678111791610718,-0.09786991029977798,0.1044187843799591,-0.06605160236358643,-0.08331497013568878,-0.9943318367004395,-0.043491244316101074,0.012758329510688782,0.016258716583251953,-0.8409767078836743,-0.05296569445909706,0.005358812656019467,-0.5384459897179735,0.08341165753550771,-0.06633067911582463,1.141768004815417
1780495477667685120,1.384310007095337,-0.20382392406463623,-0.15299414098262787,0.10203871876001358,-0.06736404448747635,-0.08135779201984406,-0.9944058656692505,0.012295074760913849,-0.042284175753593445,0.02409946918487549,-0.8407439881442579,-0.052496718936433956,0.006416343176043453,-0.5388435678822779,0.0814478120067339,-0.06763966469182682,1.1426779896282289
1780495477677718784,1.3943438529968262,-0.28410863876342773,-0.24108511209487915,0.08456012606620789,-0.06934419274330139,-0.07887335866689682,-0.9944698810577393,0.06464449316263199,-0.10830619931221008,0.04311496019363403,-0.8405441372232368,-0.051986691828272966,0.007901610120319253,-0.5391849789057269,0.07895536749128702,-0.06961711788896716,1.1434634011448666
1780495477687753984,1.404378890991211,-0.3473651111125946,-0.3787399232387543,0.07516103237867355,-0.07250449061393738,-0.07560890167951584,-0.994498074054718,0.09162375330924988,-0.14150840044021606,0.08188515901565552,-0.840399085296921,-0.05146775168278382,0.010101512974437841,-0.5394240242290458,0.07568113025625568,-0.07277685068920323,1.144028745154155
1780495477697788928,1.4144139289855957,-0.37565720081329346,-0.4315618574619293,0.06496059149503708,-0.07667198777198792,-0.07193721830844879,-0.9944578409194946,0.08102075010538101,-0.1403277963399887,0.1088377833366394,-0.8402782115359,-0.05105096785465471,0.012840046678031338,-0.5395937034519688,0.07199940559082786,-0.07694705474597696,1.1444617161711523
1780495477707823872,1.4244489669799805,-0.32022616267204285,-0.4032604396343231,0.04675149545073509,-0.08088821172714233,-0.06838462501764297,-0.9943745136260986,0.038072049617767334,-0.10849525779485703,0.10280346870422363,-0.8401822856161265,-0.0506982461942856,0.015570477139213692,-0.5397044207469855,0.06843803814348016,-0.08116710794702872,1.144759531804159
1780495477717858048,1.4344830513000488,-0.22473745048046112,-0.4007173776626587,0.021901270374655724,-0.08487940579652786,-0.06557753682136536,-0.9942308664321899,-0.0073141902685165405,-0.04561325162649155,0.030440032482147217,-0.8401324960799007,-0.05059822759405883,0.018010316532136906,-0.539715562641744,0.06562462718804521,-0.08516542068664051,1.1448494529431426
1780495477727892992,1.4445178508758545,-0.12519541382789612,-0.40685462951660156,0.016807176172733307,-0.08894841372966766,-0.06387420743703842,-0.9939860701560974,-0.022074535489082336,0.01956268399953842,0.0014171004295349121,-0.84008743300392,-0.05098476297696397,0.020187354153365564,-0.5396722936625183,0.06391771934824247,-0.08924885706467935,1.1448833137757632
1780495477737927936,1.4545528888702393,-0.021986478939652443,-0.40412330627441406,0.003857554867863655,-0.09297725558280945,-0.06302253156900406,-0.9936716556549072,-0.015833169221878052,0.08848945051431656,-0.03841757774353027,-0.8400371282976781,-0.05171977502870339,0.02211852454694251,-0.5396049553608718,0.06306432565384482,-0.09329774702051895,1.144914115111767
1780495477747962880,1.464587926864624,0.26284363865852356,-0.41993024945259094,0.015339241363108158,-0.09711125493049622,-0.06415967643260956,-0.9932034015655518,-0.012568913400173187,0.16799573600292206,-0.05972933769226074,-0.839939778635484,-0.05332402156983702,0.02355550859768347,-0.5395395803705636,0.0642037755370708,-0.09746599615363997,1.1450967805945524
1780495477757997056,1.4746220111846924,0.3674235939979553,-0.3885731101036072,0.03203433379530907,-0.10115862637758255,-0.06747397035360336,-0.9925795793533325,-0.01500653475522995,0.17990073561668396,-0.08978736400604248,-0.8397341307659951,-0.055828339593409,0.024360066594163506,-0.5395706777313661,0.06752527286860818,-0.10156421288899939,1.145672876445888
1780495477768032000,1.4846570491790771,0.2678602337837219,-0.3499349057674408,0.06470172852277756,-0.1049092635512352,-0.07065508514642715,-0.9919686913490295,-0.0260264053940773,0.12369463592767715,-0.05824798345565796,-0.8394698393012164,-0.0581998155177491,0.0250685101980773,-0.5396988618114525,0.07071400586943188,-0.10536696950251472,1.146472420027438
1780495477778066944,1.4946918487548828,0.11129754781723022,-0.2475319802761078,0.10976161807775497,-0.1079443171620369,-0.07242801040410995,-0.9915151000022888,-0.040203265845775604,0.027735017240047455,-0.01831156015396118,-0.8391325065068423,-0.05978766828368431,0.025843387605989986,-0.5400132180653222,0.07249148403885922,-0.10844097165552481,1.1475736240280785
1780495477788101888,1.5047268867492676,-0.04881836101412773,-0.14113283157348633,0.10038463026285172,-0.10997366905212402,-0.07260235399007797,-0.9912793040275574,-0.053417451679706573,-0.009962953627109528,-0.019539177417755127,-0.838806532187227,-0.06042860292777178,0.026621865126664618,-0.5404102817191717,0.07266628863664933,-0.1104893272494565,1.1486805741296133
1780495477798136832,1.5147619247436523,-0.09481114894151688,-0.10944746434688568,0.09024224430322647,-0.11117278039455414,-0.07163332402706146,-0.9912160634994507,-0.06102265417575836,0.05013369768857956,-0.007486939430236816,-0.8385785793586459,-0.06035766382025356,0.02736643158659369,-0.5407347797379753,0.0716947295528656,-0.11169119575172574,1.1494643308172938
1780495477808171008,1.5247960090637207,0.4544847011566162,-0.06653914600610733,0.1181228756904602,-0.11226397007703781,-0.07298502326011658,-0.9909944534301758,-0.04085797071456909,0.14415201544761658,-0.06192302703857422,-0.8382171092670105,-0.06124261872403169,0.027424802615202377,-0.5411925287386384,0.07304997719612225,-0.11280325413994156,1.1507447225244065
1780495477818205952,1.5348310470581055,0.625295102596283,0.10815103352069855,0.0224850345402956,-0.1120595782995224,-0.07892626523971558,-0.9905621409416199,-0.0380869060754776,0.16603869199752808,0.00046509504318237305,-0.8378430768299164,-0.06370870422469431,0.025693291535672003,-0.5415718527772493,0.07900844039078549,-0.11264833695270082,1.152121054386762
1780495477828241152,1.5448660850524902,0.4011048376560211,0.14493568241596222,0.039797183126211166,-0.11077708005905151,-0.08373378217220306,-0.9903116226196289,-0.045686542987823486,0.15541957318782806,-0.039488792419433594,-0.8376304433837047,-0.06539444791266283,0.02382769197284751,-0.5417851586357366,0.08383193881661516,-0.11139773996328776,1.152931492713854
1780495477838275840,1.554900884628296,0.45933085680007935,0.04352850094437599,0.11596518754959106,-0.1098644882440567,-0.08800489455461502,-0.9900428652763367,0.0283520370721817,0.05368788540363312,-0.11887431144714355,-0.837284869349326,-0.0669599387830512,0.022246784746355636,-0.5421950418790862,0.08811888977951218,-0.11051725621225612,1.154198244643319
1780495477848310016,1.5649349689483643,0.055987413972616196,-0.01476809661835432,0.1273757666349411,-0.10988541692495346,-0.09069917351007462,-0.9897973537445068,0.08975908160209656,-0.15202239155769348,-0.10312861204147339,-0.8368406839912983,-0.068118980619362,0.021473566484580132,-0.542767285916673,0.09082398616755037,-0.11056533540642763,1.1557975923274117
1780495477858344960,1.574970006942749,-0.3416081666946411,-0.01391721609979868,0.1097744032740593,-0.11016643047332764,-0.08890379965305328,-0.9899290204048157,0.08283793926239014,-0.21344910562038422,-0.037048518657684326,-0.8365745147083387,-0.06745026736341218,0.022044246673832327,-0.5432381749874092,0.0890213294569264,-0.11083116007055696,1.1567921909634467
1780495477868380160,1.5850050449371338,-0.4398340582847595,0.028323981910943985,0.09989886730909348,-0.11017608642578125,-0.08479590713977814,-0.990288257598877,0.05603791028261185,-0.16511254012584686,-0.0039133429527282715,-0.8364183380753878,-0.0657298702127228,0.02313963474799201,-0.5436436659791165,0.0848978547455276,-0.11080091108329262,1.1574139028738804
1780495477878415104,1.5950400829315186,-0.4151955544948578,0.08415994793176651,0.07776640355587006,-0.10968536883592606,-0.08036363124847412,-0.9907122850418091,0.032262273132801056,-0.04727613925933838,0.03133118152618408,-0.8363267151629544,-0.06373439997364935,0.024120330679163242,-0.5439795145270246,0.080450385816891,-0.11026458809842214,1.1578098022341647
1780495477888449792,1.6050748825073242,-0.19313399493694305,0.1477613002061844,0.05739987641572952,-0.10856986045837402,-0.0771113708615303,-0.9910935759544373,0.011081457138061523,0.1016780212521553,0.044377267360687256,-0.8362597295667156,-0.062063941891158936,0.024521273040094497,-0.5442576691347315,0.07718799337690867,-0.10911045896024626,1.1581253903201942
1780495477898483968,1.6151089668273926,0.08368749171495438,0.16717414557933807,0.011835586279630661,-0.10700855404138565,-0.076626718044281,-0.9913009405136108,0.012816041707992554,0.163266122341156,0.01182401180267334,-0.8361972108520129,-0.06143508455897065,0.023984775837110117,-0.5444490365545712,0.076701902941546,-0.10753120938836278,1.158427954711096
1780495477908518912,1.6251440048217773,0.1303442120552063,0.16755816340446472,-0.003052548971027136,-0.10531008243560791,-0.07783525437116623,-0.9913886785507202,0.02904665470123291,0.12707537412643433,-0.033864617347717285,-0.8361792382684122,-0.06147837322947471,0.02293649710627082,-0.5445169679453432,0.07791406181470517,-0.10582796543872582,1.1585605162655899
1780495477918554112,1.635179042816162,0.09385676681995392,0.13609984517097473,0.04522763192653656,-0.1037890836596489,-0.07889662683010101,-0.991465151309967,0.050139181315898895,0.06797134131193161,0.01786285638809204,-0.836108075637868,-0.06151048952136536,0.021997342726368437,-0.5446613723305571,0.0789787094401435,-0.10430264563427827,1.1588769517443978
1780495477928589056,1.6452140808105469,0.02327767014503479,0.10762346535921097,0.06970767676830292,-0.10260586440563202,-0.07949289679527283,-0.9915406703948975,0.06943325698375702,-0.019490860402584076,0.02953505516052246,-0.8359357844088268,-0.06144342566122884,0.021315882687222693,-0.5449602436685245,0.0795768590507955,-0.10311423138624135,1.159551009887135
1780495477938622976,1.6552479267120361,-0.1271997094154358,0.07572225481271744,0.07214313745498657,-0.10176283121109009,-0.07890116423368454,-0.9916748404502869,0.058702535927295685,-0.06700336933135986,0.036520421504974365,-0.8357661166654963,-0.06096997230373074,0.02110111228782673,-0.5452818569132208,0.07898326192388927,-0.10225919900862504,1.1602120638573952
1780495477948657920,1.665282964706421,-0.2600659132003784,0.08551709353923798,0.10960076004266739,-0.10105685889720917,-0.0768447294831276,-0.9919084906578064,0.03562717139720917,-0.048948727548122406,0.047145307064056396,-0.8355893589769043,-0.059919070749322116,0.021341814544619243,-0.5456599404548258,0.07692056046906834,-0.10153091250482528,1.16090658999738
1780495477958693120,1.6753180027008057,-0.28483355045318604,0.08768211305141449,0.14672869443893433,-0.10028082877397537,-0.07390467822551727,-0.9922105669975281,0.02771003544330597,-0.03798801451921463,0.05710625648498535,-0.8353299508070854,-0.058481617478509426,0.02178544444051184,-0.5461952275491848,0.07397212431994722,-0.10072605515017084,1.1619090113368413
1780495477968728064,1.6853530406951904,-0.2353655993938446,0.07743959873914719,0.16048072278499603,-0.09954158216714859,-0.07116752862930298,-0.9924851059913635,0.04512874037027359,-0.05569405108690262,0.019661009311676025,-0.8349914891932653,-0.05714341233634274,0.02218298777327417,-0.5468379436239679,0.07122773951174219,-0.09996101442160163,1.1631921337065259
1780495477978763008,1.6953880786895752,-0.20090216398239136,0.024001669138669968,0.16043917834758759,-0.09910806268453598,-0.06882880628108978,-0.9926934242248535,0.06501993536949158,-0.06477715820074081,-0.013349056243896484,-0.8346199607758215,-0.05605857869997672,0.022599466944480142,-0.5474999132608164,0.06888326629076551,-0.0995077978027953,1.1645764521819642
1780495477988796928,1.7054219245910645,-0.13954798877239227,-0.024409271776676178,0.16032439470291138,-0.09923162311315536,-0.06692494451999664,-0.9928112030029297,0.07976141571998596,-0.05171213299036026,-0.018693864345550537,-0.834224519647203,-0.055311234667701374,0.023131213833361516,-0.5481560231803383,0.0669750078348539,-0.09961928898038311,1.1660188607151603
1780495477998831872,1.7154569625854492,-0.03288626670837402,-0.02466147392988205,0.12965117394924164,-0.0995965451002121,-0.06594733148813248,-0.9928401112556458,0.0626244992017746,-0.03193780034780502,-0.016193091869354248,-0.8338363213539681,-0.05501888264482731,0.023513171672712344,-0.5487595327862673,0.06599522638883246,-0.09998031504929698,1.1674195994913728
1780495478008867072,1.725492000579834,-0.19489167630672455,-0.024081170558929443,0.01664312370121479,-0.09978094696998596,-0.06501395255327225,-0.9928831458091736,0.018985658884048462,0.035671308636665344,-0.07500320672988892,-0.8336502604025526,-0.05468700211618823,0.02382766178520596,-0.5490616886011229,0.06505984233317008,-0.1001598804190781,1.1680891903331347
1780495478018902016,1.7355270385742188,-0.35110366344451904,-0.049600645899772644,-0.05899544060230255,-0.10006831586360931,-0.06249358132481575,-0.9930160641670227,-0.032042279839515686,0.16150785982608795,-0.054576098918914795,-0.8337979154688819,-0.05370469574436557,0.02465316123037543,-0.5488980573703895,0.0625343313363028,-0.10043305141039204,1.1675346251159269
1780495478028935936,1.745560884475708,-0.3612987697124481,-0.01617557555437088,-0.10460979491472244,-0.10040776431560516,-0.058967676013708115,-0.9931973814964294,-0.07387811690568924,0.2533951699733734,-0.010327339172363281,-0.8341134519239131,-0.05230766543746355,0.025791544746772175,-0.5485010469097694,0.05900190335826394,-0.10075316668138437,1.1663543975426458
1780495478038970880,1.7555959224700928,-0.27849310636520386,0.05745270475745201,-0.17537663877010345,-0.1001073569059372,-0.05585496872663498,-0.993407666683197,-0.0952051430940628,0.2846147418022156,-0.011780321598052979,-0.8345836933107477,-0.05089906799467137,0.026560581288163205,-0.5478813703306481,0.0558840523220251,-0.10043263498120446,1.164633420584638
1780495478049006080,1.7656309604644775,-0.180733785033226,0.07405245304107666,-0.20975539088249207,-0.09928011149168015,-0.05376152694225311,-0.9936061501502991,-0.06992460042238235,0.23796561360359192,0.019225656986236572,-0.8351895950324278,-0.04976511689822537,0.02683960035162322,-0.5470478328128293,0.05378745682486485,-0.09958843080281915,1.1624430928972553
1780495478059041024,1.7756659984588623,0.034377992153167725,0.012641423381865025,-0.17756842076778412,-0.09867208451032639,-0.05317128822207451,-0.9936984777450562,-0.0016086772084236145,0.11016286164522171,0.07070958614349365,-0.8357644294960922,-0.04932265647178759,0.026796354757067764,-0.5462115175732302,0.053196374615069326,-0.09897337193553093,1.1603649193387686
1780495478069075968,1.785701036453247,0.07731933891773224,-0.06228448078036308,-0.10511340200901031,-0.09886499494314194,-0.05403934791684151,-0.993632435798645,0.045474499464035034,-0.015494950115680695,0.058818042278289795,-0.8361212351871158,-0.04972212602776444,0.026673604106214225,-0.5456349497556365,0.05406568562508266,-0.09917214700644907,1.1590555746605404
1780495478079109888,1.7957348823547363,0.01919504441320896,-0.07916586101055145,-0.05147574096918106,-0.09954648464918137,-0.05461579188704491,-0.9935328960418701,0.037458471953868866,-0.0719100832939148,0.005770444869995117,-0.8363118042227301,-0.050141257522829934,0.02682175983653702,-0.5452971840898293,0.054642979478848296,-0.09986117335577979,1.1583278602678422
1780495478089144832,1.805769920349121,-0.09969565272331238,-0.10198728740215302,0.0204975176602602,-0.1004285216331482,-0.05416901409626007,-0.9934685826301575,0.006800591945648193,-0.11921660602092743,-0.0012823939323425293,-0.8363567933544357,-0.05019297611389869,0.02731981764465867,-0.5451987248498419,0.05419553985190875,-0.10074653193122131,1.158115128764775
1780495478099180032,1.8158049583435059,-0.160490021109581,-0.06718549877405167,0.10206668078899384,-0.10133706778287888,-0.05282629281282425,-0.9934486150741577,-0.009991049766540527,-0.17034874856472015,-0.00836712121963501,-0.8362026298869324,-0.04988608790839796,0.028054641745572144,-0.545426020072432,0.05285089318930385,-0.10165374672050241,1.1586214493239633
1780495478109214976,1.8258399963378906,-0.2204361855983734,-0.08122914284467697,0.15120813250541687,-0.10207914561033249,-0.050779469311237335,-0.9934793710708618,0.007795095443725586,-0.21354852616786957,-0.015736877918243408,-0.835890477868714,-0.04924703582984096,0.028896980222013122,-0.5459183993908769,0.05080131854737646,-0.10238982034447601,1.1597036783476553
1780495478119249152,1.835874080657959,-0.279118150472641,-0.14131765067577362,0.18146802484989166,-0.10325061529874802,-0.04813467338681221,-0.9934899806976318,0.051843754947185516,-0.2093116044998169,-0.006967782974243164,-0.835471993033095,-0.04848189851712479,0.030075068852794387,-0.5465633626183376,0.04815328222218099,-0.10355541986013808,1.161136106792981
1780495478129283840,1.8459088802337646,-0.3987111449241638,-0.18858610093593597,0.19899135828018188,-0.10501466691493988,-0.04452235624194145,-0.9934735298156738,0.07480226457118988,-0.14886753261089325,0.014820575714111328,-0.8350019731552298,-0.047478942958336136,0.0317644204613795,-0.547273757404678,0.04453707676692266,-0.10531346633639171,1.1626943588385799
1780495478139319040,1.8559439182281494,-0.3967941999435425,-0.17928367853164673,0.16240406036376953,-0.10695619136095047,-0.040216363966464996,-0.9934500455856323,0.04575318843126297,-0.036321721971035004,0.028743624687194824,-0.8345573309509694,-0.04623568102580006,0.03372288819696278,-0.5479407444535856,0.04022721276918393,-0.10724827245343597,1.164111828160981
1780495478149353984,1.8659789562225342,-0.2730101943016052,-0.14382022619247437,0.11278989911079407,-0.10860638320446014,-0.03669183701276779,-0.9934074282646179,-0.000570252537727356,0.08507746458053589,0.004027605056762695,-0.8342387022200284,-0.0452341937168649,0.035357348081946786,-0.5484064162456321,0.0367000749983839,-0.10889464758497192,1.165082996922828
1780495478159388160,1.8760130405426025,-0.043604955077171326,-0.08666705340147018,0.05724834278225899,-0.10979872941970825,-0.034939952194690704,-0.9933395385742188,-0.010959334671497345,0.1637699007987976,0.01441192626953125,-0.8340076651159848,-0.044844181645987254,0.036321199978192956,-0.5487268000194852,0.034947063807971065,-0.11008804115808311,1.1657989495527972
1780495478169423104,1.8860480785369873,0.10619146376848221,-0.08032207190990448,-0.04869087412953377,-0.11057223379611969,-0.03535056486725807,-0.9932392239570618,0.00829257071018219,0.16012167930603027,0.029234707355499268,-0.8339685358516721,-0.04523125730604855,0.036531226133406314,-0.5487405039729311,0.035357930837228393,-0.11086837499445183,1.165901401693844
1780495478179457792,1.896082878112793,0.2206466794013977,-0.14991779625415802,-0.15647326409816742,-0.1116613894701004,-0.037053052335977554,-0.9930552840232849,0.025647595524787903,0.15791791677474976,0.026700913906097412,-0.8341903646996551,-0.0462282194938937,0.03654186611062056,-0.5483192546515212,0.03706153675535264,-0.11197195376123925,1.1650670407353387
1780495478189492992,1.9061179161071777,0.41391998529434204,-0.17573420703411102,-0.20704935491085052,-0.1132744625210762,-0.04040373116731644,-0.9927418828010559,0.015740282833576202,0.13984525203704834,0.04364520311355591,-0.8346034420064954,-0.0480464719078367,0.03634004075530471,-0.5475471492584438,0.040414731227206326,-0.1136112842621849,1.1635408378812215
1780495478199527936,1.9161529541015625,0.4039216637611389,-0.04385301098227501,-0.20002925395965576,-0.11433292925357819,-0.04491611197590828,-0.9924265742301941,-0.03672906756401062,0.05426974967122078,-0.04550671577453613,-0.8350371506145141,-0.05019867748155183,0.03559215233031622,-0.5467414270817855,0.04493122935177448,-0.11469977151063006,1.1619957723315297
1780495478209562112,1.9261870384216309,0.19005414843559265,0.04873790591955185,-0.17714951932430267,-0.11414898186922073,-0.04816190153360367,-0.9922955632209778,-0.06250201165676117,-0.06366976350545883,-0.11248654127120972,-0.8354819743909541,-0.05148027332385588,0.03467002906561423,-0.5460015389354314,0.04818054095103525,-0.11453183637251607,1.1604497787554193
1780495478219597056,1.9362220764160156,-0.1842249184846878,0.06547720730304718,-0.13439752161502838,-0.11343009024858475,-0.048460908234119415,-0.9923633933067322,-0.015293046832084656,-0.1914835423231125,-0.10060834884643555,-0.8359153764479996,-0.051381418180904345,0.03432550702491454,-0.5453688760102476,0.04847989682818506,-0.11380904504433631,1.1589130241388852
1780495478229632000,1.9462568759918213,-0.49396812915802,-0.0029737548902630806,-0.0730510726571083,-0.11302650719881058,-0.045045483857393265,-0.9925703406333923,0.06943215429782867,-0.24850310385227203,-0.02560281753540039,-0.8362974858372901,-0.049813571747567724,0.03512021840069749,-0.5448776875211765,0.04506073037577416,-0.11338414147297411,1.1574658743450081
1780495478239666944,1.956291913986206,-0.6773459315299988,-0.12875831127166748,-0.03852878138422966,-0.11366966366767883,-0.039266638457775116,-0.9927423596382141,0.13751915097236633,-0.1950320601463318,0.04634648561477661,-0.8365774270487343,-0.0475454111678281,0.036990107932230565,-0.5445266306352113,0.03927673548250041,-0.1140041879405218,1.1562540433913502
1780495478249701888,1.9663269519805908,-0.5981837511062622,-0.22017504274845123,-0.037478696554899216,-0.1154189333319664,-0.032690733671188354,-0.9927788376808167,0.1422286331653595,-0.048913270235061646,0.10291677713394165,-0.8368024603464067,-0.04524656583564109,0.039539071481465966,-0.5441976538791671,0.032696560833992194,-0.11573888064262235,1.155108637565711
1780495478259736064,1.9763610363006592,-0.2005535513162613,-0.20108351111412048,-0.07281111925840378,-0.1175561472773552,-0.0286761112511158,-0.9926521182060242,0.0749536082148552,0.1505938321352005,0.08180922269821167,-0.8369959578180118,-0.04412899184693448,0.04155203185042691,-0.5438418198208445,0.02868004196758899,-0.11787730772850602,1.1540976451798515
1780495478269771008,1.986396074295044,0.20801156759262085,-0.17471261322498322,-0.1006411537528038,-0.11937759816646576,-0.028834179043769836,-0.9924301505088806,-0.006888873875141144,0.29078182578086853,0.06338351964950562,-0.8372112764730395,-0.04467461854857529,0.04229786263455027,-0.5434081789673407,0.0288381768245769,-0.11971299175258844,1.1531698417405285
1780495478279805952,1.9964308738708496,0.4411816895008087,-0.1296669840812683,-0.09053632616996765,-0.12087959796190262,-0.03243156149983406,-0.9921372532844543,-0.05932670086622238,0.29192250967025757,0.07154399156570435,-0.8373577016105345,-0.04658323313921526,0.04196878894670541,-0.5430475708163093,0.032437248272973326,-0.12124002420784678,1.1526444064588957
1780495478289840896,2.0064659118652344,0.32406118512153625,-0.12064392864704132,-0.07426414638757706,-0.12204216420650482,-0.036455608904361725,-0.9918552041053772,-0.08093024790287018,0.21744011342525482,-0.0020565390586853027,-0.8374676349718088,-0.04858212145840908,0.04137858577992234,-0.542748104492378,0.03646369054320111,-0.12242895583044959,1.1522872004401812
1780495478299875072,2.0164999961853027,0.1164073497056961,-0.216567263007164,-0.0036014262586832047,-0.1236424371600151,-0.038730185478925705,-0.9915707111358643,-0.0649714469909668,0.1151614636182785,-0.014425933361053467,-0.8374919164325478,-0.04997165434224159,0.04144233754121125,-0.5425795348379416,0.03873987393693664,-0.12405321259587228,1.15214830576764
1780495478309910016,2.0265350341796875,-0.06379038095474243,-0.28627124428749084,0.1394832879304886,-0.12622295320034027,-0.038811154663562775,-0.9912424087524414,-0.04319538176059723,-0.018989142030477524,0.041184425354003906,-0.837255719136049,-0.05072600719771584,0.04249331246424493,-0.5427927493327347,0.03882090565752015,-0.12665649131360351,1.152820186149273
1780495478319945216,2.0365700721740723,-0.09813610464334488,-0.26376873254776,0.26377594470977783,-0.12905393540859222,-0.03774315118789673,-0.9909190535545349,-0.07504764199256897,-0.09732764959335327,0.03764146566390991,-0.8366516135513983,-0.05109616896645425,0.04392793108861681,-0.5435747983305808,0.037752118747982205,-0.1295076670113704,1.154780639496032
1780495478329979904,2.046604871749878,-0.2525254189968109,-0.23104247450828552,0.32854586839675903,-0.1315554529428482,-0.03561731427907944,-0.990668773651123,-0.0952359288930893,-0.15650609135627747,-0.05056047439575195,-0.8358285394749786,-0.0509534699405474,0.04549031950436235,-0.5447248358896118,0.03562485001915091,-0.1320221672869394,1.1575199818825914
1780495478340014848,2.0566399097442627,-0.3067348599433899,-0.243484765291214,0.36505913734436035,-0.13407287001609802,-0.03226134181022644,-0.9904462099075317,-0.06870117783546448,-0.19495728611946106,0.0035687685012817383,-0.8348831763545402,-0.05031420580985228,0.04738545378102496,-0.546070794284468,0.03226694201657519,-0.13454829123274067,1.1606343536803285
1780495478350051072,2.066676139831543,-0.2161943018436432,-0.2798134684562683,0.3345433175563812,-0.13672776520252228,-0.02900996245443821,-0.9901837706565857,-0.025457903742790222,-0.14780887961387634,0.004465997219085693,-0.8339319965935279,-0.04976295966116563,0.04931280467910715,-0.5474023074983474,0.029014033037905885,-0.1372155185190969,1.1637318736757114
1780495478360086272,2.0767111778259277,0.06048416346311569,-0.20249910652637482,0.33072781562805176,-0.13933394849300385,-0.027817148715257645,-0.9898546934127808,-0.017404332756996155,-0.051025014370679855,0.03465449810028076,-0.8329768143543642,-0.0500660895724761,0.050656236858321546,-0.5487047465853399,0.027820737087551256,-0.13984323614266098,1.1669207363672491
1780495478370120960,2.0867459774017334,0.26535847783088684,-0.09795831888914108,0.346254825592041,-0.14093084633350372,-0.029004082083702087,-0.9895945191383362,-0.03535394370555878,0.012204153463244438,-0.007079064846038818,-0.8319499232478441,-0.05109682570731582,0.050910395264333004,-0.5501422470855484,0.029008150039577563,-0.14146149369953226,1.1705674047336925
1780495478380156160,2.096781015396118,0.23231717944145203,-0.06323403120040894,0.3122055232524872,-0.14179202914237976,-0.031178120523691177,-0.9894053339958191,-0.0012743622064590454,-0.03640305623412132,-0.08130383491516113,-0.8309493078864427,-0.05233484205238954,0.05058052447758944,-0.5515668470606472,0.031183174203263962,-0.14234117365612992,1.1742251312187542
1780495478390190080,2.1068150997161865,0.11728300154209137,-0.0889175608754158,0.3205087184906006,-0.14265087246894836,-0.0325610488653183,-0.9892373085021973,0.07569532096385956,-0.1843273788690567,-0.008122861385345459,-0.8300089988665584,-0.05323563801273518,0.05047077696026607,-0.5529047927917138,0.03256680467012495,-0.1432156319824885,1.1776163550925318
1780495478400225280,2.1168501377105713,-0.14624157547950745,-0.12212038040161133,0.32731497287750244,-0.14372101426124573,-0.0319320447742939,-0.9891029596328735,0.14277496933937073,-0.2811172604560852,0.021314263343811035,-0.8290884022960227,-0.05335474252073845,0.05100788510736569,-0.5542236501380703,0.031937473027958865,-0.14429454440000247,1.1808133024041587
1780495478410260224,2.126885175704956,-0.10745769739151001,-0.20557186007499695,0.3906193673610687,-0.1454760879278183,-0.029893340542912483,-0.9889100790023804,0.1644275039434433,-0.27139145135879517,0.06273210048675537,-0.8281026377214621,-0.05308562429948066,0.052219624914695374,-0.5556086544665736,0.029897793908477254,-0.14605990046598008,1.1841003356790563
1780495478420294912,2.1369199752807617,-0.059546638280153275,-0.17364415526390076,0.4576287567615509,-0.14759817719459534,-0.028557760640978813,-0.9886350631713867,0.14482107758522034,-0.19617368280887604,0.02737712860107422,-0.8268698996691433,-0.05323888780771937,0.053367617285811034,-0.5573183669980644,0.028561644126039842,-0.14820029580822938,1.1882586291792232
1780495478430329088,2.14695405960083,0.05332771688699722,-0.10543475300073624,0.5140150785446167,-0.14904530346393585,-0.02763953246176243,-0.9884440302848816,0.08915455639362335,-0.10051903873682022,-0.07480365037918091,-0.8254953227276736,-0.053394721001345506,0.05410176083044071,-0.559266940190401,0.02764305279784875,-0.14966033122820893,1.1929926730844271
1780495478440364032,2.156989097595215,0.13938164710998535,-0.048643503338098526,0.6429184675216675,-0.15003736317157745,-0.027981141582131386,-0.9882842898368835,0.059247568249702454,-0.11255230009555817,-0.020291149616241455,-0.823802784881803,-0.05397861237581177,0.054260134274565025,-0.5616860507285515,0.027984793899219186,-0.15066551007783782,1.1989540539381804
1780495478450399232,2.1670241355895996,-0.041135139763355255,0.00807463563978672,0.7440788745880127,-0.1503739356994629,-0.027462661266326904,-0.9882476925849915,0.08534097671508789,-0.2020142674446106,-0.09599608182907104,-0.8218215622471446,-0.05405021311203405,0.05435745363267317,-0.564564705111462,0.02746611481608936,-0.15100389350480856,1.2059292903576075
1780495478460434176,2.1770591735839844,-0.23370298743247986,-0.01894206926226616,0.7993466854095459,-0.1505340039730072,-0.02488023415207863,-0.9882916808128357,0.1419890969991684,-0.26297682523727417,-0.08986377716064453,-0.8196572736386513,-0.05323900425717907,0.05495232720836948,-0.56772153859502,0.024882802291443303,-0.1511555655142987,1.2134130668831817
1780495478470469120,2.18709397315979,-0.29249176383018494,-0.09290364384651184,0.8194716572761536,-0.15128323435783386,-0.020953981205821037,-0.9882683157920837,0.21154020726680756,-0.2342492640018463,-0.046567440032958984,-0.8174018806346304,-0.05205714369460515,0.056177245192884986,-0.5709538858121282,0.020955515116850343,-0.1518999240103928,1.2210296022807785
1780495478480503040,2.1971280574798584,-0.2626723349094391,-0.17846287786960602,0.8321229815483093,-0.15275169909000397,-0.01695660501718521,-0.9881191253662109,0.24976707994937897,-0.11417742073535919,-0.019418716430664062,-0.8150623062956618,-0.05107055881868752,0.0577255462533758,-0.5742238350838599,0.016957418489306635,-0.1533742768791291,1.2288028545523568
1780495478490538240,2.207163095474243,-0.11347777396440506,-0.26148080825805664,0.8839609026908875,-0.15514615178108215,-0.013719750568270683,-0.9877962470054626,0.26368191838264465,-0.07124119251966476,0.027636945247650146,-0.8125747458882866,-0.05068958134813381,0.05943432561565715,-0.5775988527721455,0.013720181235988681,-0.15579017786121915,1.2369799686092784
1780495478500573184,2.217198133468628,0.027771756052970886,-0.2731372117996216,0.9732313752174377,-0.15798276662826538,-0.011898978613317013,-0.9873701930046082,0.23830503225326538,-0.1529112011194229,0.10673969984054565,-0.8098065409057741,-0.05105728450920709,0.06089390723175462,-0.5812902356809695,0.011899259345729012,-0.15865876113667818,1.2461092371058418
1780495478510608128,2.2272331714630127,-0.022715121507644653,-0.13977062702178955,1.0492390394210815,-0.16013561189174652,-0.010382049717009068,-0.9870404005050659,0.16266858577728271,-0.2287231683731079,0.0836896300315857,-0.8067766906927398,-0.05138846899538412,0.061959769127709376,-0.5853474673455017,0.010382236556612499,-0.16083678340777335,1.2561588147771736
1780495478520643328,2.2372682094573975,-0.0717867910861969,-0.0941069945693016,1.1533915996551514,-0.16132764518260956,-0.008070613257586956,-0.9868679046630859,0.09785108268260956,-0.23565801978111267,0.012243270874023438,-0.8035256879978148,-0.05114811698547298,0.06284837428513111,-0.5897291671675442,0.00807070054659949,-0.16204109028416924,1.2669249092675887
1780495478530676992,2.2473020553588867,-0.056844860315322876,-0.028649955987930298,1.2553842067718506,-0.16205434501171112,-0.00549081526696682,-0.9867665767669678,0.09097890555858612,-0.25885245203971863,0.015315771102905273,-0.7999249815773583,-0.050707268974398326,0.06360420076547907,-0.5945614141116281,0.0054908428900954515,-0.16277464223741794,1.2788096918445664
1780495478540712192,2.2573370933532715,-0.04946550726890564,-0.046059440821409225,1.2934101819992065,-0.16238629817962646,-0.002948752138763666,-0.9867228865623474,0.12318646907806396,-0.23214341700077057,-0.05584913492202759,-0.7961147914234262,-0.050193274226783074,0.06418103956959921,-0.599635534810216,0.0029487563831622696,-0.16310927968458694,1.2913360554166795
1780495478550747136,2.2673721313476562,-0.1397397369146347,-0.16989350318908691,1.353444218635559,-0.16348065435886383,0.00014073339116293937,-0.986546516418457,0.18403424322605133,-0.1571994423866272,-0.13097667694091797,-0.7921024586500248,-0.049719582381565264,0.06522804393563811,-0.6048528786085167,-0.00014073338643097151,-0.1642177494597694,1.3042908338543038
1780495478560782080,2.277407169342041,-0.1080332100391388,-0.21552956104278564,1.407473087310791,-0.16547197103500366,0.0036638604942709208,-0.9862076640129089,0.21767228841781616,-0.15182670950889587,-0.08463889360427856,-0.7878606821978705,-0.04938515772051812,0.06676272287077988,-0.6102290693894302,-0.0036638685876561085,-0.16623768168658412,1.317739253544899
1780495478570817280,2.287442207336426,-0.09990497678518295,-0.05447995290160179,1.4676717519760132,-0.16677305102348328,0.007048757281154394,-0.985970139503479,0.19170591235160828,-0.23171916604042053,-0.015204787254333496,-0.7834128940853194,-0.04893433698834995,0.06797333611045624,-0.6158322022000193,-0.007048815786057901,-0.16756018168630293,1.331809739640105
1780495478580851200,2.297476053237915,-0.08314570039510727,-0.011667911894619465,1.5182853937149048,-0.1668723225593567,0.010464862920343876,-0.9859229922294617,0.1672385334968567,-0.2232486754655838,-0.03589707612991333,-0.7787898989230753,-0.048131839354810316,0.06871562521184857,-0.6216493204750819,-0.010465053842154723,-0.16766592138567984,1.3464356961977528
1780495478590886144,2.3075110912323,-0.0628470927476883,-0.0041114576160907745,1.5485061407089233,-0.16674616932868958,0.013786323368549347,-0.9859034419059753,0.20213131606578827,-0.15125274658203125,-0.04366803169250488,-0.7740051639811402,-0.047322213913130955,0.06934603509413653,-0.6275888679389363,-0.013786760190362447,-0.16754478199734102,1.3614654978050837
1780495478600921088,2.3175461292266846,0.04998970776796341,-0.007969312369823456,1.6057294607162476,-0.1666041910648346,0.01645408198237419,-0.9858865737915039,0.2278987467288971,-0.1261647790670395,-0.022154808044433594,-0.7690105153415635,-0.04679141936504301,0.06976592134647705,-0.6336923996544025,-0.016454823729998385,-0.16740759194081875,1.3770717963449275
1780495478610956288,2.3275811672210693,0.10105475783348083,0.04184351861476898,1.6297311782836914,-0.1661462038755417,0.018390217795968056,-0.9859296083450317,0.22713559865951538,-0.125430628657341,-0.07776051759719849,-0.7638236980069603,-0.046466227146806496,0.06982889126686086,-0.639951648329618,-0.018391253984415396,-0.16694875320722016,1.393229244043284
1780495478620989952,2.3376150131225586,0.13160255551338196,0.05463681370019913,1.646702527999878,-0.16531510651111603,0.019859187304973602,-0.9860408306121826,0.22834916412830353,-0.1498183012008667,-0.07615399360656738,-0.7585346444788291,-0.04620843768964596,0.06960145860003948,-0.6462550530283686,-0.01986049252742555,-0.16611057068504137,1.4096294986288533
1780495478631025152,2.3476500511169434,0.008942674845457077,-0.012596821412444115,1.640358328819275,-0.16468700766563416,0.02186444401741028,-0.9861035346984863,0.26956066489219666,-0.19398358464241028,-0.06983518600463867,-0.7531661245923997,-0.045815985128459726,0.06963576587124283,-0.6525277547098636,-0.02186618641444791,-0.16548059786749034,1.4260399661297736
1780495478641060096,2.357685089111328,0.01882246881723404,-0.07062576711177826,1.6217225790023804,-0.16472135484218597,0.024500105530023575,-0.9860358238220215,0.29538238048553467,-0.22132322192192078,-0.023912906646728516,-0.7477929997193016,-0.045403599328219114,0.07014704689170985,-0.6586527644919398,-0.02450255694765511,-0.16552564435431338,1.442173357885709
1780495478651095040,2.367720127105713,0.012172023765742779,-0.01397767011076212,1.6426140069961548,-0.16480043530464172,0.026897286996245384,-0.9859601259231567,0.2694909870624542,-0.23127350211143494,-0.005128741264343262,-0.7423574934770532,-0.0451080575604401,0.07060597819113038,-0.6647446709364305,-0.02690053064468285,-0.1656161501101454,1.4583594125043307
1780495478661130240,2.3777551651000977,0.01787305250763893,0.0658552423119545,1.6473411321640015,-0.16402184963226318,0.029595982283353806,-0.9860126376152039,0.23261010646820068,-0.1889435052871704,-0.04709893465042114,-0.7368425545595377,-0.044425751116999805,0.07085221761785268,-0.6708720852771429,-0.02960030441037454,-0.16483922055517874,1.4746924289916588
1780495478671164160,2.387789011001587,0.22055159509181976,0.04659686237573624,1.6456776857376099,-0.1628747433423996,0.031122583895921707,-0.9861557483673096,0.2337823361158371,-0.1532539278268814,0.02955174446105957,-0.7312808057964699,-0.044057028584793205,0.07057686343841854,-0.6769832038130817,-0.031127610014776833,-0.16368361903487597,1.4911682309566237
1780495478681199104,2.3978240489959717,0.29352831840515137,0.036469392478466034,1.691097617149353,-0.1619863212108612,0.031225476413965225,-0.9862988591194153,0.2368764579296112,-0.09486988931894302,-0.030455291271209717,-0.7255499717407872,-0.044308134076223395,0.06990973016233126,-0.683173909791444,-0.03123055304691862,-0.16278332122733086,1.5081043174797528
1780495478691234048,2.4078590869903564,0.40603622794151306,0.11207227408885956,1.7445875406265259,-0.16068215668201447,0.030498528853058815,-0.9865348935127258,0.20664162933826447,-0.0060692038387060165,-0.10336989164352417,-0.7195808904790584,-0.0447267453024619,0.06879007218530078,-0.6895439129587185,-0.030503258735433865,-0.16145751447882767,1.5257026560874039
1780495478701269248,2.417894124984741,0.4167698323726654,0.10385921597480774,1.7877501249313354,-0.1590288132429123,0.02923757955431938,-0.9868409037590027,0.1884172558784485,-0.00425894558429718,-0.06969285011291504,-0.7133885406996077,-0.04521528661457736,0.06734328335557167,-0.6960583846282328,-0.029241746544849085,-0.15977576058199633,1.543864953899627
1780495478711304192,2.427929162979126,0.3482440412044525,0.12622123956680298,1.8614048957824707,-0.15737777948379517,0.028140095993876457,-0.9871374368667603,0.19540269672870636,-0.051775962114334106,-0.07113581895828247,-0.7069369376251425,-0.04564279934048321,0.0659393961441759,-0.702715396300441,-0.02814381138936547,-0.1580979188704082,1.5625773664122264
1780495478721338112,2.4379630088806152,0.23593641817569733,0.12322013080120087,1.903814435005188,-0.15558409690856934,0.028342096135020256,-0.9874159693717957,0.20223021507263184,-0.09941753000020981,-0.025599777698516846,-0.7002348511797593,-0.045556428413974115,0.06493552492116403,-0.7094921748325673,-0.028345891644506998,-0.15628201758084348,1.581709996172091
1780495478731373056,2.447998046875,0.329342246055603,0.11376138031482697,1.9531569480895996,-0.1538616120815277,0.028557807207107544,-0.987679660320282,0.2048259675502777,-0.07666876912117004,-0.0022190213203430176,-0.6933226779812752,-0.04548897406767743,0.06396042843227817,-0.7163404284363509,-0.028561689911049567,-0.15453878013857694,1.6012391515356714
1780495478741408000,2.4580330848693848,0.348207026720047,0.21548788249492645,2.010343313217163,-0.15164917707443237,0.02818167582154274,-0.9880325794219971,0.18668335676193237,-0.04023611545562744,-0.02011561393737793,-0.6861260705286967,-0.04545222877893362,0.06259248181171592,-0.7233583981937278,-0.028185408187640187,-0.15229748838726528,1.6214646703291045
1780495478751443200,2.4680681228637695,0.30478498339653015,0.2396150529384613,1.984942078590393,-0.14871732890605927,0.027959203347563744,-0.9884844422340393,0.19511930644512177,-0.03687033802270889,-0.0758923888206482,-0.6788379145137259,-0.04507803335987844,0.06103902658989246,-0.7303569958738642,-0.027962847849588447,-0.14932986264641313,1.6417904168897042
1780495478761477120,2.478102207183838,0.2525457441806793,0.1683439314365387,1.982778787612915,-0.14616595208644867,0.028042560443282127,-0.9888625144958496,0.23939716815948486,-0.09574580937623978,-0.059889256954193115,-0.6715410874224476,-0.04470988159132433,0.05974742132331187,-0.7372000683464687,-0.02804623783864982,-0.14674961013104046,1.6618838233709565
1780495478771512064,2.4881370067596436,0.254817932844162,0.16376329958438873,1.9583264589309692,-0.14398474991321564,0.028407597914338112,-0.989172101020813,0.26172155141830444,-0.09946777671575546,-0.09209620952606201,-0.6641966183296208,-0.04436320993486979,0.05870150174700295,-0.7439280334693485,-0.028411419648949433,-0.1445456990456343,1.6818632926503982
1780495478781547008,2.4981720447540283,0.28048068284988403,0.1633082926273346,1.9121756553649902,-0.1417635828256607,0.028462126851081848,-0.9894912838935852,0.2417544275522232,-0.07043905556201935,-0.1150771975517273,-0.6569430465137579,-0.04407565345253888,0.05754733357364011,-0.7504475926230975,-0.02846597200065999,-0.14230080064393413,1.701448987839873
1780495478791582208,2.508207082748413,0.24311576783657074,0.10270114243030548,1.9364218711853027,-0.13981541991233826,0.02853386476635933,-0.9897663593292236,0.23315341770648956,-0.05561821162700653,-0.06011462211608887,-0.649661930135628,-0.04386544643782469,0.05650342270298336,-0.756850482576558,-0.028537737658125503,-0.1403325124996164,1.7209140571541324
1780495478801617152,2.518242120742798,0.13997632265090942,0.08807945996522903,1.9477392435073853,-0.13833191990852356,0.02939198724925518,-0.9899497032165527,0.20672181248664856,-0.009250381961464882,-0.0031075477600097656,-0.6422319073938116,-0.0435699267288062,0.05591792945680467,-0.763225513778185,-0.0293962201297676,-0.13883731028672536,1.7405057809997617
1780495478811651328,2.528276205062866,0.11891791224479675,0.16695483028888702,2.0162065029144287,-0.13651911914348602,0.03086191788315773,-0.9901565909385681,0.14208857715129852,0.06001943349838257,0.028395116329193115,-0.6346376116575291,-0.04295218253529994,0.055469048337591684,-0.7696189235491425,-0.03086681867846893,-0.13701244815304098,1.7603352801904424
1780495478821686016,2.538311004638672,0.19220677018165588,0.31700170040130615,2.1091933250427246,-0.13343745470046997,0.03217931464314461,-0.9905346632003784,0.09016352891921997,0.1318526715040207,0.05985534191131592,-0.6266594613110751,-0.04190605459994669,0.05455772783166518,-0.7762508507669785,-0.03218487033498295,-0.1339064141532816,1.7810940561990538
1780495478831720960,2.5483460426330566,0.2990961968898773,0.3732069134712219,2.1360390186309814,-0.12920412421226501,0.03237604349851608,-0.9910893440246582,0.10387453436851501,0.15040898323059082,-0.002486705780029297,-0.6183991196699279,-0.04075591182616695,0.052860980200782615,-0.7830244882808506,-0.032381702763066775,-0.12963467413338345,1.802562840695979
1780495478841756160,2.5583810806274414,0.28765472769737244,0.2956851124763489,2.187851667404175,-0.12511612474918365,0.03208710625767708,-0.9916231036186218,0.17399002611637115,0.08737395703792572,-0.053466618061065674,-0.6098992928309938,-0.039792070247379935,0.051039608221914286,-0.7898318632077443,-0.03209261531636527,-0.12550985125542027,1.8244731505970748
1780495478851791104,2.568416118621826,0.18256400525569916,0.16561152040958405,2.1662490367889404,-0.12209675461053848,0.0322849415242672,-0.9919929504394531,0.2593037784099579,0.0357082225382328,-0.036586761474609375,-0.6012054587882921,-0.03908177571637508,0.049760696931639016,-0.7965854732982056,-0.03229055399349965,-0.12246633209471894,1.8465721964326054
1780495478861825280,2.5784502029418945,-0.023147085681557655,0.05516864359378815,2.0918915271759033,-0.12027431279420853,0.0340995267033577,-0.9921548962593079,0.28494715690612793,0.012851767241954803,-0.01884669065475464,-0.592690477205578,-0.03833476761673265,0.04952781528677681,-0.8029915169961507,-0.034106139459039085,-0.12063669835844246,1.8678457257217604
1780495478871859968,2.5884850025177,-0.0731457993388176,0.06879923492670059,2.123197555541992,-0.11896282434463501,0.037301771342754364,-0.9921977519989014,0.2261558175086975,0.029226545244455338,0.04479485750198364,-0.5842189113827043,-0.03738134430925687,0.050037463314721996,-0.8091891690593334,-0.037310426004695814,-0.11932866464693502,1.8887111076584255
1780495478881895168,2.598520040512085,0.019232062622904778,0.2111796885728836,2.1467349529266357,-0.11678946018218994,0.04008784890174866,-0.9923473000526428,0.13738882541656494,0.09150394797325134,-0.029015004634857178,-0.5755445844333237,-0.03621908587132065,0.05014500847389639,-0.8154275863895291,-0.040098593878450724,-0.11715120320912893,1.9099990827850999
1780495478891930112,2.6085550785064697,0.2750398516654968,0.37248095870018005,2.1662817001342773,-0.11297920346260071,0.04109255224466324,-0.9927472472190857,0.08595588803291321,0.11161740869283676,-0.0647936463356018,-0.5667446147414228,-0.03489899573519408,0.049075809707969445,-0.8216898445021964,-0.041104126706446885,-0.11331706884985902,1.931660093051291
1780495478901964288,2.618589162826538,0.26336270570755005,0.40864428877830505,2.183619260787964,-0.10808154195547104,0.04055189713835716,-0.9933146238327026,0.11897631734609604,0.10031723976135254,-0.022005200386047363,-0.5577762671735738,-0.03354711437002036,0.047088038668015995,-0.827975294334057,-0.04056301943272653,-0.1083825885802591,1.9537310769384348
1780495478911999232,2.628624200820923,0.22162725031375885,0.21878193318843842,2.13464093208313,-0.10396970063447952,0.04046258702874184,-0.9937570691108704,0.21606077253818512,0.11996832489967346,0.0030191540718078613,-0.5488048781057513,-0.03235756744807975,0.04554625240526584,-0.8340814347886639,-0.040473634566169765,-0.10424361416173518,1.9755584825864643
1780495478922033920,2.6386590003967285,0.17336703836917877,0.1205909252166748,2.107036828994751,-0.10159328579902649,0.04062235355377197,-0.993996262550354,0.2444460690021515,0.09254109859466553,0.05298680067062378,-0.5399182564146817,-0.03179481590475402,0.04461999255953065,-0.8399324044811413,-0.040633532783773574,-0.10185323104599579,1.9969108236758224
1780495478932069120,2.6486940383911133,0.20174434781074524,0.26207560300827026,2.0955209732055664,-0.09885969012975693,0.04083763435482979,-0.9942630529403687,0.14665022492408752,0.1534677892923355,0.013626515865325928,-0.5310331405448772,-0.031046670998466024,0.04364137857746263,-0.8456567951986109,-0.04084899371583009,-0.09910438012328682,2.018125909992186
1780495478942104064,2.658729076385498,0.22048528492450714,0.34956684708595276,2.0878355503082275,-0.09479446709156036,0.04084309563040733,-0.9946586489677429,0.049338534474372864,0.24289408326148987,-0.06729203462600708,-0.5221811970535826,-0.029763459293029905,0.04224696971390042,-0.851267383126424,-0.04085446109574337,-0.09501654175986403,2.0391980489054
1780495478952138240,2.6687631607055664,0.1328078955411911,0.34714069962501526,2.102616548538208,-0.09046831727027893,0.04084848240017891,-0.9950612187385559,0.04565326124429703,0.2005608081817627,-0.009012818336486816,-0.513239529569941,-0.028344343672116124,0.040816353814956664,-0.8568055579895177,-0.04085985087770361,-0.09066806184170838,2.0603486486333833
1780495478962173184,2.678798198699951,-0.07492426037788391,0.41875138878822327,2.158135175704956,-0.0856955274939537,0.042604539543390274,-0.9954100251197815,0.0876791775226593,0.15237227082252502,-0.03652656078338623,-0.504123267518577,-0.026269031802412617,0.04006148694963821,-0.8623019698842868,-0.042617437386098106,-0.08587893553408417,2.081685992420759
1780495478972208128,2.688832998275757,0.05559806153178215,0.3078259229660034,2.1115355491638184,-0.08103805035352707,0.044497787952423096,-0.9957172274589539,0.16680771112442017,0.1694456934928894,-0.010721981525421143,-0.49489575231372734,-0.024200078865599165,0.039442955203470215,-0.867719237898927,-0.044512487352310226,-0.08120762611134187,2.103132320299565
1780495478982243072,2.6988680362701416,0.17735645174980164,0.16852542757987976,2.0649797916412354,-0.07779223471879959,0.045003920793533325,-0.9959533214569092,0.2455473691225052,0.17656895518302917,-0.01600956916809082,-0.485833373607721,-0.02306662693194855,0.0386169777651917,-0.8728932119553545,-0.04501912648760496,-0.07795005173671767,2.1240775071141447
1780495478992278016,2.7089030742645264,0.19837066531181335,0.1792161613702774,2.0212244987487793,-0.07514844834804535,0.044508494436740875,-0.9961785674095154,0.25541579723358154,0.24142596125602722,-0.01357179880142212,-0.47684673878414047,-0.022417338836402182,0.03752582503771159,-0.8778989210450305,-0.044523201171445835,-0.07529411804675969,2.1447496472970746
1780495479002312192,2.7189371585845947,0.29088354110717773,0.1671203374862671,1.9624627828598022,-0.07251865416765213,0.04366049915552139,-0.9964109659194946,0.20874911546707153,0.2689920961856842,0.08800947666168213,-0.4680695256331326,-0.02182631873933884,0.03630607069147037,-0.8826756440491139,-0.04367438248196659,-0.07265176427023139,2.164843224006668
1780495479012347136,2.7289721965789795,0.3776301443576813,0.2853018641471863,1.9176290035247803,-0.06947704404592514,0.0415637269616127,-0.9967173337936401,0.15407177805900574,0.2492688000202179,0.13163554668426514,-0.45946298034229466,-0.02130901145643704,0.03445679520937875,-0.8872724426047323,-0.04157570237789255,-0.06959329351528062,2.184513938168855
1780495479022382080,2.739006996154785,0.43291497230529785,0.3430432975292206,1.8841373920440674,-0.06542128324508667,0.03879012167453766,-0.9971035122871399,0.12967604398727417,0.22630082070827484,0.06979638338088989,-0.45098978757499464,-0.020451293964288308,0.03209355949952892,-0.8917173864151288,-0.03879985489087454,-0.06551742097780415,2.203840270699476
1780495479032417024,2.74904203414917,0.3753163814544678,0.21133987605571747,1.8421332836151123,-0.06188590079545975,0.03569450601935387,-0.997444748878479,0.16787344217300415,0.20765265822410583,-0.012229323387145996,-0.44262371269121487,-0.01985046461557668,0.029725105006453468,-0.895994802835226,-0.0357020905698628,-0.06196500748545369,2.222809802268867
1780495479042452224,2.7590770721435547,0.17984677851200104,0.10904639214277267,1.818430781364441,-0.05958457663655281,0.03408780321478844,-0.9976410865783691,0.2018575221300125,0.16264376044273376,-0.03621816635131836,-0.4343796658222958,-0.019434689365244374,0.028315348948970722,-0.9000749366535313,-0.034094409082339794,-0.05965460097204527,2.2413071099447217
1780495479052486144,2.769111156463623,-0.02804144285619259,0.05816590040922165,1.779561161994934,-0.058105554431676865,0.0345182940363884,-0.9977135062217712,0.17478951811790466,0.138974130153656,-0.02503734827041626,-0.42623142892658844,-0.018928436753198094,0.02801719206234961,-0.9039821415275464,-0.034525151778990994,-0.05817300586691896,2.2594036772196016
1780495479062521344,2.779146194458008,0.043515563011169434,0.09703220427036285,1.7242587804794312,-0.056743040680885315,0.035520732402801514,-0.9977567195892334,0.09945239126682281,0.170884907245636,-0.021743953227996826,-0.4182904248601292,-0.01834429138088547,0.028019969637908586,-0.9076957589766194,-0.03552820613800736,-0.05680942387781157,2.27694152035964
1780495479072556032,2.7891809940338135,0.13081344962120056,0.17518827319145203,1.7203139066696167,-0.054759182035923004,0.03557258099317551,-0.9978657364845276,0.030131496489048004,0.2450518012046814,0.004259169101715088,-0.4104541321378712,-0.017669307849289474,0.02747595945187246,-0.9112959861357346,-0.035580088873870624,-0.054821315756048455,2.2942323623872247
1780495479082590976,2.7992160320281982,0.24457703530788422,0.22885455191135406,1.7086758613586426,-0.05197972431778908,0.03466947749257088,-0.9980461597442627,0.019081775099039078,0.3466629087924957,0.014662981033325195,-0.4026117902313515,-0.01681374380709006,0.026348023793166562,-0.9148370987239616,-0.03467642535143839,-0.05203446866529026,2.3115236217318307
1780495479092625152,2.8092501163482666,0.2973693907260895,0.16085152328014374,1.6954013109207153,-0.0494023822247982,0.032684553414583206,-0.998244047164917,0.0667363703250885,0.3370816707611084,0.08872866630554199,-0.3947936202432758,-0.016245340990388123,0.024780609873179097,-0.9182919022792314,-0.03269037497173479,-0.049448942089893984,2.3287202138927157
1780495479102660096,2.8192851543426514,0.24533843994140625,0.07601453363895416,1.6753194332122803,-0.047652970999479294,0.030725106596946716,-0.9983912706375122,0.11247231066226959,0.2609161138534546,0.06574362516403198,-0.3869974435935737,-0.01602717206674445,0.023398423404289322,-0.9216444971856008,-0.030729943414294705,-0.04769355804679037,2.345775643040531
1780495479112695296,2.829320192337036,0.10055675357580185,0.032467059791088104,1.6310484409332275,-0.04660648852586746,0.029498521238565445,-0.9984776973724365,0.08431095629930496,0.20455604791641235,-0.029720544815063477,-0.37932443024955204,-0.015969460102802223,0.02249750399501973,-0.9248522570935415,-0.029502801749884216,-0.0466436905045761,2.3624599519235203
1780495479122729984,2.839354991912842,0.030239706858992577,0.09317195415496826,1.6094133853912354,-0.0455520935356617,0.029837051406502724,-0.9985162615776062,0.009220916777849197,0.19587096571922302,-0.0526159405708313,-0.3718133588490294,-0.015598736717903981,0.022328018432505134,-0.9279078756771405,-0.029841479762757948,-0.04558817147287333,2.3786917086004746
1780495479132764928,2.8493900299072266,0.06216141954064369,0.17447853088378906,1.5331988334655762,-0.04375241696834564,0.029977688565850258,-0.9985925555229187,-0.028497949242591858,0.2166195958852768,0.1180993914604187,-0.3644493734434426,-0.01491118324542502,0.021940503880637775,-0.9308453386849115,-0.02998218053329581,-0.04378607910922145,2.3945777763912033
1780495479142799104,2.859424114227295,0.26838433742523193,0.19169612228870392,1.482910394668579,-0.041358038783073425,0.02911297231912613,-0.9987201690673828,-0.017617180943489075,0.24499592185020447,0.10879707336425781,-0.357432925148318,-0.014111915401391005,0.020994674669783022,-0.9335962341704692,-0.029117086108648656,-0.04138739057731413,2.4097095309582817
1780495479152834304,2.8694591522216797,0.37392887473106384,0.19580139219760895,1.4160085916519165,-0.03900139406323433,0.0262724831700325,-0.9988937377929688,0.02578728273510933,0.2268403172492981,0.02532196044921875,-0.3506182397285367,-0.013658751874586596,0.01914634314425001,-0.9362231303182789,-0.026275506887533828,-0.03902476492212265,2.424410389839356
1780495479162869248,2.8794941902160645,0.26964110136032104,0.12229201942682266,1.3292547464370728,-0.03699604049324989,0.02347373589873314,-0.9990396499633789,0.06551472097635269,0.17550086975097656,-0.04063314199447632,-0.34414716552509633,-0.01333054166558056,0.01739132012766783,-0.9386599746961152,-0.023475892233507416,-0.03701468742828676,2.4383213947538604
1780495479172903936,2.88952898979187,0.061993375420570374,0.05940520018339157,1.2668225765228271,-0.035841237753629684,0.022264940664172173,-0.9991094470024109,0.055250417441129684,0.15969611704349518,-0.08293706178665161,-0.33804715899861376,-0.01310391138794517,0.01653983676975579,-0.9408926245681787,-0.022266780791581092,-0.03585780759159556,2.451351220973802
1780495479182939136,2.899564027786255,0.053394295275211334,0.24351565539836884,1.2551227807998657,-0.03410353511571884,0.022253703325986862,-0.9991705417633057,-0.01621995121240616,0.24260835349559784,-0.06860899925231934,-0.33209509576827634,-0.012390227163126153,0.016162423002207268,-0.9430259953441166,-0.02225553990791352,-0.03411860214906261,2.464019063411482
1780495479192973056,2.9095981121063232,0.1961628943681717,0.3100363612174988,1.1779451370239258,-0.030847804620862007,0.021443618461489677,-0.9992940425872803,-0.05373166501522064,0.32404589653015137,0.023158788681030273,-0.3263315419921188,-0.011081693586468436,0.015171507819642787,-0.945068576064725,-0.021445262010716178,-0.03085979651199262,2.476299606553266
1780495479203008256,2.919633150100708,0.2596158981323242,0.052811212837696075,1.0803873538970947,-0.028643833473324776,0.019432786852121353,-0.999400794506073,0.018862949684262276,0.38632893562316895,-0.0395854115486145,-0.32098087093012,-0.010446169712808902,0.01380191634612669,-0.9469275114251368,-0.019434010578038684,-0.028653163766800688,2.487682722256815
1780495479213043200,2.9296681880950928,0.1667158007621765,-0.06671092659235,1.036287546157837,-0.0287308506667614,0.01747876964509487,-0.9994343519210815,0.0721878856420517,0.3322831988334656,-0.010804295539855957,-0.315952010435627,-0.010869266198809437,0.012832823793640508,-0.9486260617421315,-0.01747965928235111,-0.028739197067289182,2.498327364443903
1780495479223077888,2.9397029876708984,0.1529722809791565,0.011396795511245728,1.0113004446029663,-0.02884010784327984,0.016348011791706085,-0.9994503259658813,-0.03587241470813751,0.22788415849208832,0.08123749494552612,-0.31106753234459633,-0.011162958189006398,0.012256271723409274,-0.9502432483242381,-0.01634873947016233,-0.02884796341106854,2.508634737094852
1780495479233113088,2.949738025665283,0.2506256103515625,0.11985349655151367,0.9818453788757324,-0.02801373228430748,0.014566736295819283,-0.9995014071464539,-0.16754290461540222,0.21678702533245087,0.10228461027145386,-0.306295639544932,-0.011103715734988901,0.011225389421099656,-0.9518055511307908,-0.01456725170584465,-0.028020371312905922,2.5187100543060934
1780495479243147008,2.9597721099853516,0.25901588797569275,0.17621277272701263,0.9084121584892273,-0.026266686618328094,0.012200753204524517,-0.9995805025100708,-0.1977170705795288,0.2417207509279251,0.0505143404006958,-0.301756672822532,-0.01068109852323201,0.009780461777829475,-0.9532749626124573,-0.012201055883931411,-0.02627166404115239,2.528296598999075
1780495479253182208,2.9698071479797363,0.21507027745246887,0.06240152567625046,0.7975690364837646,-0.024881158024072647,0.010004479438066483,-0.9996403455734253,-0.14861127734184265,0.2744498550891876,0.020972132682800293,-0.29766799185933257,-0.010388330913253748,0.008479701438077891,-0.9545752472837538,-0.010004645889088061,-0.02488497207054877,2.536914086719044
1780495479263217152,2.979842185974121,0.18705248832702637,0.05129760876297951,0.7481971979141235,-0.02440052665770054,0.008250167593359947,-0.9996682405471802,-0.10931224375963211,0.3296709656715393,-0.018993258476257324,-0.2939880200270715,-0.010449071583434506,0.007530414874569401,-0.9557223531462349,-0.00825026151083045,-0.024403778721398994,2.5446478461850432
1780495479273252096,2.9898769855499268,0.15545408427715302,0.179957315325737,0.7061706781387329,-0.02309870719909668,0.0066633448004722595,-0.9997109770774841,-0.13678288459777832,0.35883042216300964,-0.0634603500366211,-0.29046548433478864,-0.01008425823013179,0.006543411650814259,-0.9568099524904701,-0.006663394189458296,-0.02310127523914389,2.5520452858581733
1780495479283287040,2.9999120235443115,0.052579365670681,0.15941569209098816,0.6213247776031494,-0.02124125510454178,0.005683030933141708,-0.999758243560791,-0.13685506582260132,0.339013010263443,-0.09043645858764648,-0.28728321918855343,-0.009357062959288006,0.005773379763401782,-0.9577826108075025,-0.005683061738865275,-0.02124319536197879,2.5587175190952296
1780495479293321216,3.00994610786438,-0.0872669443488121,0.10558148473501205,0.5479405522346497,-0.019923372194170952,0.005997803062200546,-0.9997835159301758,-0.0861404687166214,0.28356823325157166,0.010647773742675781,-0.284469911995494,-0.008697400355568574,0.005709250339132184,-0.9586285254327299,-0.005997839001432207,-0.019925048779703813,2.5645938939758857
1780495479303356160,3.0199811458587646,-0.08159761130809784,0.03176824748516083,0.45687001943588257,-0.019106538966298103,0.00703026307746768,-0.999792754650116,-0.06780752539634705,0.2989389896392822,0.06331509351730347,-0.28205799328264747,-0.008174241403482139,0.006067422975671026,-0.959343320930928,-0.007030321072809768,-0.019108173052293797,2.5696179232760192
1780495479313391104,3.0300161838531494,-0.07590962946414948,-0.10582183301448822,0.3777587115764618,-0.01945965550839901,0.007812111172825098,-0.9997801184654236,-0.09037310630083084,0.41435280442237854,-0.018072664737701416,-0.2800593271313212,-0.00824688841363697,0.006475163139893049,-0.9599253989703906,-0.0078121905439936315,-0.01946147727492418,2.5737726869905067
1780495479323426048,3.040050983428955,-0.10693838447332382,-0.0990852415561676,0.2928115725517273,-0.020573414862155914,0.008776182308793068,-0.9997498393058777,-0.13694307208061218,0.4491400718688965,-0.0022338032722473145,-0.2784212378620182,-0.008658637239967527,0.007079219631803207,-0.9603939461213569,-0.008776295021040919,-0.020575659882184006,2.5771661828987895
1780495479333460992,3.05008602142334,-0.20744794607162476,0.008032158017158508,0.1530398428440094,-0.02095097117125988,0.010450940579175949,-0.999725878238678,-0.20008784532546997,0.40013256669044495,0.05845695734024048,-0.2773420587355149,-0.008615735966301264,0.007926487871840025,-0.9606999001422538,-0.010451130568132004,-0.020953647811936166,2.579390497520231
1780495479343495168,3.060120105743408,-0.03857344761490822,-0.009024589322507381,0.03507965803146362,-0.02087818644940853,0.01187042985111475,-0.9997115731239319,-0.20234264433383942,0.39856046438217163,0.11647182703018188,-0.276910898911385,-0.008387779225988516,0.008594614655835588,-0.9608205554558857,-0.01187070867341854,-0.020881174841968556,2.580271553163233
1780495479353529856,3.070154905319214,0.0943867415189743,-0.024825122207403183,-0.051730602979660034,-0.02105128951370716,0.011414679698646069,-0.9997132420539856,-0.1533719301223755,0.39526256918907166,0.1231415867805481,-0.2769490652341959,-0.008533725564136447,0.00839994064682488,-0.9608100502505879,-0.011414928047730317,-0.021054217019203625,2.5801962131369316
1780495479363565056,3.0801899433135986,0.08928199112415314,-0.0708882212638855,-0.1642952263355255,-0.02146981470286846,0.0104233268648386,-0.9997151494026184,-0.1362908035516739,0.34873804450035095,0.038777709007263184,-0.27745484297058554,-0.008867907006083572,0.007986249849280341,-0.960664574413587,-0.010423515884462326,-0.02147263205294176,2.57915178170481
1780495479373600000,3.0902249813079834,-0.032054293900728226,-0.17606417834758759,-0.2942284643650055,-0.022702926769852638,0.010000236332416534,-0.9996922612190247,-0.14074921607971191,0.29357337951660156,-0.029223144054412842,-0.27855764974300157,-0.00950989953228331,0.007965073175160379,-0.9603393801443217,-0.010000403031651112,-0.022706012469903447,2.5768504727954133
1780495479383634688,3.100259780883789,-0.1702079027891159,-0.20213094353675842,-0.4003634452819824,-0.024714598432183266,0.010966859757900238,-0.9996343851089478,-0.1799362748861313,0.27789726853370667,0.014771103858947754,-0.28023759790769714,-0.010326197779367002,0.008727765268128154,-0.9598354875502058,-0.010967079786588792,-0.02471860161740069,2.573320558783011
1780495479393668864,3.1102938652038574,-0.12838642299175262,-0.09378128498792648,-0.46993425488471985,-0.02630471996963024,0.012518225237727165,-0.9995756149291992,-0.2775130271911621,0.3454224467277527,0.06920146942138672,-0.2823405503456593,-0.01085089272342765,0.009719270103609389,-0.9592036834818526,-0.012518552291547096,-0.02630981717253253,2.568899473815525
1780495479403703808,3.120328903198242,0.06068895757198334,0.008692355826497078,-0.5163931250572205,-0.026707319542765617,0.0127771170809865,-0.999561607837677,-0.36320051550865173,0.4608709514141083,0.030918478965759277,-0.2847163602263345,-0.010982929010847508,0.009927598118287416,-0.9584975232577561,-0.01277746495104039,-0.026712676795955608,2.5639358882837686
1780495479413739008,3.130363941192627,0.13892358541488647,0.04647834971547127,-0.5310335755348206,-0.026447387412190437,0.011527970433235168,-0.9995837211608887,-0.3654898703098297,0.474647581577301,-0.03601503372192383,-0.28723737940711863,-0.011011663110934138,0.009320740492859482,-0.9577507673763761,-0.011528225557776486,-0.026452230015284874,2.5586948771462845
1780495479423773952,3.1403989791870117,-0.0030069290660321712,0.007290467619895935,-0.5414412021636963,-0.02616856060922146,0.010569721460342407,-0.9996016621589661,-0.3024599850177765,0.3752335011959076,-0.08482521772384644,-0.28979828346632885,-0.010992088438219649,0.008851090105301954,-0.95698371576485,-0.010569918289238641,-0.026173010697375484,2.5533619036555995
1780495479433807872,3.150432825088501,-0.13776127994060516,-0.09604204446077347,-0.5833455324172974,-0.02665896713733673,0.011219056323170662,-0.9995816349983215,-0.23663143813610077,0.2894706428050995,-0.05982083082199097,-0.29249611180583884,-0.011106641394356917,0.009264351880717692,-0.9561573061036136,-0.01121929199324818,-0.026663803705729006,2.5477069014372935
1780495479443842816,3.1604678630828857,-0.21723292768001556,-0.11847864836454391,-0.6250114440917969,-0.027894293889403343,0.012945380061864853,-0.9995270371437073,-0.2296435534954071,0.26558855175971985,0.006530821323394775,-0.2954067937231363,-0.011413603032345569,0.010305540899307939,-0.9552478596358877,-0.012945741617592765,-0.02790025048215237,2.5415764442081388
1780495479453878016,3.1705029010772705,-0.06227638199925423,-0.015119235031306744,-0.6657828688621521,-0.028687186539173126,0.014267107471823692,-0.9994866251945496,-0.29116755723953247,0.32940658926963806,0.01169365644454956,-0.29850150146858534,-0.01156131915004018,0.011091801628428665,-0.9542746410003318,-0.0142675918403804,-0.028694043702572048,2.535063200964616
1780495479463912960,3.1805379390716553,0.06401924788951874,0.057834602892398834,-0.7086799740791321,-0.02850513346493244,0.014041662216186523,-0.9994950294494629,-0.328565776348114,0.3963282108306885,0.02107095718383789,-0.30180273303165994,-0.011470078274393109,0.01099676307073795,-0.9532379607074803,-0.01404212353459258,-0.028511807743087772,2.5281465106209335
1780495479473947904,3.19057297706604,0.2026357203722,0.09257633239030838,-0.7166151404380798,-0.027879448607563972,0.012449303641915321,-0.9995337724685669,-0.2956221401691437,0.3990497291088104,0.047492146492004395,-0.3052087608139318,-0.011375724583427746,0.010183783569084361,-0.9521630471035702,-0.012449624780044221,-0.027885223511544457,2.5210290224946084
1780495479483981824,3.2006068229675293,0.1846599131822586,0.12005097419023514,-0.7325744032859802,-0.02687595784664154,0.010267110541462898,-0.9995860457420349,-0.23404933512210846,0.36038413643836975,-0.008440077304840088,-0.3086652065301481,-0.01119811867929381,0.009032035598633298,-0.9510618768273427,-0.010267290616879239,-0.026880611519539455,2.513808569493902
1780495479494016768,3.210641860961914,0.1477828472852707,0.03616965189576149,-0.7659443616867065,-0.02606908045709133,0.008423995226621628,-0.9996246695518494,-0.15061244368553162,0.30525094270706177,3.6656856536865234e-05,-0.3122227750770342,-0.011068637112355187,0.008072214035571186,-0.9499101500753285,-0.008424094537001178,-0.02607295860563938,2.5063574108389006
1780495479504051968,3.220676898956299,-0.021261833608150482,-0.01545625738799572,-0.8061032295227051,-0.026079820469021797,0.007569952867925167,-0.9996312260627747,-0.07914479076862335,0.24218590557575226,-0.0018793940544128418,-0.31596465305657373,-0.011176762699272478,0.007712280294098562,-0.9486738225361631,-0.007570025257201736,-0.026083525149591204,2.4984861363165756
1780495479514086912,3.2307119369506836,-0.17335230112075806,-0.036962348967790604,-0.8832589983940125,-0.026383792981505394,0.008343947120010853,-0.9996170401573181,-0.07069262117147446,0.2916438579559326,-0.02482748031616211,-0.3199608551154049,-0.011164345002386517,0.0081746899092408,-0.9473297459552491,-0.008344043905087348,-0.026387774522420596,2.4900416057261903
1780495479524122112,3.2407469749450684,-0.2190212458372116,-0.10574101656675339,-0.9756507277488708,-0.027197392657399178,0.010269096121191978,-0.9995773434638977,-0.09427782893180847,0.3819428086280823,-0.012995898723602295,-0.3244057839274373,-0.011198421091771688,0.009269741200443165,-0.945806402953938,-0.010269276511502556,-0.0272021808416122,2.4806137289188768
1780495479534155776,3.2507808208465576,-0.205898255109787,-0.09997527301311493,-1.0190373659133911,-0.028406864032149315,0.012064395472407341,-0.9995236396789551,-0.12042736262083054,0.3748984932899475,0.027645587921142578,-0.3291464165495537,-0.01142745485730864,0.010372795264620335,-0.944152808922346,-0.012064688618408793,-0.02841275422476406,2.470539316166382
1780495479544190976,3.2608158588409424,-0.10702333599328995,0.019652461633086205,-1.0794622898101807,-0.029010631144046783,0.01347531657665968,-0.9994882941246033,-0.1403314173221588,0.26150330901145935,0.02536720037460327,-0.3340992387746824,-0.011421716027712282,0.011198662953784359,-0.9424022453829042,-0.013475724815842855,-0.029017337446302666,2.4600077812967323
1780495479554225920,3.270850896835327,-0.10187225043773651,0.15557222068309784,-1.1819050312042236,-0.028196388855576515,0.014170062728226185,-0.9995019435882568,-0.12941163778305054,0.1680656522512436,0.015386402606964111,-0.3394683797126966,-0.010856701427949424,0.011452110342258723,-0.9404850225095654,-0.014170537066112541,-0.028202958728070653,2.448599485122629
1780495479564260864,3.280885934829712,0.08241502940654755,0.15490908920764923,-1.2409050464630127,-0.026736481115221977,0.014178506098687649,-0.9995419383049011,-0.06969906389713287,0.22759701311588287,0.03494232892990112,-0.3451941837969469,-0.010100024691452563,0.011269840405581688,-0.9384092668083759,-0.014178980878587037,-0.026742355442396334,2.436427438534395
1780495479574296064,3.2909209728240967,0.2917967438697815,0.1493806391954422,-1.3198271989822388,-0.025425845757126808,0.011764876544475555,-0.999607503414154,0.003270084038376808,0.34767115116119385,-0.007228434085845947,-0.3512036795194765,-0.009837762365972136,0.009973888103921533,-0.9361942462216087,-0.011765148045918274,-0.025430346145655598,2.423656637830565
1780495479584329728,3.300954818725586,0.2492396980524063,0.15291397273540497,-1.377700924873352,-0.024052878841757774,0.008766761049628258,-0.9996722340583801,0.033467553555965424,0.3677438497543335,-0.05692261457443237,-0.35752881676839227,-0.009664860810109801,0.008394437637234424,-0.9338144303601104,-0.008766873801886519,-0.024056124187695184,2.41018365162008
1780495479594364928,3.3109898567199707,0.1426330953836441,0.13800160586833954,-1.4545499086380005,-0.022660955786705017,0.006373752374202013,-0.9997228980064392,0.04290936887264252,0.2832685708999634,-0.06814819574356079,-0.3641398710221347,-0.009392565261389258,0.007094702728263425,-0.9312699703130216,-0.006373795348662787,-0.02266335656583607,2.3960482128163925
1780495479604399872,3.3210248947143555,-0.06641945242881775,0.10900551080703735,-1.5094515085220337,-0.021595219150185585,0.005750978831201792,-0.9997502565383911,0.033313967287540436,0.21908727288246155,-0.10950267314910889,-0.37108810822311844,-0.008959967377731123,0.0066776772051538565,-0.9285304611929881,-0.005751010403662211,-0.021597254548228,2.3811196767109815
1780495479614435072,3.3310599327087402,-0.04716693237423897,0.16523364186286926,-1.4947702884674072,-0.020378833636641502,0.006130813620984554,-0.9997735619544983,0.0036552008241415024,0.22163712978363037,0.004671633243560791,-0.3780784468587572,-0.00827444258091653,0.006690842070455514,-0.925712349965593,-0.006130851880352001,-0.02038062761592177,2.366044226693694
1780495479624470016,3.341094970703125,0.10917234420776367,0.21436002850532532,-1.531988501548767,-0.018479937687516212,0.0055589135736227036,-0.9998137950897217,-0.013990765437483788,0.24409013986587524,0.05814814567565918,-0.38508833282683047,-0.007457272137548713,0.0061237388543301935,-0.9228292283447223,-0.005558942043491956,-0.018481275744550597,2.3508952682586655
1780495479634503936,3.3511288166046143,0.23968161642551422,0.1593702882528305,-1.5509347915649414,-0.016654355451464653,0.0036118270363658667,-0.9998548030853271,0.0366128534078598,0.27504417300224304,0.03989386558532715,-0.3922238057214473,-0.006951773167023844,0.00492760887257806,-0.9198304061583449,-0.0036118349380788914,-0.016655234320544044,2.3354359813555288
1780495479644538880,3.361163854598999,0.24399007856845856,0.12192822992801666,-1.564954161643982,-0.015286891721189022,0.0008421584498137236,-0.9998828172683716,0.1413702666759491,0.2274903655052185,0.08707153797149658,-0.39940200850074037,-0.006839303467034852,0.003439030904754833,-0.9167439503729876,-0.0008421585707473753,-0.015287492738377387,2.3198317750484216
1780495479654573824,3.371198892593384,0.19391173124313354,0.022960640490055084,-1.5875804424285889,-0.014529470354318619,-0.001560036325827241,-0.9998932480812073,0.20790410041809082,0.1834447979927063,0.11331182718276978,-0.40661784113459315,-0.006954378422950661,0.002241490186749899,-0.9135691068043902,0.0015600369386874378,-0.014529999309129467,2.3040822299096977
1780495479664609024,3.3812339305877686,0.10653847455978394,-0.11489149928092957,-1.654362678527832,-0.015018326230347157,-0.0033540239091962576,-0.9998815655708313,0.23158632218837738,0.1766786128282547,0.06550967693328857,-0.41403906069624197,-0.0075298340392844255,0.0015827195010054283,-0.9102266372163885,0.0033540302160679466,-0.015018975529643725,2.287817260234019
1780495479674643968,3.3912689685821533,-0.02005488984286785,-0.09326663613319397,-1.6456629037857056,-0.016141377389431,-0.00396083714440465,-0.9998618960380554,0.1773657500743866,0.20111964643001556,0.00575178861618042,-0.42158798570832867,-0.008153576292512782,0.0016068729815279846,-0.9067494138747364,0.0039608476991119315,-0.016142205374010708,2.271200842073582
1780495479684677888,3.4013028144836426,-0.017434338107705116,-0.028216660022735596,-1.6258513927459717,-0.016595175489783287,-0.0039557418785989285,-0.9998544454574585,0.08870821446180344,0.25564947724342346,-0.01850181818008423,-0.4289887231213491,-0.008344049488954584,0.0017731496714852623,-0.9032695974697255,0.0039557522084013655,-0.01659606654476286,2.2548450812350573
1780495479694712832,3.4113378524780273,0.014515605755150318,-0.1547093540430069,-1.6828233003616333,-0.01735013909637928,-0.004183151759207249,-0.9998407363891602,0.10281461477279663,0.18402324616909027,0.039040565490722656,-0.4364626828757903,-0.00871835941593361,0.001904750927485071,-0.899678043791595,0.004183164105298773,-0.017351160912443566,2.2382634923556517
1780495479704748032,3.421372890472412,-0.014223364181816578,-0.21180753409862518,-1.667023777961731,-0.019243981689214706,-0.0044912490993738174,-0.9998047351837158,0.1540859043598175,0.08006802946329117,0.03284001350402832,-0.4440433998823534,-0.009618923701683116,0.0022608328326532623,-0.8959508306140976,0.004491264158023988,-0.019245363253469275,2.2213748689286534
1780495479714782976,3.431407928466797,0.016916444525122643,-0.12571419775485992,-1.6424736976623535,-0.020872212946414948,-0.004736311733722687,-0.9997709393501282,0.15063294768333435,0.09737242013216019,-0.016723811626434326,-0.4514342143101532,-0.010381770238011399,0.0025985495718603715,-0.892240197595679,0.004736329522355333,-0.02087396378188932,2.204840073862392
1780495479724817920,3.4414429664611816,-0.014426563866436481,-0.14926572144031525,-1.6869261264801025,-0.02210838347673416,-0.0050918906927108765,-0.9997426271438599,0.16811972856521606,0.10531161725521088,-0.03896892070770264,-0.4588759465256928,-0.010990540570384443,0.002810975846248114,-0.8884278898847002,0.005091912738393564,-0.022110472042642014,2.1881230577721493
1780495479734851840,3.451476812362671,-0.0659741759300232,-0.1457495540380478,-1.7295063734054565,-0.023634178563952446,-0.005202543456107378,-0.9997071623802185,0.2149336189031601,0.02744985744357109,0.021649301052093506,-0.46646262627042884,-0.011666824425870944,0.003211984362748671,-0.8844582015465222,0.005202566767465747,-0.023636699157809547,2.1710022106105904
1780495479744886784,3.4615118503570557,-0.25715774297714233,-0.0928875282406807,-1.8130228519439697,-0.024725865572690964,-0.0039003174751996994,-0.9996866583824158,0.22228141129016876,0.006234911736100912,0.02777808904647827,-0.4743107055509627,-0.011809532966866449,0.00414785871101801,-0.8802684628460216,0.0039003272931647025,-0.02472857470749719,2.153194507889461
1780495479754921984,3.4715468883514404,-0.0636897161602974,-0.17289288341999054,-1.8876110315322876,-0.025961006060242653,-0.002488195663318038,-0.9996598362922668,0.2111111581325531,0.15681558847427368,0.01626145839691162,-0.4824833376439417,-0.011970721583636233,0.00517416553518404,-0.8758080563130807,0.0024881982539942758,-0.025964003568844988,2.1345559064058577
1780495479764956928,3.481581926345825,0.09071903675794601,-0.1714804768562317,-1.873365044593811,-0.027736131101846695,-0.0032003705855458975,-0.999610185623169,0.2070726752281189,0.19564421474933624,0.049674272537231445,-0.49074796078434657,-0.012869511805351662,0.005412714329193252,-0.8711897815941948,0.0032003759842253294,-0.027739830926476902,2.115631435984327
1780495479774991872,3.49161696434021,0.07335122674703598,-0.11033722758293152,-1.8440020084381104,-0.029075196012854576,-0.004523127805441618,-0.9995669722557068,0.16582447290420532,0.1200626790523529,0.0047550201416015625,-0.49882122791580674,-0.013729080034301918,0.005292982068346168,-0.8665800334262664,0.004523143389323879,-0.02907959254385936,2.097057542125647
1780495479785025792,3.501650810241699,0.03345680609345436,-0.07186160981655121,-1.8742907047271729,-0.02980903349816799,-0.005594122689217329,-0.9995399713516235,0.15314581990242004,0.028695929795503616,-0.023378729820251465,-0.5068640379624896,-0.014267104321458042,0.005144980972762651,-0.8618925616162982,0.0055941517303321284,-0.02981391686426284,2.078454747858215
1780495479795060992,3.511685848236084,-0.0002921026316471398,-0.18556153774261475,-1.8684725761413574,-0.030939549207687378,-0.006262129172682762,-0.999501645565033,0.20879599452018738,-0.030648881569504738,-0.03501373529434204,-0.514944457620245,-0.0148748370507135,0.0052838238259143465,-0.8570782289193287,0.0062621699894477,-0.030945094825758582,2.0596542232559405
1780495479805095936,3.5217208862304688,-0.20491981506347656,-0.21688471734523773,-1.8506953716278076,-0.03292618319392204,-0.005888358224183321,-0.9994404315948486,0.24592362344264984,-0.016526801511645317,-0.07079571485519409,-0.5229148324550533,-0.015574101247231617,0.0061014105965507435,-0.8522208530793725,0.005888392429650108,-0.03293270734660286,2.0409840764245843
1780495479815130880,3.5317559242248535,-0.21461504697799683,-0.14448107779026031,-1.855298638343811,-0.03467116132378578,-0.004147636704146862,-0.999390184879303,0.18439039587974548,0.025906670838594437,-0.03198188543319702,-0.5308113847316857,-0.015794233137063407,0.007447025974106365,-0.8473101236407592,0.004147648418747743,-0.03467840807197092,2.022358331218635
1780495479825166080,3.5417909622192383,-0.1936676800251007,-0.0687694102525711,-1.8841763734817505,-0.03568115457892418,-0.0027555820997804403,-0.9993594288825989,0.11267700791358948,0.07615035772323608,-0.016769111156463623,-0.5387642486410988,-0.015773877033074517,0.008454105666792772,-0.8422664903297534,0.0027555856853784103,-0.035688866978314526,2.0034978585040824
1780495479835199744,3.5518248081207275,0.004711710847914219,-0.05140054225921631,-1.846021294593811,-0.03618907928466797,-0.0022653446067124605,-0.9993423819541931,0.09177684783935547,0.1349252611398697,-0.03386068344116211,-0.5466328958529965,-0.015772657047486694,0.008945766441579853,-0.8371759964657681,0.0022653464621166537,-0.036197076939131594,1.9847431170511427
1780495479845234944,3.5618598461151123,0.0591866709291935,0.014286058954894543,-1.8233509063720703,-0.036395322531461716,-0.0033374540507793427,-0.9993318915367126,0.09875799715518951,0.04156072065234184,0.03876066207885742,-0.5543087151577639,-0.016072824307747917,0.00870146539397253,-0.832110369462014,0.0033374602100811708,-0.03640356637320111,1.966366312177288
1780495479855269888,3.571894884109497,0.0828283503651619,0.04446020722389221,-1.774376630783081,-0.0359816700220108,-0.004590138327330351,-0.9993419051170349,0.0880904346704483,-0.03618134558200836,-0.011079847812652588,-0.5618048193342996,-0.0161744003744847,0.00821185581305595,-0.8270708845531901,0.004590154576909022,-0.035989819557167665,1.9483199680827243
1780495479865304832,3.581929922103882,0.1886298805475235,0.1491442769765854,-1.7348707914352417,-0.03497850149869919,-0.006470109801739454,-0.9993671178817749,0.10040818899869919,-0.014754865318536758,-0.0782238245010376,-0.569044749599511,-0.016224185721713868,0.00729489103649671,-0.8221141089641322,0.006470154857168056,-0.03498637207983207,1.9307993368234084
1780495479875340032,3.5919649600982666,0.08866173774003983,0.17101335525512695,-1.794613003730774,-0.03309418261051178,-0.008518841117620468,-0.999415934085846,0.15336395800113678,-0.03565535321831703,-0.05144160985946655,-0.5762787481322952,-0.01597948639481438,0.0060572410175027515,-0.81707459219891,0.008518944402033919,-0.033101428663645224,1.9131919265425004
1780495479885373952,3.601998805999756,0.02357168309390545,0.020243681967258453,-1.8295975923538208,-0.032008834183216095,-0.009740457870066166,-0.9994401335716248,0.233073890209198,-0.0012916475534439087,-0.025614798069000244,-0.5836895679055996,-0.015839593201332373,0.005389445916462341,-0.8118045051859538,0.009740611702115784,-0.03201582066722008,1.8950168374718968
1780495479895408896,3.6120338439941406,-0.03557046502828598,0.02046792209148407,-1.8122342824935913,-0.031724996864795685,-0.010059652850031853,-0.9994460344314575,0.2626972794532776,0.029987631365656853,0.00809776782989502,-0.5911016557782767,-0.015769426765271762,0.005321643000810788,-0.806425386780282,0.010059822187628627,-0.03173192644531875,1.8767014182432655
1780495479905443840,3.6220688819885254,0.17318381369113922,0.02000679448246956,-1.741943359375,-0.031213171780109406,-0.011078483425080776,-0.9994513392448425,0.2203916311264038,0.004028923809528351,0.06663578748703003,-0.5982688970891765,-0.015821108968504194,0.004900657502373806,-0.8011242988839096,0.011078709843353742,-0.03122015865039454,1.8588830160130065
1780495479915479040,3.63210391998291,0.14755116403102875,-0.08327405154705048,-1.7118253707885742,-0.03137567266821861,-0.01344954501837492,-0.9994171857833862,0.2187536060810089,-0.0809413269162178,0.05292975902557373,-0.6051675052301271,-0.016560625097740842,0.004142627214815264,-0.7959151765254204,0.013449950123910011,-0.03138366216301473,1.841629790192604
1780495479925513984,3.642138957977295,0.01428257953375578,-0.03213416785001755,-1.6565040349960327,-0.03189397603273392,-0.014712768606841564,-0.9993829727172852,0.16916203498840332,-0.11982397735118866,0.007271766662597656,-0.6118761573713052,-0.017116693609819322,0.003941674077508591,-0.7907585469743145,0.014713299346384684,-0.031902840308800584,1.8247278128417581
1780495479935547904,3.652172803878784,0.0747390016913414,0.06007831543684006,-1.5984535217285156,-0.03139575943350792,-0.015576612204313278,-0.9993856549263,0.06687244772911072,-0.05731462314724922,-0.04205721616744995,-0.6182897568629993,-0.017155382552800025,0.003587239846530686,-0.7857548700087758,0.015577242219550862,-0.03140472949591994,1.808466132064586
1780495479945582848,3.662207841873169,0.2181749939918518,0.024749085307121277,-1.5796418190002441,-0.03070642612874508,-0.017459960654377937,-0.9993759393692017,0.06104090064764023,-0.022655395790934563,-0.05358731746673584,-0.6245262394143676,-0.01744539590877249,0.0027729460452429193,-0.7808040162427631,0.017460847419906413,-0.03071593670698259,1.7925616381317755
1780495479955617792,3.6722428798675537,0.12876282632350922,0.010190648958086967,-1.5986391305923462,-0.030283650383353233,-0.019932078197598457,-0.9993425607681274,0.13721725344657898,-0.09725542366504669,-0.002656280994415283,-0.6307079931599926,-0.018038747015210924,0.0018189316895934888,-0.7758083662234636,0.019933399044642298,-0.03029430219653516,1.7766967806231166
1780495479965652992,3.6822779178619385,-0.018935563042759895,-0.07057876139879227,-1.5580304861068726,-0.030217144638299942,-0.020889637991786003,-0.9993250370025635,0.19633957743644714,-0.09863245487213135,0.0011103153228759766,-0.6368453442524009,-0.018303187492627063,0.0015717750047245017,-0.7707725831953203,0.020891156909244205,-0.03022834391985829,1.7608300557110206
1780495479975687936,3.6923129558563232,-0.10308638960123062,-0.08989573270082474,-1.5005632638931274,-0.03075358271598816,-0.02060537040233612,-0.9993146061897278,0.23468729853630066,-0.01349802315235138,0.03276187181472778,-0.642735676782713,-0.01840474706291085,0.0019934368703582676,-0.7658643052839367,0.020606829219173214,-0.03076496727458254,1.745494224394297
1780495479985721856,3.7023468017578125,-0.18404808640480042,-0.09636775404214859,-1.4688085317611694,-0.03133564069867134,-0.019624965265393257,-0.9993162155151367,0.25182515382766724,-0.009412508457899094,0.104617178440094,-0.6484396152227241,-0.018292917364998596,0.0026928491082729056,-0.7610415469776832,0.01962622443497937,-0.03134680980210554,1.730543251823773
1780495479995756800,3.7123818397521973,-0.14286363124847412,-0.20849189162254333,-1.4485373497009277,-0.032596979290246964,-0.018332215026021004,-0.9993004202842712,0.26823845505714417,-0.010827329009771347,0.07463312149047852,-0.6539979153715871,-0.018327005206012322,0.0037284757379475943,-0.7562650663735813,0.018333241470086067,-0.032608235554662156,1.7158744878497845
1780495480005792000,3.722416877746582,0.049913275986909866,-0.27500367164611816,-1.3982181549072266,-0.03483416885137558,-0.01817624643445015,-0.9992278218269348,0.2707045376300812,0.01709287241101265,0.021826088428497314,-0.6594036154215399,-0.019089612803423955,0.004656668668804621,-0.7515322737085461,0.018177246795121733,-0.03484697623978403,1.7015202065087798
