time,seconds_elapsed,rotationRateX,rotationRateY,rotationRateZ,gravityX,gravityY,gravityZ,accelerationX,accelerationY,accelerationZ,quaternionW,quaternionX,quaternionY,quaternionZ,pitch,roll,yaw
1781552131541455872,0.030050992965698242,0.1112789660692215,0.006774235516786575,-0.02513977140188217,0.11924903094768524,-0.32850849628448486,-0.9369428157806396,0.011411979794502258,0.013887524604797363,0.0069196224212646484,0.059741817281029314,-0.050343232025637785,0.17027668525603323,0.9822944289372184,0.33472398534906533,0.12659397797446334,2.9986901398851433
1781552131551491072,0.04008603096008301,0.08222360908985138,0.008566276170313358,-0.05304517224431038,0.1194252148270607,-0.32943540811538696,-0.9365948438644409,-0.0049080029129981995,-0.012010514736175537,-0.009358525276184082,0.05995239078262145,-0.050370980020716875,0.17077862081286602,0.9821929516379684,0.3357055259232747,0.12682561769709524,2.9981470010741984
1781552131561526016,0.05012106895446777,0.0454658679664135,-0.01089290902018547,-0.016239220276474953,0.11952231079339981,-0.32994288206100464,-0.9364038109779358,-0.04304526001214981,-0.03135472536087036,0.01965576410293579,0.06016066386665236,-0.05037020931626664,0.17105827476486168,0.9821316429872392,0.33624306442296065,0.1269532435564443,2.997660028547443
1781552131571559936,0.06015491485595703,0.015004631131887436,0.017174944281578064,-0.021796705201268196,0.11954963207244873,-0.330304354429245,-0.9362728595733643,-0.07185066491365433,-0.023119688034057617,-0.027579009532928467,0.06023258313148749,-0.050361646450790915,0.17125204323269363,0.9820938754560158,0.3366259955237703,0.12699952213042667,2.997476476862835
1781552131581594880,0.0701899528503418,-0.03545002266764641,-0.0010107173584401608,-0.021733321249485016,0.11974240094423294,-0.3301306366920471,-0.9363095164299011,-0.06409359723329544,-0.010704904794692993,-0.04641753435134888,0.06035072293558214,-0.05044385408174956,0.1711743629067756,0.9820959492492007,0.3364419824945918,0.12719718003584923,2.9972153896557137
1781552131591629056,0.08022403717041016,-0.015685904771089554,-0.013337424024939537,0.005787517875432968,0.1196250468492508,-0.3298971652984619,-0.9364067912101746,-0.03359599411487579,0.00026154518127441406,0.01735466718673706,0.06036916681833345,-0.05038739459001701,0.1710488533777721,0.9821195937110964,0.33619464569393837,0.12706079716622204,2.9972203627979863
1781552131601664000,0.09025907516479492,-0.03926979377865791,0.02861921489238739,0.004317186772823334,0.11967884749174118,-0.32966628670692444,-0.936481237411499,-0.03285633772611618,-0.008819431066513062,0.03738760948181152,0.060327858065796096,-0.05042829654428192,0.17092794779277598,0.9821411831433166,0.3359500851035376,0.12710733002804217,2.9973149796947145
1781552131611699200,0.10029411315917969,-0.05347056686878204,0.03348853811621666,0.00841525848954916,0.11993425339460373,-0.32923755049705505,-0.9365993738174438,-0.048553645610809326,-0.02893197536468506,0.07426422834396362,0.060255827958752686,-0.05058249000631174,0.17070945535818724,0.9821756146552548,0.33549599145314263,0.12735977608536983,2.9974521771958056
1781552131621732864,0.11032795906066895,-0.02909145876765251,0.01615775004029274,0.024255741387605667,0.12011527270078659,-0.3288706839084625,-0.9367050528526306,-0.03814505785703659,-0.024141401052474976,0.044752538204193115,0.060147392549403766,-0.050703437733821195,0.1705186908143606,0.9822091439814037,0.335107482471921,0.12753568495621842,2.9976719251542727
1781552131631768064,0.12036299705505371,-0.023139026015996933,-0.007087651174515486,0.020524652674794197,0.12004634737968445,-0.3286556005477905,-0.9367893934249878,-0.025090903043746948,-0.005298256874084473,-0.013131260871887207,0.06002222866898972,-0.05069600152682203,0.1703972399473487,0.9822382303383981,0.33487974014340194,0.12745194487914072,2.9979585970007587
1781552131641803008,0.13039803504943848,-0.009728945791721344,0.006043730303645134,0.024252012372016907,0.11993096023797989,-0.3285427391529083,-0.936843752861023,-0.03428337723016739,-0.008722245693206787,-0.019668638706207275,0.05991558045589455,-0.05065890948295924,0.17032849372514716,0.9822585705133298,0.33476024104164737,0.12732344885540445,2.998207096791417
1781552131651837184,0.14043211936950684,0.003306162543594837,0.033721163868904114,0.014504044316709042,0.12005806714296341,-0.32854175567626953,-0.9368278384208679,-0.03965950012207031,-0.009562492370605469,-0.02928239107131958,0.05978757606331375,-0.05074576582997386,0.17032603755595255,0.9822622942617566,0.33475921041174833,0.12745908277819204,2.9984442784176655
1781552131661871872,0.1504669189453125,0.03596397489309311,0.011088956147432327,-0.012412524782121181,0.12026863545179367,-0.3287334144115448,-0.9367335438728333,-0.01302986592054367,-0.0044117271900177,-0.007999062538146973,0.059768075723293033,-0.050851008133439374,0.17043294706761586,0.9822395243419392,0.33496214597864243,0.12769292281153824,2.9984280282256877
1781552131671907072,0.16050195693969727,0.029242955148220062,0.007717127911746502,-0.026953384280204773,0.12039028108119965,-0.3290528953075409,-0.9366057515144348,-0.004179343581199646,-0.028903037309646606,0.023916542530059814,0.059873653395605714,-0.05088583607329668,0.17060992678761971,0.9822006145825377,0.3353004552499984,0.1278379218501923,2.998162174109256
1781552131681940992,0.17053604125976562,0.01208287663757801,0.019606277346611023,-0.031533222645521164,0.1205281987786293,-0.32931140065193176,-0.936497151851654,-0.0301961749792099,-0.04686352610588074,0.013218343257904053,0.05999497000118924,-0.0509278407631379,0.17075645709602086,0.9821655885038458,0.3355742082036889,0.12799746438249354,2.9978665739012307
1781552131691976192,0.1805710792541504,0.05895158275961876,0.005812168121337891,-0.03384777903556824,0.12061838805675507,-0.32980942726135254,-0.9363102912902832,-0.038632914423942566,-0.03054213523864746,0.006393909454345703,0.060141494515849915,-0.050934590857889574,0.171027847923397,0.9821090396292843,0.33610169908201437,0.12811748049586674,2.997507070064301
1781552131702009856,0.19060492515563965,0.0968417078256607,0.013696722686290741,-0.021620403975248337,0.12066082656383514,-0.33071133494377136,-0.9359866380691528,-0.03014569729566574,0.004722565412521362,-0.010073542594909668,0.060265405275768485,-0.05090984187667912,0.1715076268272015,0.9820191011863666,0.33705721364273505,0.12820590132427273,2.997166339843006
1781552131712045056,0.20063996315002441,0.06350025534629822,0.0156839732080698,-0.03282858431339264,0.12080653756856918,-0.3314730226993561,-0.9356983304023743,-0.029284320771694183,-0.009576141834259033,-0.007752537727355957,0.060407495584294466,-0.050938175534148505,0.17191895123992068,0.9819368915431003,0.3378644419756049,0.12839813964112345,2.9967815171424896
1781552131722080000,0.21067500114440918,0.02218051813542843,0.0003500250168144703,-0.03624861687421799,0.12087442725896835,-0.33181315660476685,-0.9355690479278564,-0.02118876576423645,-0.053456008434295654,0.022773027420043945,0.0605692234791782,-0.050935000945365065,0.17210783800814045,0.9818940880146828,0.33822497056227047,0.12848707250136956,2.9964089367953974
1781552131732114176,0.22070908546447754,0.007847118191421032,-0.0024284510873258114,-0.026787469163537025,0.12082810699939728,-0.3318973779678345,-0.9355451464653015,-0.005792096257209778,-0.05949056148529053,0.033781230449676514,0.0607249147687185,-0.05088181946984013,0.1721582736463157,0.9818783516541078,0.33831425554376315,0.12844161803045107,2.9960929125429225
1781552131742149120,0.2307441234588623,-0.02113020420074463,-0.01220824383199215,-0.02717389352619648,0.12081262469291687,-0.33180055022239685,-0.9355815052986145,-0.0003597438335418701,-0.04594603180885315,0.022816002368927002,0.06085431440342753,-0.050853940777803724,0.17211371710339782,0.9818796455667103,0.3382116110290507,0.12842040368750401,2.995840954805349
1781552131752183808,0.24077892303466797,-0.0011290657566860318,-0.00032974686473608017,-0.02103184536099434,0.1208152025938034,-0.33175554871559143,-0.9355971217155457,0.004383161664009094,-0.03530988097190857,0.034748733043670654,0.06097851014008199,-0.050834735660582275,0.17209669862141813,0.9818758856149445,0.3381639050000921,0.12842099483876898,2.99559151794139
1781552131762217984,0.25081300735473633,0.00027495273388922215,0.02043505385518074,-0.012068976648151875,0.12089341878890991,-0.33190661668777466,-0.9355334043502808,0.011980116367340088,-0.017718017101287842,0.02575862407684326,0.06103645449646216,-0.05086015020219174,0.17218167859152256,0.9818561182084222,0.33832405827059187,0.12851187309210121,2.9954452889337158
1781552131772252928,0.2608480453491211,0.005636162124574184,-0.01440335437655449,-0.02429182082414627,0.12087590992450714,-0.3320479393005371,-0.9354855418205261,0.028614439070224762,-0.007383823394775391,0.006133735179901123,0.06109731210876685,-0.05083663711316685,0.1722581433974103,0.9818400590341678,0.338473858796863,0.12849997522403414,2.995311865303011
1781552131782288128,0.27088308334350586,0.0005228931549936533,-0.06572379916906357,-0.07508841902017593,0.12055303901433945,-0.3319992423057556,-0.935544490814209,0.042227715253829956,-0.019593775272369385,0.005048274993896484,0.06137410289295064,-0.05062522332654412,0.17223484651892676,0.9818378569454664,0.3384222323525491,0.12815250114043575,2.9948129901935023
1781552131792322048,0.2809169292449951,0.023903582245111465,-0.06851505488157272,-0.07812948524951935,0.12005685269832611,-0.3320232629776001,-0.9355997443199158,-0.004120573401451111,0.0031810998916625977,0.03571265935897827,0.061829371446032455,-0.050292334617064303,0.17225214808855904,0.9818232993899357,0.33844770528011964,0.1276233016925182,2.9939764558190234
1781552131802356992,0.2909519672393799,0.08136288821697235,-0.03561769798398018,-0.06743449717760086,0.11977241933345795,-0.33246558904647827,-0.9354791045188904,-0.06864022463560104,0.0039896368980407715,0.01865476369857788,0.062233115395259796,-0.05006421766448932,0.17249350325936652,0.9817671308719494,0.3389166878874206,0.12734044462401636,2.9931678357000973
1781552131812391168,0.30098605155944824,0.0712340772151947,-0.020972441881895065,-0.0524560809135437,0.11969202011823654,-0.3331635892391205,-0.9352410435676575,-0.09449975937604904,-0.03243699669837952,-0.005814254283905029,0.06258130132370665,-0.0499420821714344,0.17287352602742942,0.981684354739214,0.3396568759462729,0.12728792786566068,2.9924111428909077
1781552131822426112,0.311021089553833,0.028459984809160233,-0.014612812548875809,-0.037080854177474976,0.11964822560548782,-0.33357638120651245,-0.9350995421409607,-0.07397866994142532,-0.02920132875442505,-0.0033770203590393066,0.06282687681266122,-0.04986463355133443,0.17310042712775875,0.9816326826158559,0.3400947269386987,0.12726090730431808,2.9918821111575795
1781552131832461056,0.3210561275482178,0.0026648733764886856,-0.017129233106970787,-0.03811629116535187,0.11962897330522537,-0.33368971943855286,-0.935061514377594,-0.04801947623491287,-0.007878273725509644,0.02391350269317627,0.06302364454325904,-0.04981685890995505,0.17316901884300587,0.9816103368617056,0.34021493756115134,0.12724576121373668,2.991474645204356
1781552131842494976,0.33108997344970703,-0.026410985738039017,-0.03404496610164642,-0.02201055735349655,0.11948071420192719,-0.33355504274368286,-0.9351285696029663,-0.037434205412864685,-0.008562266826629639,0.02883279323577881,0.06319406084006261,-0.049715315369292884,0.17310145125795356,0.9816164756974638,0.3400720828480151,0.12708074610607584,2.991167482398872
1781552131852529920,0.3411250114440918,-0.05370093137025833,-0.03422632813453674,-0.0065029701218008995,0.11917509138584137,-0.3331838846206665,-0.9352998733520508,-0.02794279158115387,-0.012336134910583496,0.015103340148925781,0.06328612559172163,-0.04955448883613861,0.17290005169342418,0.9816541813401795,0.33967840974632224,0.1267361915776951,2.9910707183031384
1781552131862565120,0.35116004943847656,-0.03324811905622482,-0.037396688014268875,-0.001114862971007824,0.1188480481505394,-0.3327229619026184,-0.9355055093765259,-0.007596224546432495,-0.008310943841934204,0.0023390650749206543,0.06330876529558253,-0.049397661693970404,0.1726473564485956,0.9817050463858448,0.3391895765285764,0.1263646051047227,2.991127220981236
1781552131872599040,0.3611941337585449,-0.01873069629073143,-0.047017090022563934,-0.010023669339716434,0.11845248937606812,-0.3324916958808899,-0.935637891292572,0.010102801024913788,-0.0016757845878601074,-0.0044103264808654785,0.0633630229550672,-0.04919375647542198,0.1725138164088916,0.9817353412745062,0.3389443532524315,0.12593083811427053,2.991111618932327
1781552131882633984,0.3712289333343506,0.02699471451342106,-0.041850022971630096,-0.01370256021618843,0.118032306432724,-0.33252617716789246,-0.9356787204742432,0.002191677689552307,-0.015038490295410156,0.0051673054695129395,0.06345838636578136,-0.04896236026682028,0.17252047280215127,0.9817395211909881,0.33898093194268614,0.12548339206491452,2.9909931688343754
1781552131892668928,0.38126397132873535,0.05554566532373428,-0.04432889446616173,-0.02086087130010128,0.11767134070396423,-0.33292341232299805,-0.9355829358100891,-0.019786208868026733,-0.029823780059814453,0.0004938244819641113,0.06359447497380966,-0.04874324804938268,0.1727212173022727,0.9817063273470338,0.3394021654298663,0.12511630902255305,2.990748628617977
1781552131902703104,0.3912980556488037,0.043290331959724426,-0.043077610433101654,-0.025035908445715904,0.11729225516319275,-0.33337458968162537,-0.9354698657989502,-0.02415260672569275,-0.018233686685562134,-0.020401716232299805,0.0637564965038543,-0.04850870533176408,0.17295074415824221,0.981666972344157,0.33988065484157876,0.12473233013951315,2.99045001227645
1781552131912738048,0.4013330936431885,0.04624643921852112,-0.027494121342897415,-0.023396998643875122,0.11703485995531082,-0.33375945687294006,-0.9353649020195007,-0.012985184788703918,-0.0053518712520599365,-0.008345425128936768,0.0639125848165719,-0.04833895279594671,0.17314993912465979,0.9816301062049495,0.34028891207294854,0.12447526055719407,2.9901465749403124
1781552131922773248,0.41136813163757324,0.031245917081832886,-0.035287197679281235,-0.03452155739068985,0.11681991070508957,-0.33412986993789673,-0.9352595210075378,-0.001020960509777069,-0.011893689632415771,0.016390502452850342,0.0640824554133485,-0.04818870506787821,0.17334387002389223,0.9815921867570871,0.340681896630082,0.12426285122002399,2.989808379250389
1781552131932806912,0.4214019775390625,-0.02589406631886959,-0.034513816237449646,-0.028598418459296227,0.11657894402742386,-0.3341459035873413,-0.9352838397026062,-0.010011561214923859,-0.03024923801422119,0.0315210223197937,0.06428171113128052,-0.04803053276638254,0.1733526745241109,0.9815853154057173,0.34069890833683725,0.12400595737669752,2.989446459695017
1781552131942842112,0.43143701553344727,-0.09695519506931305,-0.03904278576374054,-0.012018909677863121,0.11628399789333344,-0.3335566520690918,-0.9355308413505554,-0.020763978362083435,-0.0410618782043457,0.02204817533493042,0.06438600583170948,-0.04787978716170305,0.173037847503009,0.9816414109696503,0.3400737899337807,0.12366308303111088,2.9893413780591294
1781552131952876032,0.4414710998535156,-0.17975552380084991,-0.03626004979014397,-0.01068919338285923,0.11596442013978958,-0.3322679102420807,-0.9360290169715881,-0.02009344846010208,-0.03328689932823181,0.018655359745025635,0.06443415502465946,-0.047747436929896685,0.1723533643329219,0.9817651026883701,0.3387070778550273,0.12326170014817552,2.9894161413168874
1781552131962911232,0.4515061378479004,-0.2070167064666748,-0.0516524538397789,-0.010564823634922504,0.11554780602455139,-0.3303893208503723,-0.9367452263832092,-0.02228608727455139,-0.019937217235565186,0.014534533023834229,0.06447312507586668,-0.04758516789468853,0.17135646552837766,0.9819449675151571,0.3367160168213548,0.12273034734362075,2.9895781402525072
1781552131972945920,0.46154093742370605,-0.15003758668899536,-0.02999722771346569,-0.004324505105614662,0.11515672504901886,-0.3287125527858734,-0.9373830556869507,-0.03579576313495636,-0.009483247995376587,0.0028585195541381836,0.06449719432204828,-0.047432560871927223,0.17046590497617872,0.9821057073944712,0.33494003973980446,0.12223668870854393,2.9897467160242126
1781552131982980096,0.4715750217437744,-0.08968928456306458,-0.004267629701644182,0.005509749986231327,0.11500067263841629,-0.3275563418865204,-0.9378068447113037,-0.04058355093002319,-0.0036051571369171143,-0.003813028335571289,0.06447289178006936,-0.04739218744448667,0.16985452070598486,0.9822151152011881,0.33371605942301436,0.12201806553201236,2.989924512965944
1781552131993015040,0.4816100597381592,-0.03593391925096512,-0.001432694960385561,0.0030130366794764996,0.11495687067508698,-0.32701894640922546,-0.9379997253417969,-0.03349020332098007,-0.03577399253845215,-0.01567453145980835,0.06443776482959941,-0.047392126048308385,0.16957039263517343,0.9822665346865901,0.3331473644723283,0.12194722108555356,2.9900502520979533
1781552132003049984,0.49164509773254395,-0.0441252700984478,-0.013826115056872368,-0.020408133044838905,0.11491463333368301,-0.32663482427597046,-0.9381387233734131,-0.03187631070613861,-0.05413296818733215,-0.011949717998504639,0.06446836015879275,-0.04737691019391788,0.16936957481640974,0.982299982996135,0.3327409233707382,0.1218849705785924,2.990028706323351
1781552132013083904,0.5016789436340332,-0.03478343039751053,-0.02364279329776764,-0.02759840153157711,0.11480626463890076,-0.32621121406555176,-0.9382994174957275,-0.02876194566488266,-0.025397062301635742,0.002233743667602539,0.06458966730793785,-0.04731368892613828,0.1691499870469772,0.9823328349893459,0.3322927588815581,0.1217505175815734,2.9898378770266327
1781552132023118848,0.511713981628418,0.000980157870799303,-0.016431352123618126,-0.02608679234981537,0.11468751728534698,-0.3260309398174286,-0.9383766055107117,-0.032091692090034485,0.005123347043991089,0.00336378812789917,0.06474273706547234,-0.0472324513066696,0.16905857688334594,0.9823424870201966,0.33210203948046935,0.12161592128867092,2.989563487913682
1781552132033154048,0.5217490196228027,0.03332345187664032,-0.02584536001086235,-0.017895175144076347,0.1145545244216919,-0.3261606693267822,-0.9383477568626404,-0.028159260749816895,-0.011134862899780273,0.01610654592514038,0.06486957636798597,-0.04713915308535864,0.16912726680987689,0.9823266986525994,0.3322392775096408,0.121479977655297,2.9893185093369365
1781552132043187968,0.5317831039428711,0.0220167338848114,-0.03455016762018204,-0.019102917984128,0.11431656032800674,-0.3264600932598114,-0.9382725954055786,-0.01780472695827484,-0.03009200096130371,0.03679865598678589,0.06499848284882534,-0.04698701761502081,0.16928056742328038,0.9822990227987625,0.33255605365607366,0.12123970742148943,2.9890741364198514
1781552132053222912,0.5418179035186768,0.004732817877084017,-0.047107771039009094,-0.021668341010808945,0.11398901790380478,-0.3265022933483124,-0.9382978081703186,-0.008413463830947876,-0.028325587511062622,0.044148027896881104,0.06513567132491016,-0.04679572922427744,0.16929636302598883,0.9822964460326229,0.3326006861272387,0.12089249604461412,2.9888514323395157
1781552132063257088,0.5518519878387451,0.011497247032821178,-0.05476755648851395,-0.02741863764822483,0.1135704517364502,-0.3265947103500366,-0.9383164048194885,-0.008055932819843292,-0.02368605136871338,0.037986814975738525,0.06529973163534106,-0.04655204953582466,0.16933608089503965,0.9822902973196507,0.33269846305266476,0.12045050461347036,2.988586430391793
1781552132073292032,0.5618870258331299,0.04817190393805504,-0.05771327763795853,-0.0278487391769886,0.11310075968503952,-0.3268126845359802,-0.9382972121238708,-0.01542925089597702,-0.004486143589019775,0.01886361837387085,0.06549826341905475,-0.04627260560899845,0.1694409339763133,0.9822721799707386,0.3329290932134666,0.11995955806756742,2.988250015884282
1781552132083326976,0.5719220638275146,0.07514387369155884,-0.044622909277677536,-0.02591528370976448,0.11272226274013519,-0.32741600275039673,-0.9381324648857117,-0.020711764693260193,-0.0008921027183532715,-0.00539475679397583,0.06568283344045071,-0.046029985187368845,0.1697498763684238,0.9822179629454617,0.3335675323970425,0.11958273056316997,2.9878927927216017
1781552132093360896,0.5819559097290039,0.02832709439098835,-0.055081408470869064,-0.027750201523303986,0.11234193295240402,-0.3279237151145935,-0.9380006790161133,-0.013098768889904022,-0.022601157426834106,0.007016241550445557,0.06586191456490013,-0.04579021141837693,0.1700085525608336,0.9821723020784713,0.3341049257071585,0.1191996505617994,2.987555253565172
1781552132103395840,0.5919909477233887,-0.03923064470291138,-0.07231605798006058,-0.03354364261031151,0.11179360002279282,-0.32784533500671387,-0.9380936026573181,-0.009025663137435913,-0.04778027534484863,0.023603856563568115,0.0660637570218623,-0.04547923607221099,0.16995537005671565,0.9821825120051179,0.3340219435524112,0.11861166265169558,2.987252081079496
1781552132113431040,0.6020259857177734,-0.07749255001544952,-0.08943992108106613,-0.034672558307647705,0.11112397909164429,-0.32720574736595154,-0.9383963942527771,-0.024469323456287384,-0.054370760917663574,0.023998260498046875,0.06628535461071944,-0.045120793947708245,0.16960514126476445,0.9822445300781557,0.3333450292448601,0.11787009397872952,2.9869778284094655
1781552132123464960,0.6120600700378418,-0.12008421123027802,-0.04636834189295769,-0.0187497828155756,0.11061954498291016,-0.3261828124523163,-0.9388120770454407,-0.038491249084472656,-0.034672290086746216,0.015884220600128174,0.06645996481859487,-0.04486651901620858,0.16905904713678727,0.982338609656026,0.33226269684524407,0.11728846842892435,2.9868003592274563
1781552132133500160,0.6220951080322266,-0.14240017533302307,-0.02123609371483326,-0.030508438125252724,0.1103268638253212,-0.32500359416007996,-0.9392553567886353,-0.028738126158714294,-0.036019325256347656,0.0032355189323425293,0.06654522307226474,-0.04474022098007745,0.16843583873206217,0.9824455813529211,0.331015529491219,0.11692626330492578,2.9867781966535323
1781552132143534848,0.6321299076080322,-0.03538903594017029,-0.0703679546713829,-0.036126911640167236,0.10998856276273727,-0.32408931851387024,-0.9396108984947205,-0.001483321189880371,-0.03450748324394226,-0.002359926700592041,0.06672496596814811,-0.044566434618452395,0.167953511460177,0.9825239604349367,0.3300489225713747,0.11652725888653383,2.9865496035175823
1781552132153569024,0.6421639919281006,0.01996929571032524,-0.04343487322330475,-0.07320636510848999,0.109591044485569,-0.3239210247993469,-0.9397153854370117,-0.017580553889274597,0.003486454486846924,0.01808452606201172,0.0670550639099753,-0.04431357431795577,0.1678648840721545,0.9825281109485716,0.32987105235411607,0.1160970972621187,2.9859638520727696
1781552132163603968,0.6521990299224854,0.0722479522228241,0.0017307405360043049,-0.06777937710285187,0.10960686206817627,-0.3243390917778015,-0.9395692944526672,-0.044772274792194366,0.013654917478561401,-0.011068463325500488,0.06744392503145118,-0.044241842484523605,0.16810118335051638,0.9824642094039511,0.3303129805639399,0.11613159085449479,2.9851348963126427
1781552132173638144,0.6622331142425537,0.10987602174282074,-0.01022925041615963,-0.04468444734811783,0.10975757986307144,-0.32518401741981506,-0.9392595887184143,-0.02310292422771454,-0.03422147035598755,-0.001520991325378418,0.06771229517771042,-0.04424537315377854,0.1685601910365171,0.98236694821992,0.3312063065091704,0.11632784370480374,2.9844912882373342
1781552132183672832,0.6722679138183594,0.07742592692375183,-0.0397941991686821,-0.08934885263442993,0.10971122235059738,-0.3260238766670227,-0.9389738440513611,-0.02226310223340988,-0.0757095217704773,-0.002127230167388916,0.0680910933006942,-0.04412979199046096,0.16901373514185072,0.9822679938156168,0.33209457580678575,0.11631422760145589,2.9836589680049896
1781552132193708032,0.6823029518127441,-0.00976543128490448,-0.05279069393873215,-0.06248288229107857,0.1095401719212532,-0.3262057304382324,-0.9389306902885437,-0.0185367614030838,-0.02885100245475769,0.006694972515106201,0.06853241801438742,-0.043961125630126635,0.16912151823731947,0.9822264021931127,0.33228693482559374,0.11613979755272728,2.9827766994967373
1781552132203741952,0.6923370361328125,-0.0026007285341620445,-0.04561919718980789,-0.037920817732810974,0.10922686010599136,-0.3260701298713684,-0.9390142560005188,-0.013355888426303864,0.0013173222541809082,0.0243719220161438,0.06879602824636068,-0.0437611421026701,0.16904979906433415,0.9822292868223885,0.33214351843306766,0.1158003604358915,2.982308625921958
1781552132213777152,0.7023720741271973,0.065533846616745,-0.05877840891480446,-0.04319680482149124,0.10880228132009506,-0.32643815875053406,-0.9389356970787048,-0.018561802804470062,-0.014656811952590942,0.038178861141204834,0.06903751841724495,-0.04349204635897547,0.16923535371790444,0.9821922619968811,0.3325328225896172,0.11536378756965417,2.9818643141417094
1781552132223812096,0.712407112121582,0.05638642609119415,-0.04549163207411766,-0.019460048526525497,0.1084047332406044,-0.3269336223602295,-0.9388092756271362,-0.0234895721077919,0.003218412399291992,0.03141486644744873,0.06927180629927936,-0.04323361170505416,0.16948812792485007,0.9821436373587402,0.33305707506802756,0.1149613149086782,2.981419411183881
1781552132233846016,0.7224409580230713,0.05630519986152649,-0.033426977694034576,0.005333715118467808,0.10806910693645477,-0.3274867832660675,-0.9386551380157471,-0.010458633303642273,0.002138882875442505,-0.0013167858123779297,0.06934456301783733,-0.043032488239827485,0.16976640122828954,0.9820992773378296,0.3336424485599066,0.11462715525802683,2.9812874545606016
1781552132243880960,0.732475996017456,-0.038206394761800766,-0.06602779775857925,0.007676498033106327,0.10760008543729782,-0.3276568651199341,-0.9386496543884277,0.004704594612121582,-0.03402218222618103,0.01173931360244751,0.06936258106971126,-0.04278573059698475,0.16983681120783747,0.9820966337211257,0.3338224625876335,0.11413464908538176,2.981323194577641
1781552132253915904,0.7425110340118408,-0.15581291913986206,-0.08903644233942032,0.04158492758870125,0.1067308560013771,-0.32679474353790283,-0.9390493631362915,0.010777071118354797,-0.07025420665740967,0.028664231300354004,0.0692907818965624,-0.042385480316917926,0.16934809836192327,0.9822034674084764,0.33291010259291304,0.11317274234480633,2.981699677821593
1781552132263950080,0.7525451183319092,-0.2689916789531708,-0.07499653100967407,0.0684724748134613,0.10574501007795334,-0.32485660910606384,-0.9398330450057983,0.022672951221466064,-0.07426753640174866,0.03202664852142334,0.06902775476572401,-0.04199435306234517,0.16828530109002862,0.982421372187422,0.33086010165683555,0.11204345526917082,2.9825721152822093
1781552132273985024,0.7625799179077148,-0.3729409873485565,-0.09769625216722488,0.028756482526659966,0.10479103773832321,-0.3218224346637726,-0.9409831166267395,0.05252707004547119,-0.05694645643234253,0.0565531849861145,0.06876767934307235,-0.041654427914211235,0.16665342730225147,0.9827322148904547,0.3276536867414526,0.11090638377212346,2.98351634901404
1781552132284019968,0.7726149559020996,-0.3645506799221039,-0.13515295088291168,0.0064876629039645195,0.10360252112150192,-0.3183305263519287,-0.9423015713691711,0.04085243493318558,-0.05087113380432129,0.05324822664260864,0.0687096703708049,-0.041176049796443445,0.16478398199791688,0.983071630210143,0.32396788350791533,0.1095064167490618,2.9841214422971527
1781552132294054144,0.782649040222168,-0.36095914244651794,-0.13720251619815826,0.02734793722629547,0.10224825888872147,-0.3149356544017792,-0.9435893297195435,-0.01859956979751587,-0.08070948719978333,0.03923141956329346,0.06867198832457576,-0.04060726787346641,0.16296131012839046,0.9834015753597198,0.3203888579422165,0.1079398074495769,2.984699514459047
1781552132304089088,0.7926840782165527,-0.40706485509872437,-0.09323930740356445,0.061604708433151245,0.10097040981054306,-0.3114098608493805,-0.9448962211608887,-0.07853998988866806,-0.1593542993068695,0.015910625457763672,0.06846141847814824,-0.04011007099442557,0.1610685246236719,0.9837485574444521,0.3166763185456422,0.10645475929109491,2.985618120607454
1781552132314123008,0.802717924118042,-0.5282130837440491,-0.05758517608046532,0.08128893375396729,0.10009276121854782,-0.3070252239704132,-0.9464232325553894,-0.11069762706756592,-0.1987425684928894,0.00886225700378418,0.06807222718550718,-0.039871980083463196,0.15874067996709518,0.984163550615808,0.31206571453656023,0.10536730742021229,2.9868869854710165
1781552132324157952,0.8127529621124268,-0.46352389454841614,-0.07440143823623657,0.09880800545215607,0.09912709146738052,-0.3023499548435211,-0.9480286240577698,-0.10089711099863052,-0.13647755980491638,-0.007522463798522949,0.0675695555231186,-0.03961515588214354,0.15625720144777766,0.9846058799992028,0.30715704071992744,0.10418270277917112,2.988414065513882
1781552132334192896,0.8227880001068115,-0.4332232177257538,-0.04538630321621895,0.09664338827133179,0.09824822843074799,-0.2982107996940613,-0.9494301676750183,-0.09029839932918549,-0.03478175401687622,-0.0033286213874816895,0.06704681834621892,-0.03938595433754399,0.1540573774751222,0.9849973075891526,0.3028176126335048,0.10311424807719076,2.989919817427646
1781552132344227072,0.8328220844268799,-0.3597857654094696,-0.006085769273340702,0.0844956487417221,0.09771793335676193,-0.294599711894989,-0.9506114721298218,-0.07138127088546753,-0.0395982563495636,0.008503377437591553,0.0665512708591562,-0.03930997848471499,0.15214788582012406,0.9853307536766418,0.2990366266544986,0.10243502269915353,2.9912691127883737
1781552132354262016,0.8428571224212646,-0.2681330740451813,-0.059941280633211136,0.06960272043943405,0.0972478985786438,-0.29157543182373047,-0.9515916109085083,-0.0319707989692688,-0.08156299591064453,0.0499802827835083,0.06612757298458215,-0.03923316931696736,0.15054882197168842,0.9856078848574703,0.29587341393702227,0.10184143664641006,2.992417271476175
1781552132364296960,0.8528919219970703,-0.15691493451595306,-0.04037929326295853,0.0468505322933197,0.09649369865655899,-0.2899431586265564,-0.9521669745445251,-0.04897782951593399,-0.0665021538734436,0.12318748235702515,0.06576239139474781,-0.03895877723651761,0.1496620628840381,0.9857782625764474,0.2941674584663257,0.10099635391536116,2.99339234333826
1781552132374330880,0.8629260063171387,-0.2125217318534851,-0.022137707099318504,0.0780169740319252,0.09608771651983261,-0.28807562589645386,-0.952774703502655,-0.08723761886358261,-0.10050469636917114,0.02450627088546753,0.06549920539192683,-0.038851867882257175,0.14867141414922938,0.9859499473275639,0.2922166508528267,0.1005105667757117,2.994119415727412
1781552132384366080,0.8729610443115234,-0.4646381437778473,-0.0889098197221756,0.08069797605276108,0.09535898268222809,-0.28507766127586365,-0.9537491202354431,-0.03026498854160309,-0.10141220688819885,0.008222997188568115,0.0651078636589019,-0.03863567107232128,0.14708066617220086,0.9862228834453659,0.28908745486082604,0.09965211456743557,2.9952321831279853
1781552132394401024,0.8829960823059082,-0.5389983654022217,-0.15190528333187103,0.02584218606352806,0.09401727467775345,-0.2801465392112732,-0.955342173576355,-0.0027239397168159485,-0.1388292908668518,-0.04215538501739502,0.06477637508571955,-0.038159622699197975,0.14447406231478846,0.9866484187298664,0.2839467440591107,0.09809627504136599,2.9964425133928385
1781552132404434944,0.8930299282073975,-0.5723320841789246,-0.23976749181747437,0.026902124285697937,0.09208320081233978,-0.2747684419155121,-0.9570909142494202,0.0015142187476158142,-0.11607018113136292,-0.07922500371932983,0.06475087086938396,-0.03735299076521214,0.14163088706192048,0.9870930251775744,0.27834886902137235,0.09591632375681133,2.9971391824426785
1781552132414469888,0.9030649662017822,-0.5582037568092346,-0.22894854843616486,0.10266772657632828,0.08955276012420654,-0.26956379413604736,-0.958809494972229,-0.00034987926483154297,-0.014432787895202637,0.017510056495666504,0.06447415779056768,-0.03627591608968315,0.138849943062623,0.9875463307739192,0.27294001977217497,0.09312977211794973,2.9984052511522483
1781552132424504576,0.9130995273590088,-0.6747514009475708,-0.1416899412870407,0.1276031732559204,0.0875014066696167,-0.26367324590682983,-0.9606351852416992,-0.0640944167971611,-0.022276461124420166,0.009371757507324219,0.06392854671916191,-0.03549818115962761,0.1357287652879364,0.9880438320211035,0.26682823409714695,0.09083636433915405,3.000168978191867
1781552132434539520,0.9231345653533936,-0.8165522217750549,-0.12914805114269257,0.19201359152793884,0.08572596311569214,-0.25677210092544556,-0.9626625180244446,-0.04409998655319214,-0.12939733266830444,0.04116898775100708,0.0631418718640783,-0.03492003292957356,0.13209589053315748,0.9886073303409858,0.2596808328710653,0.08881662021310095,3.002422176622563
1781552132444574464,0.9331693649291992,-0.9816980361938477,-0.19853591918945312,0.2326398342847824,0.08355438709259033,-0.24821774661540985,-0.9650940895080566,0.006304621696472168,-0.16244204342365265,0.12833261489868164,0.062023872885563304,-0.034229565116116134,0.12759815157578308,0.9892927570708124,0.2508399954978792,0.0863610697870927,3.005471015389984
1781552132454608384,0.9432034492492676,-1.3290647268295288,-0.2345823347568512,0.2598722577095032,0.08089715987443924,-0.23717567324638367,-0.9680926203727722,-0.020747020840644836,-0.16120079159736633,0.18485897779464722,0.06087502563558604,-0.033362220807678054,0.12182218005437814,0.990121537214938,0.23945753669485773,0.0833697599304774,3.008747046138432
1781552132464643584,0.9532384872436523,-1.4264456033706665,-0.16444212198257446,0.22895854711532593,0.0783153623342514,-0.22396646440029144,-0.9714452028274536,-0.025367371737957,-0.0018636137247085571,0.1250096559524536,0.05973688628736954,-0.032582367921889475,0.11495999209539987,0.9910369403032699,0.22588242642159365,0.08044340863783656,3.012054986877861
1781552132474678528,0.9632735252380371,-1.4154460430145264,-0.09227551519870758,0.3154985010623932,0.07652030140161514,-0.2101367861032486,-0.9746728539466858,-0.014172889292240143,0.1704334169626236,0.10797363519668579,0.05841480828768005,-0.03222186401321667,0.10782079033108206,0.9919295331164333,0.21171486593636585,0.07834799442734774,3.0156193285378374
1781552132484712448,0.9733073711395264,-1.437745451927185,-0.022436512634158134,0.3685108423233032,0.07524057477712631,-0.19661681354045868,-0.9775891900062561,-0.007308445870876312,0.10375182330608368,0.11890089511871338,0.056684893308275086,-0.032135579731242384,0.1008597779835949,0.992764522988947,0.1979061811617731,0.0768139989788138,3.01989085326611
1781552132494747392,0.9833424091339111,-1.4956367015838623,-0.013524245470762253,0.35033556818962097,0.07465912401676178,-0.1825421303510666,-0.9803593158721924,-0.02139069139957428,-0.04539366066455841,0.19016766548156738,0.05465024553301029,-0.032420143208162486,0.093644419796398,0.993575861622529,0.18357140918187043,0.0760081467388668,3.0246967361667463
1781552132504782336,0.9933774471282959,-1.8347055912017822,0.07418723404407501,0.307184636592865,0.07429073005914688,-0.1661585569381714,-0.9832966327667236,-0.13978144526481628,-0.09078419208526611,0.19766736030578613,0.05317653940629486,-0.032793159934110555,0.08530125537855326,0.9943945688279202,0.1669327839788598,0.07540945134485214,3.0284300534599913
1781552132514816512,1.0034115314483643,-1.3821970224380493,0.18940889835357666,0.43210819363594055,0.07500041276216507,-0.15021415054798126,-0.985804557800293,-0.07385600358247757,0.12142081558704376,0.06789684295654297,0.051002453572844886,-0.03372664326210783,0.0772025173835849,0.9951387225013721,0.150784872842592,0.07593412455335144,3.0334405912023885
1781552132524851456,1.013446569442749,-1.2784191370010376,0.27777430415153503,0.22276218235492706,0.07677481323480606,-0.1377253383398056,-0.9874904155731201,-0.06208060681819916,0.2109217643737793,0.10748559236526489,0.04930927132330757,-0.035043950418529896,0.07089926023906416,0.9956473815932109,0.13816450320023946,0.0775913165587133,3.0372524262815945
1781552132534886400,1.0234813690185547,-1.4744288921356201,0.22583122551441193,0.11711830645799637,0.07911190390586853,-0.1243407353758812,-0.9890807271003723,-0.05735287070274353,0.1098296269774437,-0.017450034618377686,0.0483195261782426,-0.036597258506699454,0.06418938109503139,0.996095141725508,0.12466338422092214,0.07981536410886096,3.039666629023959
1781552132544920320,1.033515453338623,-1.9829241037368774,0.12548556923866272,-0.00021631247363984585,0.080830417573452,-0.10731485486030579,-0.990933895111084,-0.006123386323451996,0.06959512829780579,-0.12800836563110352,0.04782365623231051,-0.037882783089721844,0.055659247080460765,0.9965840983616532,0.10752191112854913,0.08138974430640968,3.0413088480809125
1781552132554955520,1.0435504913330078,-2.273463249206543,-0.018053749576210976,-0.03613836318254471,0.0814332589507103,-0.085709348320961,-0.9929866790771484,0.0331449955701828,0.097519651055336,-0.26821327209472656,0.04763347722694307,-0.038693243025592135,0.04482741013018574,0.9971080031597385,0.08581463794852615,0.08182529968094429,3.0426069495213866
1781552132564989440,1.0535845756530762,-2.0763907432556152,-0.16419003903865814,-0.016622183844447136,0.08046512305736542,-0.06400546431541443,-0.9947003126144409,0.09792537987232208,0.10402926802635193,-0.3706408739089966,0.04741523986662456,-0.03871909352256273,0.03392178682933393,0.997547903655536,0.06404924708700199,0.08071807268152317,3.0440132977191716
1781552132575024384,1.0636193752288818,-1.781081199645996,-0.27889931201934814,-0.026356836780905724,0.0782482773065567,-0.044440507888793945,-0.9959428906440735,0.0917804092168808,0.07689595222473145,-0.2962934374809265,0.047247539423303515,-0.03806806822487057,0.02407021097611257,0.9978673328498064,0.04445515039267299,0.07840597178963435,3.0452223438750137
1781552132585059328,1.0736544132232666,-1.2478628158569336,-0.3577335774898529,-0.018616624176502228,0.0750269889831543,-0.029312454164028168,-0.9967505931854248,0.0408024787902832,0.06764253228902817,-0.2504112720489502,0.04716315353234568,-0.036809801714999243,0.01642393235057391,0.998073591809376,0.029316652910598692,0.07512990258645115,3.046052655944827
1781552132595093504,1.083688497543335,-0.6545481085777283,-0.3065718412399292,0.014391925185918808,0.07157638669013977,-0.01967759244143963,-0.9972410202026367,-0.04360702633857727,0.15162034332752228,-0.12568378448486328,0.04707382568328442,-0.03530935565019168,0.011521673670409432,0.9982007061517666,0.019678862789042666,0.07165154089487022,3.046639797328999
1781552132605128448,1.0937235355377197,-0.19134454429149628,-0.05967016518115997,0.07201927155256271,0.06965257972478867,-0.01570715568959713,-0.997447669506073,-0.13082507252693176,0.18170751631259918,-0.022358238697052002,0.04688139138312667,-0.03444150786559443,0.00948473332568045,0.9982614808279389,0.015707802186016015,0.06971763395545519,3.047187753461018
1781552132615163648,1.1037585735321045,-0.07396332919597626,0.14656369388103485,0.15663588047027588,0.07013501226902008,-0.014778047800064087,-0.9974280595779419,-0.12479199469089508,0.07801046967506409,-0.011589884757995605,0.046380570286330386,-0.034709115226608585,0.00901435775444584,0.9982799525484506,0.014778586096970825,0.07020031421760635,3.0482195040467017
1781552132625197312,1.1137924194335938,-0.259786993265152,0.15413279831409454,0.18965935707092285,0.07174820452928543,-0.013300016522407532,-0.9973341226577759,-0.005982823669910431,-0.09364883601665497,-0.008906722068786621,0.04552947168411296,-0.035557583748929034,0.008283044217303465,0.9982955668408786,0.013300408778111025,0.07181626540155533,3.049963592608705
1781552132635232512,1.1238274574279785,-0.48707714676856995,0.05264957994222641,0.1511085033416748,0.072727270424366,-0.00973478052765131,-0.997304379940033,0.0950736328959465,-0.17614778876304626,0.01828521490097046,0.04471986946331914,-0.03613374798292768,0.006494165903994698,0.9983247761255847,0.009734934219266297,0.07279498891935479,3.0517082004993243
1781552132645267456,1.1338624954223633,-0.7840794920921326,0.016207151114940643,0.15634827315807343,0.07299035042524338,-0.003507664892822504,-0.9973264932632446,0.09166724234819412,-0.12344545871019363,0.09249556064605713,0.04397731817356711,-0.03640697763575204,0.003360413477341066,0.9983633420899369,0.003507671974556598,0.07305576421081314,3.0534225705359233
1781552132655301632,1.1438965797424316,-0.832469642162323,0.03978358209133148,0.2123718559741974,0.07324879616498947,0.004741080105304718,-0.9973024129867554,0.03711801767349243,-0.07184923440217972,0.13515037298202515,0.04297183031293774,-0.036717226182023104,-0.0007940032513334515,0.9984010857393314,-0.004741098004256713,0.07331528287994812,3.0557383359613937
1781552132665336320,1.1539313793182373,-0.7824802398681641,0.11903353035449982,0.16012676060199738,0.0740254744887352,0.012577655725181103,-0.997177004814148,0.012613922357559204,-0.023136738687753677,0.15351861715316772,0.04193356843727565,-0.03727034733379974,-0.0047334571626292885,0.9984138132713939,-0.012577987001636617,0.07409912419656231,3.058107849490392
1781552132675370496,1.1639654636383057,-0.6253628134727478,0.12002183496952057,0.12996059656143188,0.07521549612283707,0.019680814817547798,-0.9969730377197266,0.032999828457832336,0.08162228763103485,0.21941572427749634,0.041215147324189766,-0.03801039870761718,-0.008287123361137995,0.9983926634447796,-0.019682085425962014,0.0753012102710854,3.0598179267139978
1781552132685405440,1.1740005016326904,-0.27466875314712524,0.19142916798591614,0.135256826877594,0.07675725966691971,0.0240853913128376,-0.9967588782310486,0.016504459083080292,0.0697103887796402,0.19201034307479858,0.040543378759080075,-0.03886717711969779,-0.010484014509707998,0.9983664846652752,-0.024087720077250827,0.07685517056132576,3.0613439579925257
1781552132695440640,1.1840355396270752,-0.27236562967300415,0.196071058511734,0.07556207478046417,0.07878363877534866,0.02639676257967949,-0.99654221534729,-0.04799140244722366,-0.01006985828280449,0.08536362648010254,0.04015136167582991,-0.0399249178577148,-0.011614760076412052,0.9983280914436393,-0.026399828610300293,0.07889291335425175,3.0622407560665876
1781552132705474304,1.1940693855285645,-0.41375499963760376,0.15933582186698914,0.1002277359366417,0.08056728541851044,0.029802823439240456,-0.9963034987449646,-0.047257356345653534,-0.0791192352771759,0.009792327880859375,0.039826267343635376,-0.04088343910277249,-0.013296028034383964,0.9982813446597102,-0.029807236657459078,0.08069062486771965,3.0630486038663385
1781552132715509504,1.2041044235229492,-0.7628511786460876,0.11335394531488419,0.12120012938976288,0.08200741559267044,0.0353735126554966,-0.9960037469863892,-0.02953244000673294,-0.1544225811958313,0.01092684268951416,0.03927937253741998,-0.04170910970449467,-0.016076938034083305,0.998227939387465,-0.03538089398442427,0.08215114129458558,3.0643892905177395
1781552132725544448,1.214139461517334,-1.0525705814361572,0.00978187657892704,0.13595324754714966,0.08263307064771652,0.044596463441848755,-0.9955816864967346,-0.019537977874279022,-0.22092702984809875,0.05710512399673462,0.0384737474396839,-0.04219135394815029,-0.020713218295929547,0.9981535725952406,-0.04461126049517522,0.08280997841904171,3.0663894478509697
1781552132735578624,1.2241735458374023,-1.124077320098877,-0.03585405275225639,0.11495502293109894,0.08254727721214294,0.05524075776338577,-0.9950549602508545,-0.02839384227991104,-0.21162809431552887,0.06545907258987427,0.03768090906368073,-0.04233867966162035,-0.026075817596684033,0.9980518856607791,-0.05526889128048059,0.08276798286981979,3.068408712441434
1781552132745613568,1.234208583831787,-1.1525996923446655,-0.06785978376865387,0.15774136781692505,0.08207995444536209,0.06675656139850616,-0.9943874478340149,-0.03515918552875519,-0.09155210107564926,0.10191619396209717,0.03681902795101834,-0.04230215487703669,-0.03188718167925746,0.9979168194848277,-0.06680624073535808,0.08235652633095109,3.070587868932175
1781552132755648256,1.2442433834075928,-0.8481844663619995,-0.055383410304784775,0.1353505700826645,0.08156632632017136,0.07660455256700516,-0.9937196373939514,-0.050972454249858856,0.013101868331432343,0.040319979190826416,0.03598187879648746,-0.04220334274935197,-0.0368655588049169,0.9977800510724093,-0.07667967049501417,0.0818982296833755,3.072643278522485
1781552132765682432,1.2542774677276611,-0.6116076111793518,-0.09199655055999756,0.1166224256157875,0.08092675358057022,0.08379293978214264,-0.9931915998458862,-0.05898461490869522,0.13025733828544617,-0.0017271637916564941,0.035345288953703986,-0.04199290994437313,-0.040506576253602475,0.9976705994329669,-0.08389130991282323,0.08130189655358902,3.074180793022825
1781552132775717376,1.264312505722046,-0.3086725175380707,-0.07221671938896179,0.10519293695688248,0.08013574779033661,0.08831008523702621,-0.9928643107414246,-0.0859798714518547,0.2069474756717682,-0.11605286598205566,0.034837057183296286,-0.04165883154162245,-0.04280623059801011,0.9976064402761121,-0.08842527310266744,0.08053710224882717,3.0753447451711815
1781552132785752576,1.2743475437164307,-0.07582834362983704,0.05175076425075531,0.09949883073568344,0.08011645078659058,0.0900750383734703,-0.9927073121070862,-0.11637134104967117,0.1792273223400116,-0.19619643688201904,0.03440129207767334,-0.04166263592677825,-0.04370995224191505,0.9975822124428174,-0.09019728977785625,0.08053046937865657,3.076286879810683
1781552132795786496,1.28438138961792,-0.03601008281111717,0.11979666352272034,0.10670268535614014,0.08115195482969284,0.090384341776371,-0.9925950765609741,-0.08734703063964844,0.0346003919839859,-0.1993604302406311,0.03406155555905676,-0.04217265991404261,-0.0438624736943092,0.9975657780619246,-0.09050785603798446,0.08157592594046333,3.077026036976233
1781552132805821440,1.2944164276123047,-0.16075707972049713,0.03621361777186394,0.12592990696430206,0.08206076920032501,0.09117316454648972,-0.9924482107162476,-0.012877419590950012,-0.1515522003173828,-0.15754568576812744,0.033589588554484885,-0.04262181903027199,-0.04426360166401377,0.9975449349952308,-0.09129995037293513,0.0824975208040135,3.0780443410425744
1781552132815855616,1.304450511932373,-0.37216681241989136,-0.07342765480279922,0.1163952574133873,0.0819467231631279,0.0936807319521904,-0.9922240972518921,0.0309988334774971,-0.2156747579574585,-0.1443878412246704,0.03306242688310355,-0.04258541613014703,-0.04554596811235093,0.9975062982714763,-0.09381830344481353,0.08240191181843691,3.079197172373604
1781552132825890560,1.3144855499267578,-0.5710505843162537,-0.12406007945537567,0.1196776032447815,0.08105897158384323,0.09843596816062927,-0.9918366074562073,0.04769469052553177,-0.09553679823875427,-0.07089227437973022,0.03244338645786991,-0.04219432850191044,-0.047972367479201555,0.997429591057974,-0.09859563694117846,0.08154490790990998,3.080587068323369
1781552132835925504,1.3245205879211426,-0.3916821777820587,-0.12588141858577728,0.08784697204828262,0.07984019815921783,0.10320615023374557,-0.9914504885673523,0.038033947348594666,0.08255434781312943,-0.049610912799835205,0.031907294050374686,-0.04163882288599015,-0.050408072141177526,0.9973500732756517,-0.10339025391548197,0.08035527971670631,3.081790241695689
1781552132845959424,1.3345544338226318,-0.3018795847892761,-0.04507937282323837,0.13240191340446472,0.0790586844086647,0.10659821331501007,-0.991154134273529,0.006817780435085297,0.21855132281780243,-0.005305826663970947,0.0314203145714847,-0.041279517790744125,-0.052143334938773454,0.9972912611435534,-0.10680113718311185,0.07959574806208723,3.0828589246637965
1781552132855994368,1.3445894718170166,-0.11073759198188782,0.04439804330468178,0.16253505647182465,0.07921888679265976,0.1084970235824585,-0.9909353256225586,0.0055284276604652405,0.152199387550354,0.009322166442871094,0.03075825797097844,-0.04135682923054262,-0.05312215916993308,0.997257023976133,-0.10871102030428015,0.07977389565062054,3.08426920662604
1781552132866029568,1.3546245098114014,-0.15795914828777313,0.03217027336359024,0.18360678851604462,0.07983901351690292,0.10956894606351852,-0.9907675981521606,0.056284643709659576,-0.007853858172893524,0.06341469287872314,0.030040218435679136,-0.04164719708938856,-0.053681713723132844,0.997236814190967,-0.10978937272850964,0.08040924376061925,3.0857848059090185
1781552132876063488,1.3646585941314697,-0.26616740226745605,-0.056562792509794235,0.18630670011043549,0.07988857477903366,0.11151877045631409,-0.9905459880828857,0.09024692326784134,-0.08745566010475159,0.12277865409851074,0.029175414627353874,-0.041656436290292,-0.05469680745419331,0.9972070142642132,-0.11175122029260952,0.08047686370524894,3.0875988862660795
1781552132886098432,1.3746933937072754,-0.4243812561035156,-0.03850189968943596,0.16143250465393066,0.07955142110586166,0.11475182324647903,-0.9902037978172302,0.06414058804512024,-0.04993249475955963,0.0973968505859375,0.028373552013420948,-0.04149332228827726,-0.056359542524317796,0.9971443164704531,-0.11500516662484797,0.08016625497303088,3.089315702274953
1781552132896133376,1.3847284317016602,-0.6149210929870605,-0.01410601194947958,0.14512677490711212,0.07945522665977478,0.11984296888113022,-0.9896082878112793,0.05476108193397522,-0.01678510755300522,0.0736842155456543,0.027642619029441477,-0.04148096394567918,-0.058950776984251295,0.9970155561878217,-0.12013170929124137,0.08011771001736283,3.0909768317087893
1781552132906167552,1.3947625160217285,-0.6991118788719177,-0.09461017698049545,0.15754935145378113,0.07918573915958405,0.12637768685817719,-0.9888166189193726,0.061500295996665955,-0.07291088998317719,0.05641305446624756,0.02685595768929404,-0.04139616861118489,-0.06227398281722312,0.9968386024279597,-0.12671653158128782,0.07991079100544746,3.0927959143515364
1781552132916202496,1.4047975540161133,-0.8380138278007507,-0.11530692875385284,0.11716464161872864,0.07823517173528671,0.13383252918720245,-0.9879109859466553,0.025600887835025787,-0.10758741199970245,0.026241064071655273,0.02611274618093643,-0.04098088021421835,-0.06606871920054735,0.9966311513805302,-0.13423530458067182,0.07902760140734608,3.094517494331196
1781552132926237696,1.414832592010498,-0.8753777146339417,-0.1190275102853775,0.09972706437110901,0.07726524770259857,0.1424209177494049,-0.986785888671875,-0.029520496726036072,-0.09951320290565491,-0.0016632080078125,0.025514339466020854,-0.0405771525780709,-0.07043122212776354,0.996364352869756,-0.1429068360575703,0.07814047966931467,3.095984723438342
1781552132936271360,1.4248664379119873,-0.7710329294204712,-0.16281333565711975,0.18040326237678528,0.07597925513982773,0.15039017796516418,-0.9857027530670166,-0.056539565324783325,-0.09384112060070038,0.002197563648223877,0.024729504148839763,-0.03998733210839819,-0.07449583915055237,0.9961122953557308,-0.15096292602832667,0.07692918712977546,3.09777144061009
1781552132946306560,1.434901475906372,-0.9936220645904541,-0.14335760474205017,0.12437541782855988,0.07475423812866211,0.15890948474407196,-0.9844590425491333,-0.07112264633178711,-0.16881243884563446,0.0810624361038208,0.02385584275848808,-0.039422731325474365,-0.07884373324025554,0.995821456608157,-0.1595860067268181,0.0757888858477551,3.0997531011910513
1781552132956340480,1.4449355602264404,-1.2798514366149902,-0.10875169187784195,0.11537286639213562,0.07353890687227249,0.16984565556049347,-0.9827229976654053,-0.11051095277070999,-0.22821052372455597,0.13752341270446777,0.02318197961114736,-0.03890513059247865,-0.08440909273462914,0.9954014508188506,-0.17067305416474993,0.07469256293428571,3.101415391653749
1781552132966375680,1.4549705982208252,-1.1883465051651,-0.10119044780731201,0.06869804114103317,0.07279780507087708,0.18259075284004211,-0.9804902076721191,-0.09628108888864517,-0.10481671988964081,0.030874788761138916,0.022507146867766004,-0.03864342714039214,-0.09089316921692996,0.9948561043993409,-0.18362086279307094,0.07411035691007654,3.1031797183562237
1781552132976410368,1.4650053977966309,-0.840747058391571,-0.015048904344439507,0.04166189208626747,0.0722123384475708,0.19248273968696594,-0.9786397814750671,-0.0775071382522583,0.19841691851615906,-0.02956944704055786,0.022245604670308783,-0.03845551721777049,-0.09592338625145591,0.994396787025064,-0.19369157956029248,0.07365499421061789,3.104016973594897
1781552132986444544,1.4750394821166992,-0.36107686161994934,0.016987591981887817,0.03553422540426254,0.07232555001974106,0.19823546707630157,-0.9774823188781738,-0.06333812326192856,0.3769751191139221,-0.019191265106201172,0.02203017231879089,-0.038567602155968946,-0.09885025089772843,0.9941106248559044,-0.19955733606549622,0.07385708236522068,3.1046757833137644
1781552132996479488,1.485074520111084,-0.22920644283294678,-0.03621091693639755,0.006126005202531815,0.0723310261964798,0.20093844830989838,-0.9769298434257507,-0.0475965291261673,0.13138268887996674,0.05412411689758301,0.022052335010732803,-0.038608402306658976,-0.10022203735886091,0.9939712353987347,-0.2023158216378584,0.07390426913535764,3.10473274425882
1781552133006514432,1.4951095581054688,-0.13175258040428162,-0.028517309576272964,-0.03620920330286026,0.07186801731586456,0.20277200639247894,-0.9765851497650146,-0.04521091282367706,-0.11604104936122894,0.02432990074157715,0.022177595204004336,-0.03841236208814131,-0.10115300385996495,0.9938816043508467,-0.20418790992336272,0.07345872909324769,3.1045010218680735
1781552133016548352,1.505143404006958,-0.06889985501766205,0.0360635481774807,-0.07025051862001419,0.07180801033973694,0.2037159502506256,-0.9763930439949036,-0.04386916756629944,-0.07496228814125061,-0.037217795848846436,0.022607701303340822,-0.03843873596304031,-0.10161658685950294,0.9938236127470654,-0.20515197450077316,0.07341199904496147,3.103664282227075
1781552133026583552,1.5151784420013428,0.002591103781014681,0.1049099937081337,-0.10235971957445145,0.07229728251695633,0.2042296677827835,-0.976249635219574,-0.01005668193101883,-0.05037529766559601,0.013694703578948975,0.023181494164627562,-0.038750943068254905,-0.1018506221517842,0.9937742530728885,-0.2056767179948876,0.07392120193660082,3.102579954218751
1781552133036618496,1.5252134799957275,0.08048829436302185,0.11817359924316406,-0.12510044872760773,0.07309234142303467,0.20382726192474365,-0.9762745499610901,0.013791203498840332,-0.04908788204193115,-0.019224107265472412,0.023841683757586253,-0.039213274230541884,-0.10161227439810631,0.9937649587194297,-0.20526566638645694,0.07472921505619828,3.1013195748466087
1781552133046652672,1.535247564315796,0.27802667021751404,0.15949399769306183,-0.1471884399652481,0.07421164959669113,0.20214258134365082,-0.9765403270721436,0.03937477618455887,0.016576901078224182,-0.09380269050598145,0.024751564269596592,-0.03984517302104384,-0.10070847766674082,0.993809650861893,-0.20354516703094083,0.07584866667516375,3.0995412266482045
1781552133056687360,1.5452823638916016,0.21343010663986206,0.21037901937961578,-0.1619306355714798,0.07568313926458359,0.19976940751075745,-0.9769156575202942,0.045792073011398315,-0.01898328959941864,-0.027783989906311035,0.025821742528178433,-0.040658340426868236,-0.0994437518331236,0.9938767866944777,-0.20112258299123129,0.07731708222301541,3.0974479525596395
1781552133066722304,1.5553174018859863,0.14380548894405365,0.20709028840065002,-0.1828005015850067,0.07735724002122879,0.19816161692142487,-0.9771119952201843,0.08102899044752121,-0.053508296608924866,0.052765071392059326,0.026920848037125977,-0.041585809016291324,-0.09856280149116686,0.9938970896022772,-0.19948198357806618,0.07900448200798005,3.0953438902099526
1781552133076756480,1.5653514862060547,0.1353941559791565,0.1916159838438034,-0.23336701095104218,0.07895958423614502,0.19697533547878265,-0.9772236943244934,0.08475196361541748,-0.016173943877220154,0.1659291386604309,0.02823864251113393,-0.042503711691157846,-0.09788565015628244,0.9938884990490086,-0.19827185524858087,0.0806247583926991,3.09280676782275
1781552133086791424,1.5753865242004395,0.051396459341049194,0.15341255068778992,-0.20864301919937134,0.0801481083035469,0.19607758522033691,-0.9773074388504028,0.0022493451833724976,-0.020967736840248108,0.2476932406425476,0.02962592136548395,-0.04322328197927811,-0.09735512341924295,0.9938692519571161,-0.19735624793225465,0.08182599445465571,3.0900981869771806
1781552133096825344,1.5854203701019287,-0.05345352366566658,0.13138526678085327,-0.1321333348751068,0.08116788417100906,0.19647598266601562,-0.9771432876586914,-0.06098049879074097,-0.07260514795780182,0.0955514907836914,0.030681547042577535,-0.043847345937475954,-0.09749756633304461,0.9937959886177563,-0.19776255416604624,0.08287624235702835,3.0880924841301844
1781552133106860288,1.5954554080963135,-0.13003884255886078,0.08426596224308014,-0.265449583530426,0.08190730959177017,0.19678671658039093,-0.9770190119743347,0.02386660873889923,-0.10491356253623962,0.05021548271179199,0.03181586254164116,-0.044336752616941116,-0.09759475961276687,0.9937290212152072,-0.19807946556023026,0.08363832263478171,3.085896755177405
1781552133116895488,1.6054904460906982,-0.24525730311870575,-0.2440871298313141,-0.15810847282409668,0.080629363656044,0.19949187338352203,-0.9765766263008118,0.046262726187705994,0.013139352202415466,0.21221810579299927,0.03294132048062632,-0.04385528100530429,-0.09893635251393573,0.9935810280616943,-0.20083933757136865,0.08237643341177629,3.0836134460723588
1781552133126929408,1.6155245304107666,0.09672878682613373,-0.11114427447319031,-0.18494674563407898,0.07818977534770966,0.20034439861774445,-0.9766004681587219,-0.09747687727212906,0.038715049624443054,-0.23177355527877808,0.0338505092531666,-0.04273382837448961,-0.09936589858519064,0.993556496556417,-0.2017094268747631,0.07989279755146224,3.081568182220032
1781552133136964608,1.6255595684051514,0.06816665828227997,-0.00514141283929348,-0.14247438311576843,0.07757145166397095,0.1993584781885147,-0.9768515229225159,-0.07969242334365845,0.08225773274898529,-0.14471524953842163,0.03480082076984957,-0.042497783341771546,-0.09883412451238974,0.9935867898491583,-0.2007032122970847,0.07924338133986258,3.079553526254196
1781552133146999296,1.635594367980957,0.04951067641377449,-0.1932014673948288,-0.05583057552576065,0.07656575739383698,0.19898265600204468,-0.9770074486732483,-0.04729940742254257,0.13303332030773163,0.17987310886383057,0.03541182625672804,-0.042044562239769205,-0.09863326647135337,0.9936044499349488,-0.2003197066320297,0.07820778777530506,3.0782068377251894
1781552133157033472,1.6456284523010254,0.36678263545036316,-0.11348186433315277,-0.023428156971931458,0.07440083473920822,0.1971912384033203,-0.9775378108024597,-0.23419088125228882,0.04850578308105469,-0.2605450749397278,0.03565610070471884,-0.04094250453439337,-0.09774874481981266,0.9937290820650729,-0.19849207751468345,0.07596399015411567,3.0774287871391675
1781552133167068416,1.6556634902954102,0.28540414571762085,0.34723567962646484,-0.03632371872663498,0.0757598876953125,0.19357135891914368,-0.9781567454338074,-0.19580078125,0.11074991524219513,-0.3281939625740051,0.03620431026023885,-0.041606013322417826,-0.09586751442456701,0.9938649888300015,-0.19480106492263516,0.0772973679928964,3.076325694675595
1781552133177103616,1.665698528289795,0.25725799798965454,0.019146747887134552,0.03347240760922432,0.07791828364133835,0.19120630621910095,-0.9784522652626038,0.09887003898620605,0.24939121305942535,-0.028429388999938965,0.03648709353450889,-0.0426706312391378,-0.0946206753164974,0.9939289486153363,-0.19239098601371782,0.07946652075807432,3.075877668283639
1781552133187137280,1.6757323741912842,0.3221786916255951,-0.19272689521312714,-0.07436377555131912,0.0766715556383133,0.18816989660263062,-0.9791392087936401,0.06123737990856171,0.051560938358306885,-0.0007802248001098633,0.03677203745965959,-0.04200711068863628,-0.09309031310405333,0.9940911846080963,-0.18929841931956326,0.07814560170911666,3.0750674750170743
1781552133197172480,1.685767412185669,0.303475022315979,0.023148946464061737,0.11713508516550064,0.07565309852361679,0.18515822291374207,-0.9797923564910889,-0.2637024223804474,-0.17397353053092957,-0.026402711868286133,0.0369362257533667,-0.04144732537397495,-0.09157481363016556,0.9942494168517558,-0.1862328695869109,0.07706050410580105,3.0745270314481026
1781552133207207424,1.6958024501800537,0.313107430934906,0.39581453800201416,0.3159240484237671,0.07812345027923584,0.1819545179605484,-0.9801985621452332,-0.29064786434173584,-0.1583033949136734,-0.23046422004699707,0.036073284698718656,-0.04254540257592459,-0.08994772655257254,0.9943832170907715,-0.18297379224379853,0.07953352973022106,3.0763708252864137
1781552133217241600,1.705836534500122,0.3894277513027191,0.43561068177223206,0.2529482841491699,0.08307763934135437,0.17838384211063385,-0.98044753074646,-0.024605967104434967,-0.00634099543094635,-0.02373337745666504,0.03501259056401153,-0.044871195247332456,-0.08810688581586379,0.9944836903658016,-0.17934369713433407,0.08453248593973132,3.0788131775903955
1781552133227276544,1.7158715724945068,0.5536612272262573,0.32661986351013184,0.2081153243780136,0.08711698651313782,0.17357639968395233,-0.9809596538543701,0.136485293507576,0.17824548482894897,-0.004513919353485107,0.034314636811230315,-0.046748039781739435,-0.08564338608617185,0.9946367165673444,-0.17446003734178167,0.08857555016851022,3.0803717993066866
1781552133237311488,1.7259063720703125,0.7316791415214539,0.38711944222450256,0.22287988662719727,0.09089788049459457,0.16696348786354065,-0.9817641377449036,0.09043756872415543,0.19357116520404816,-0.11688393354415894,0.033691348177370926,-0.04846990012059847,-0.08227158172345972,0.9948603097262174,-0.16774912587229907,0.09232306749924715,3.081654966150465
1781552133247345408,1.7359404563903809,0.7221381068229675,0.5151848196983337,0.2145034521818161,0.09573101252317429,0.1595366895198822,-0.9825393557548523,0.024584539234638214,-0.0630095899105072,-0.2355392575263977,0.033132639819945346,-0.05071541075459384,-0.07847459412448216,0.9950737880219017,-0.16022131827860334,0.09712567393282434,3.0828274971542586
1781552133257380608,1.7459754943847656,0.5241547226905823,0.4447823464870453,0.21375083923339844,0.10101812332868576,0.15303336083889008,-0.9830443263053894,0.05102045089006424,-0.31961357593536377,-0.1773408055305481,0.032588649748939484,-0.053212262802646654,-0.07514184659130455,0.9952185984772038,-0.15363706223548962,0.10240106633193008,3.0840142700320907
1781552133267415552,1.7560105323791504,0.4357345402240753,0.2544179856777191,0.0965680256485939,0.10461387038230896,0.14838702976703644,-0.9833804965019226,0.03854408860206604,-0.33237749338150024,-0.07469445466995239,0.03221709842406039,-0.0549084658951971,-0.07276542341139387,0.995315133984033,-0.14893705320792006,0.10598327705842786,3.0847921698944663
1781552133277449472,1.7660443782806396,0.5595635771751404,0.28384777903556824,0.0009719899971969426,0.10718300193548203,0.14333438873291016,-0.9838531613349915,-0.07422401756048203,-0.09624576568603516,-0.11264342069625854,0.03246830809476544,-0.056126403145145595,-0.07016582571731388,0.9954257278181631,-0.14382978356254844,0.10851412432290934,3.0842056563926623
1781552133287484416,1.7760794162750244,0.7169539928436279,0.3105076253414154,-0.00744200125336647,0.11018063873052597,0.13724681735038757,-0.9843899607658386,-0.13993528485298157,0.12364794313907623,-0.05613738298416138,0.0329533380442997,-0.05755546499146561,-0.06702538984637918,0.9955445577077442,-0.1376813866340852,0.11146391797762527,3.083108505711556
1781552133297518592,1.7861135005950928,1.0166562795639038,0.24031654000282288,-0.10151124000549316,0.11284764856100082,0.12855803966522217,-0.9852604866027832,-0.13350805640220642,0.07227814197540283,0.0367283821105957,0.033772525831797406,-0.05878732746299316,-0.06256039238760149,0.9957358004411534,-0.12891481443899447,0.11403891087608704,3.081153145897615
1781552133307553536,1.7961485385894775,0.9633592367172241,0.1636476069688797,-0.14468614757061005,0.11462226510047913,0.11869264394044876,-0.9862929582595825,-0.15179267525672913,-0.08672548085451126,0.20624840259552002,0.034982021870692985,-0.05956347926161301,-0.05749534723345855,0.9959531536813134,-0.11897311763113694,0.11569622969139208,3.0782713596425944
1781552133317588480,1.8061835765838623,0.8099579811096191,0.1384996473789215,-0.1335839480161667,0.11595232039690018,0.1100754514336586,-0.9871364831924438,-0.17320328950881958,-0.190428227186203,0.23272669315338135,0.03619160353294694,-0.060129954322985346,-0.05306733661884112,0.9961217128281232,-0.11029896240323905,0.11692750270469185,3.0754219608004774
1781552133327622400,1.8162174224853516,0.6122592687606812,0.0942327156662941,-0.14345230162143707,0.1169641986489296,0.10314632207155228,-0.9877652525901794,-0.10353647172451019,-0.17889095842838287,0.12443828582763672,0.037298730162880246,-0.06055618707837169,-0.0495006813667333,0.9962386406088436,-0.10333010045413385,0.11786411596342014,3.072850428894631
1781552133337657344,1.8262524604797363,0.3536660373210907,0.020139042288064957,-0.17024263739585876,0.11738615483045578,0.09844236820936203,-0.9881951212882996,3.022700548171997e-05,-0.10805540531873703,0.14584892988204956,0.038412443559483755,-0.06072529213459358,-0.04706251120335626,0.9963042045194498,-0.09860206588836534,0.11823439335590462,3.0703615531197554
1781552133347692544,1.836287498474121,0.05095970258116722,-0.07173135876655579,-0.1746957004070282,0.1169467493891716,0.09672065824270248,-0.9884172081947327,0.0381893590092659,-0.10277839750051498,0.12304550409317017,0.03948581641635203,-0.060518105265952124,-0.046140614957952915,0.9963179563362231,-0.09687210016699384,0.1177696796469628,3.0680859839575096
1781552133357726464,1.8463215827941895,0.22174929082393646,-0.1475430279970169,-0.20741477608680725,0.11561103165149689,0.09594196081161499,-0.9886502027511597,0.020604178309440613,-0.1594337821006775,0.010378718376159668,0.04057573748863474,-0.059879788413939865,-0.04570894265434952,0.9963326983979448,-0.09608976326760198,0.1164095640543995,3.0657909750718364
1781552133367761408,1.8563563823699951,0.39911898970603943,-0.13084088265895844,-0.23244182765483856,0.11392100900411606,0.09291549772024155,-0.9891353249549866,-0.006590694189071655,-0.062275856733322144,-0.05932652950286865,0.04191221325824023,-0.05902316797717251,-0.04414291272914239,0.9963990990561244,-0.09304971665036903,0.11466709105991396,3.062859433408322
1781552133377796352,1.8663914203643799,0.3935335576534271,-0.01224473025649786,-0.20136034488677979,0.11298052221536636,0.08922585099935532,-0.9895828366279602,0.007823310792446136,0.08304587751626968,0.036335766315460205,0.04322879675670205,-0.05852339021832065,-0.04223273968520546,0.9964550914108299,-0.08934466619374394,0.11367763266824794,3.0599689554542935
1781552133387830528,1.8764255046844482,0.37488582730293274,-0.009782636538147926,-0.22064082324504852,0.11280890554189682,0.08545169979333878,-0.9899354577064514,0.05049065500497818,0.0026678070425987244,0.13338333368301392,0.04453764056606937,-0.05840304802504451,-0.04026621687744185,0.9964859047537042,-0.08555604087312725,0.11346635388960348,3.0571247404727426
1781552133397865472,1.886460542678833,0.0807599425315857,-0.1536436676979065,-0.2245119959115982,0.11179646104574203,0.08332694321870804,-0.9902313947677612,0.055210985243320465,-0.08859122544527054,0.07139289379119873,0.04582785452773674,-0.05789479776561078,-0.03914722863644416,0.9965016696198395,-0.08342367711928562,0.11242328368879947,3.0543769872366604
1781552133407900672,1.8964955806732178,-0.25065314769744873,-0.19313502311706543,-0.22011804580688477,0.10978918522596359,0.08440247178077698,-0.9903648495674133,0.0006081536412239075,-0.04921570420265198,-0.02524489164352417,0.046975446792171915,-0.05695827314248771,-0.039665147498580106,0.9964817428917452,-0.08450300462883176,0.1104065061963943,3.0520521654042656
1781552133417934336,1.906529426574707,-0.6166865229606628,-0.19907040894031525,-0.17255932092666626,0.10764797031879425,0.088978111743927,-0.9901993870735168,-0.06747157871723175,0.003795325756072998,0.048838913440704346,0.047932235833370425,-0.05603698873963043,-0.04195434404538889,0.9963945283974672,-0.08909594246486655,0.10828815723603019,3.0502873214728368
1781552133427969280,1.9165642261505127,-0.7013553380966187,-0.16907456517219543,-0.10855796188116074,0.10562548786401749,0.09597243368625641,-0.9897638559341431,-0.11603198945522308,-0.020395658910274506,0.12254589796066284,0.04845951326186164,-0.05522323736287754,-0.04548023019377887,0.9962598280761595,-0.09612037807237903,0.10631548256141911,3.049504679805695
1781552133438004224,1.9265992641448975,-0.5748509168624878,-0.09531804919242859,-0.0865970030426979,0.10424091666936874,0.10232993960380554,-0.9892736673355103,-0.10984089970588684,-0.007527090609073639,0.07894963026046753,0.04886153163603833,-0.05471150715050772,-0.048680699401694026,0.9961171772470395,-0.10250937454126392,0.104983757789936,3.048957807899961
1781552133448038144,1.9366331100463867,-0.17586518824100494,-0.10466733574867249,-0.04576941952109337,0.10315481573343277,0.10642778128385544,-0.9889551401138306,-0.06525198370218277,0.08366621285676956,-0.026166319847106934,0.0491373034773122,-0.054286899342687524,-0.05074817285233487,0.9960236349661401,-0.10662972958710737,0.10393103749887489,3.0485569480360537
1781552133458073088,1.9466681480407715,0.10976442694664001,-0.0713365450501442,-0.06356199085712433,0.1022174209356308,0.10652473568916321,-0.9890419840812683,-0.0508410781621933,0.10850211977958679,-0.1677115559577942,0.049483806303902235,-0.05383631886903153,-0.05080010635667976,0.996028244260567,-0.10672723443352501,0.10298430460624955,3.0478177097085903
1781552133468108288,1.9567031860351562,0.25943461060523987,-0.08453277498483658,-0.08945830166339874,0.10138463973999023,0.10473720729351044,-0.9893186092376709,-0.038518428802490234,0.07313449680805206,-0.2046968936920166,0.05002155139711983,-0.053397885442022966,-0.04989359798456807,0.9960708385979637,-0.10492965009531327,0.10212276378687928,3.046606644651649
1781552133478141952,1.9667370319366455,0.19486014544963837,-0.08527179807424545,-0.12352253496646881,0.10041514784097672,0.10246603935956955,-0.9896552562713623,-0.005902208387851715,0.01743752509355545,-0.1416161060333252,0.050728683376488955,-0.05288527511264547,-0.048739350802143554,0.9961195506775943,-0.10264619711961527,0.10111871329331984,3.0450266677468223
1781552133488177152,1.9767720699310303,0.17146721482276917,-0.10806047171354294,-0.11907026171684265,0.0993189662694931,0.10086370259523392,-0.9899304509162903,0.008667483925819397,-0.05131841450929642,-0.002775847911834717,0.05145966323211095,-0.052327012529415476,-0.04792357104796307,0.9961511451341888,-0.10103551154885827,0.09999461958826614,3.043427442341544
1781552133498211072,1.9868061542510986,0.0906519889831543,-0.11470799148082733,-0.1080186739563942,0.09805256128311157,0.09951723366975784,-0.9901928901672363,-0.02966267615556717,-0.06869448721408844,-0.046412885189056396,0.0521426338247901,-0.051687069571812516,-0.04724391654245557,0.9961814968799804,-0.09968223175442974,0.09870191937902087,3.0419305718580065
1781552133508246272,1.9968411922454834,-0.018680628389120102,-0.12453411519527435,-0.07128196209669113,0.0967760756611824,0.09936442971229553,-0.9903338551521301,-0.0792742446064949,-0.0027610361576080322,-0.028114020824432373,0.052645897598839815,-0.051066068123648584,-0.047173508161346196,0.9961904306969175,-0.09952867256270374,0.09741137222382679,3.040851891854516
1781552133518281216,2.006876230239868,0.0793314278125763,-0.1105450689792633,-0.05787135288119316,0.09550987929105759,0.09915420413017273,-0.9904778003692627,-0.13402307033538818,0.009274743497371674,-0.00991886854171753,0.05302318674173115,-0.050442679093563834,-0.04708107187196754,0.9962065312566769,-0.0993174021942886,0.09613086320090074,3.0400241508580055
1781552133528315136,2.0169100761413574,0.08490009605884552,-0.051507312804460526,-0.046638939529657364,0.09461059421300888,0.09825032949447632,-0.9906541705131531,-0.15772095322608948,0.013947539031505585,0.0048296451568603516,0.05336017319125067,-0.04998197499050977,-0.0466337926035149,0.996232850701861,-0.09840908705942304,0.09521437332129637,3.0392633328965526
1781552133538350080,2.026945114135742,0.0824611634016037,-0.00025238189846277237,-0.026559768244624138,0.09435585886240005,0.09753348678350449,-0.9907492995262146,-0.09618691354990005,-0.027495644986629486,0.0664328932762146,0.05361705807635267,-0.04984595962205236,-0.04626798245114008,0.9962429064250556,-0.09768878755750525,0.09495049021851962,3.0387028534525253
1781552133548385024,2.036980152130127,0.21971863508224487,-0.013052865862846375,-0.046825628727674484,0.09428823739290237,0.09614906460046768,-0.9908910393714905,-0.010868445038795471,-0.16710244119167328,0.10443174839019775,0.053893290860309535,-0.04978560861285332,-0.04556165894336139,0.9962635698369785,-0.09629782619657373,0.09486935972249995,3.03808199197967
1781552133558419200,2.0470142364501953,0.3105073869228363,-0.024795008823275566,-0.10320261120796204,0.09399223327636719,0.09345068782567978,-0.9911773204803467,0.03586006164550781,-0.18733802437782288,0.06803584098815918,0.05438853517965686,-0.0495826785520131,-0.04419175123783158,0.9963084727985546,-0.09358724618616045,0.09454615736710953,3.0369514899418926
1781552133568454144,2.057049036026001,0.3859190344810486,-0.025053201243281364,-0.1424059420824051,0.09361859411001205,0.09013991802930832,-0.9915192127227783,0.059716977179050446,-0.05113845318555832,0.0004150867462158203,0.05514673759775089,-0.04933322006502008,-0.042504426628292354,0.9963525270738226,-0.09026243409026269,0.09414025440410403,3.0352629241267004
1781552133578489088,2.0670840740203857,0.4254198372364044,0.012501097284257412,-0.18644744157791138,0.09337596595287323,0.08619219064712524,-0.9918930530548096,0.07741565257310867,0.004078805446624756,-0.09712672233581543,0.05612263640437272,-0.04913737533887172,-0.04048445304617637,0.9963918223362699,-0.08629927401630798,0.0938625270938515,3.0331154306499064
1781552133588523264,2.077118158340454,0.32883337140083313,0.009873622097074986,-0.2400435507297516,0.09332425892353058,0.0825437679886818,-0.9922081828117371,0.12725679576396942,0.005499444901943207,-0.12838202714920044,0.05735055219460704,-0.04905226301073622,-0.03859762451671254,0.9964009750562848,-0.08263779368693014,0.09378122637682025,3.030484086765869
1781552133598558208,2.087153196334839,0.16835184395313263,-0.025124575942754745,-0.2908305823802948,0.09304904192686081,0.0802939385175705,-0.992418646812439,0.1929311752319336,0.036969855427742004,-0.043180108070373535,0.05877840299854624,-0.0489008075943568,-0.037408428560682265,0.9963706043957166,-0.0803804685747739,0.09348656145536292,3.027506218249516
1781552133608593152,2.0971882343292236,0.029514063149690628,-0.11652479320764542,-0.31744009256362915,0.09206424653530121,0.07960104942321777,-0.9925662875175476,0.1981731802225113,0.024082422256469727,0.05659216642379761,0.06035074501894577,-0.04844448841785502,-0.03701330650762687,0.9963136439035553,-0.07968535013415205,0.0924891223359214,3.024282001223308
1781552133618627072,2.107222080230713,-0.12537245452404022,-0.18574035167694092,-0.3109515607357025,0.09028632938861847,0.08041778951883316,-0.9926637411117554,0.12527456879615784,-0.06775300204753876,0.14328330755233765,0.06187948023783698,-0.047636461947987034,-0.0374016397237588,0.9962444201096852,-0.08050471923825772,0.09070401862175177,3.021182080410302
1781552133628662016,2.1172571182250977,-0.003792493138462305,-0.1470487415790558,-0.32475632429122925,0.0882570892572403,0.0814243033528328,-0.9927642345428467,0.013244375586509705,-0.1707797646522522,0.09597468376159668,0.06344024319971915,-0.046711379478358635,-0.03789385166652359,0.9961713715517985,-0.08151454514887048,0.08866725532499507,3.01801449185021
1781552133638697216,2.1272921562194824,0.09145998954772949,-0.059454455971717834,-0.3297542929649353,0.0870162844657898,0.08118348568677902,-0.9928934574127197,-0.052622973918914795,-0.14923769235610962,-0.08237814903259277,0.06510750438229619,-0.046145086926240385,-0.037734655388981644,0.9960962999141691,-0.08127292643216759,0.08741574794466048,3.014609518165526
1781552133648731136,2.137326240539551,0.22563031315803528,-0.03723010793328285,-0.33124831318855286,0.08624762296676636,0.08008309453725815,-0.9930498600006104,-0.06531257182359695,-0.049657076597213745,-0.10227173566818237,0.06682844312312747,-0.04578727062706987,-0.03712937135968517,0.9960216023906966,-0.08016894343941842,0.08663385854091053,3.0110794490483572
1781552133658766080,2.1473610401153564,0.5267220139503479,0.03818022832274437,-0.34370124340057373,0.0859261006116867,0.07653449475765228,-0.9933575391769409,-0.0641670674085617,-0.06206916272640228,-0.16890442371368408,0.06860734432855621,-0.04556699898636293,-0.03528293094782809,0.9959777766911817,-0.0766094066159521,0.08628589886834404,3.007349932067367
1781552133668801024,2.157396078109741,0.6004340052604675,0.05906527116894722,-0.3926331102848053,0.08624472469091415,0.0711340457201004,-0.9937312602996826,0.014570094645023346,-0.0588507205247879,-0.20000958442687988,0.0706342466105686,-0.045602034523690944,-0.03247814687979469,0.9959299052183285,-0.07119417353960357,0.08657185161461062,3.003068875914787
1781552133678835200,2.1674301624298096,0.8156903982162476,-0.041815273463726044,-0.47421586513519287,0.08602944761514664,0.06452767550945282,-0.9942007660865784,0.19688376784324646,0.05879385769367218,-0.27548307180404663,0.07293299097388681,-0.04532210917397682,-0.02907810010087142,0.995882104725221,-0.06457253740809026,0.08631625942860223,2.9981740717805163
1781552133688870144,2.1774652004241943,0.9278467893600464,-0.15068809688091278,-0.6675019860267639,0.084825299680233,0.056141339242458344,-0.9948129653930664,0.3400404155254364,0.14243653416633606,-0.0014486312866210938,0.07599681797777293,-0.044483450895982185,-0.024794037101758176,0.9958067038360717,-0.05617087158250923,0.0850618371133779,2.991645346361479
1781552133698905344,2.187500238418579,1.2352138757705688,-0.42733272910118103,-0.7149147391319275,0.0814952626824379,0.04600910842418671,-0.9956111907958984,0.3340473175048828,0.1030082255601883,0.1964779496192932,0.07970837516123562,-0.04250002459864441,-0.01970132970900265,0.9957168687587459,-0.046025356253971195,0.08167242169080279,2.9837117071184553
1781552133708939008,2.1975340843200684,1.0550649166107178,-0.47264134883880615,-0.7271791100502014,0.07653238624334335,0.0347130112349987,-0.9964626431465149,0.18518635630607605,-0.011382322758436203,0.09207421541213989,0.08353881124698895,-0.03961847445193522,-0.014108666722682864,0.9956167329223733,-0.03471998512719431,0.07665358634304652,2.9755031309944813
1781552133718974208,2.207569122314453,0.6932995319366455,-0.40716567635536194,-0.6905345916748047,0.07185263186693192,0.026513978838920593,-0.9970628023147583,0.043244414031505585,-0.1578463762998581,0.1430283784866333,0.08723167858823154,-0.03697360164845689,-0.010077566114896658,0.9954507139720709,-0.026517086937276307,0.07193993587391134,2.9677328454299565
1781552133729009152,2.217604160308838,0.2515990436077118,-0.3389133810997009,-0.6584088802337646,0.06795535981655121,0.022033413872122765,-0.9974450469017029,0.07883419096469879,-0.21429415047168732,0.06510251760482788,0.09063654547084507,-0.0348590783569774,-0.007894760521457477,0.9952424034305049,-0.022035196907576608,0.0680243088410215,2.9607038301164543
1781552133739043328,2.2276382446289062,-0.41112592816352844,-0.35238924622535706,-0.6423074007034302,0.06442402303218842,0.023279840126633644,-0.9976510405540466,0.22913981974124908,-0.1310374140739441,0.21588224172592163,0.0938225984313514,-0.03318197578098543,-0.008569558679192525,0.9949988710400484,-0.023281944068366024,0.06448616943159795,2.9543112366358306
1781552133749078016,2.237673044204712,-0.8183120489120483,-0.45160359144210815,-0.6512630581855774,0.060232870280742645,0.029935264959931374,-0.9977353811264038,0.35111355781555176,-0.12788143754005432,0.4476102590560913,0.096779784498493,-0.031442092700074684,-0.011987766922633713,0.9947368366887275,-0.029939737342325957,0.06029640428185126,2.948522425131973
1781552133759112192,2.2477071285247803,-1.9952348470687866,-1.1285213232040405,-0.9415825009346008,0.052428532391786575,0.043150756508111954,-0.9976919889450073,0.20109625160694122,-0.14430126547813416,0.9561575651168823,0.10053005437770612,-0.028267853545058938,-0.018839982459472503,0.9943538793557065,-0.04316415926264276,0.05250152563031121,2.9412091400274667
1781552133769147136,2.257742166519165,-2.1245110034942627,-1.4002506732940674,-0.18102844059467316,0.038498956710100174,0.06645256280899048,-0.9970465898513794,-0.38554486632347107,-0.11790519952774048,0.5062934160232544,0.10303679893045928,-0.022589616435313774,-0.031087263157617197,0.9939350362473259,-0.0665015695036154,0.038593825552665745,2.9362834822167216
1781552133779182080,2.26777720451355,-1.4528980255126953,0.0901278480887413,0.35235902667045593,0.03114045038819313,0.08314182609319687,-0.9960510730743408,-0.6896792650222778,-0.22364476323127747,-1.1288726329803467,0.10170534947426892,-0.01974098975598826,-0.03980910346414217,0.9938216843408846,-0.08323791542918738,0.031253729062689,2.9389290732276154
1781552133789216000,2.277811050415039,-2.436231851577759,1.1180219650268555,-0.4371928572654724,0.03921545669436455,0.10311374068260193,-0.9938962459564209,0.13270531594753265,0.20851650834083557,0.9267117977142334,0.1016985049892938,-0.024794896606594802,-0.04936700541957419,0.9932801717724298,-0.10329734810227434,0.039435833325413186,2.9395695618988977
1781552133799251200,2.287846088409424,-2.259640693664551,-1.3908613920211792,-0.5591379404067993,0.037233639508485794,0.1276388317346573,-0.9911215901374817,0.9191262125968933,0.6379861831665039,0.2424948811531067,0.10407496825080563,-0.025228124212332233,-0.06166646453467875,0.9923351786792524,-0.12798797742647913,0.037549519063914724,2.9350055012096252
1781552133809286144,2.2978811264038086,-1.7027297019958496,-2.1221766471862793,-0.5857085585594177,0.017999012023210526,0.14613603055477142,-0.9891007542610168,0.5506502985954285,0.14968611299991608,-0.8613325953483582,0.10595532132086348,-0.01675741750386256,-0.07189445799851694,0.9916269062032326,-0.14666123662612834,0.01819534053023558,2.9300371450415446
1781552133819320320,2.307915210723877,-1.607221245765686,-1.4783223867416382,-0.25296416878700256,-0.0015809559263288975,0.16278836131095886,-0.9866597652435303,-0.5977537631988525,-0.34336087107658386,0.4341390132904053,0.10732257674365694,-0.008005574189066842,-0.08127753828204405,0.9908642003393162,-0.16351605860746907,-0.001602330084139624,2.9256783927345476
1781552133829355264,2.3179502487182617,-1.2446335554122925,-0.05807959660887718,-0.09959402680397034,-0.008687841705977917,0.17736168205738068,-0.9841073751449585,-0.9051762819290161,-0.2979061007499695,-0.1123281717300415,0.10770470927690097,-0.005292139969731941,-0.08898481712949746,0.9901784977759153,-0.17830497958349095,-0.008827914206608178,2.9241094240710224
1781552133839389952,2.3279850482940674,-0.6245790719985962,0.12781862914562225,-0.19398976862430573,-0.00799781084060669,0.18609590828418732,-0.9824990034103394,-0.2503487467765808,-0.1343686282634735,-0.49372774362564087,0.10839213998484082,-0.006182057546252093,-0.09333952262028089,0.9896972137598432,-0.18718713266383433,-0.008140093824243579,2.922657055780177
1781552133849424128,2.3380191326141357,-0.708351731300354,-0.4501047730445862,-0.5846672654151917,-0.009944857098162174,0.19250912964344025,-0.9812448024749756,0.4442557692527771,0.17837099730968475,-0.041628122329711914,0.11020645809926727,-0.005743105488551149,-0.09666759173443312,0.9891798990139206,-0.19371846767140913,-0.010134592747421987,2.918699165691596
1781552133859459072,2.3480541706085205,-0.21425864100456238,-1.3867470026016235,-0.8066494464874268,-0.02055974118411541,0.19731350243091583,-0.980124831199646,0.6786713004112244,0.35255223512649536,-0.2237478494644165,0.11328992246453637,-0.0010248515884269639,-0.09968217312942311,0.9885483340343232,-0.19861678978761663,-0.02097357939513054,2.9112938318465673
1781552133869494272,2.3580892086029053,0.169444277882576,-1.4737083911895752,-0.8869690895080566,-0.03688770532608032,0.1971653550863266,-0.9796760082244873,0.24974781274795532,0.05506241321563721,-0.4027397036552429,0.11682765293474509,0.0067746099521831925,-0.10057877034431856,0.9880229735806124,-0.1984656658858726,-0.03763518251747165,2.9024505626402535
1781552133879527936,2.3681230545043945,0.5324400663375854,-0.9841020107269287,-0.7880536913871765,-0.05081747844815254,0.19347791373729706,-0.9797876477241516,-0.20266151428222656,-0.24267226457595825,-0.09935963153839111,0.12045615782636111,0.013578484316997602,-0.0996081818766962,0.9876153530468861,-0.19470581321424485,-0.05181937322677591,2.893796297323127
1781552133889563136,2.3781580924987793,1.0718854665756226,-0.5956622362136841,-0.7905533313751221,-0.05969353765249252,0.18515068292617798,-0.980895459651947,-0.11137275397777557,-0.2576757073402405,-0.2641149163246155,0.12397416979703048,0.018169107873334547,-0.09603204542894483,0.9874604204813832,-0.18622519911492535,-0.06078120519289767,2.886124968182213
1781552133899598080,2.388193130493164,1.322832465171814,-0.7879102230072021,-0.8535512089729309,-0.0677454024553299,0.17254166305065155,-0.9826697707176208,0.3121759593486786,-0.06878191232681274,-0.23487472534179688,0.1276851671355589,0.022627714830344616,-0.09029444270393036,0.9874368140336943,-0.1734094554143091,-0.06883123791078488,2.8784150809729305
1781552133909632256,2.3982272148132324,1.3701469898223877,-1.1065739393234253,-0.9454840421676636,-0.0786847472190857,0.1585085093975067,-0.9842173457145691,0.5826367735862732,0.1788633167743683,0.025232970714569092,0.13161485620000177,0.028638176961416514,-0.08409034985340422,0.9873126188396384,-0.1591798796897671,-0.07977684020945826,2.8701767546529027
1781552133919667200,2.408262252807617,1.275819182395935,-1.3523927927017212,-0.9732219576835632,-0.09238100796937943,0.144526407122612,-0.9851791262626648,0.5728039741516113,0.237156942486763,0.013407886028289795,0.13569863418701392,0.03605131559163499,-0.07817129183085827,0.9870032320337008,-0.14503433752160083,-0.0934973721284942,2.8615377716928583
1781552133929702144,2.418297052383423,0.817965030670166,-1.4427289962768555,-0.935143232345581,-0.10756565630435944,0.13291093707084656,-0.9852737188339233,0.39992406964302063,0.12201763689517975,0.12280124425888062,0.1397380912557399,0.04409309888318769,-0.0736134265719235,0.9864634219273961,-0.1333053972103693,-0.10874271124950062,2.8528880265758914
1781552133939736064,2.428331136703491,0.18438008427619934,-1.3452988862991333,-0.7178120017051697,-0.12264791876077652,0.12703540921211243,-0.9842863082885742,0.2767311632633209,0.07738658785820007,0.24273967742919922,0.14329762667044688,0.05175184045283671,-0.07196252624861509,0.9857021773237175,-0.12737959400291424,-0.12396698267855977,2.844946692621404
1781552133949771264,2.438366174697876,-0.33596697449684143,-1.0714592933654785,-0.5110849142074585,-0.13536418974399567,0.1269875466823578,-0.9826244115829468,0.285129189491272,-0.10379418730735779,0.21851003170013428,0.14592987502463364,0.05789706635231299,-0.07304610517277858,0.9848942088833501,-0.1273313460805479,-0.13689618426460487,2.838655950203264
1781552133959806208,2.4484012126922607,-0.7152865529060364,-1.0865721702575684,-0.48142209649086,-0.14657670259475708,0.1314844936132431,-0.9804219007492065,0.4216316342353821,-0.3180689811706543,0.29095351696014404,0.14817143239491415,0.06299124266556996,-0.07629648227580856,0.9840001400498075,-0.13186632565901968,-0.14840453302159723,2.832860110142738
1781552133969840128,2.45843505859375,-1.0515987873077393,-1.2737189531326294,-0.535029411315918,-0.15872421860694885,0.13948041200637817,-0.9774210453033447,0.568834662437439,-0.2634580731391907,0.3120157718658447,0.15059342346768087,0.06827090598693172,-0.0814160632922742,0.982869371470846,-0.13993667708362925,-0.16098554354653527,2.826214493154491
1781552133979875072,2.4684700965881348,-1.1912142038345337,-1.4931384325027466,-0.6512492299079895,-0.17321500182151794,0.1495702564716339,-0.9734604954719543,0.5672580003738403,-0.09155634045600891,0.13297587633132935,0.1534208406409968,0.07451383093857296,-0.08784902221977557,0.981423565414303,-0.150133621330616,-0.17609432796686542,2.8181752567873453
1781552133989910016,2.4785051345825195,-1.2589898109436035,-1.5297297239303589,-0.7781014442443848,-0.18923664093017578,0.1601436734199524,-0.9687845706939697,0.3952608108520508,0.1313907504081726,-0.04970908164978027,0.15691155904086687,0.08140189205732884,-0.09477056806196628,0.9796790031381052,-0.16083620550711758,-0.19290510588723925,2.808363147781909
1781552133999944192,2.488539218902588,-1.0195399522781372,-1.4703031778335571,-0.7384957075119019,-0.20505963265895844,0.16998286545276642,-0.9638757109642029,0.19831524789333344,0.2808838486671448,-0.17586427927017212,0.16066481618129433,0.08819315302889535,-0.10141063790077924,0.977816223784304,-0.1708122765573483,-0.20961969553269844,2.7978713032123816
1781552134009979136,2.4985742568969727,-0.5806826949119568,-1.338985562324524,-0.7314077019691467,-0.21998029947280884,0.17595118284225464,-0.959505021572113,0.05233198404312134,0.10421544313430786,-0.29711729288101196,0.1640809802067566,0.09485004984480899,-0.10607058327541749,0.9761300461620636,-0.1768719480584414,-0.22536959414233843,2.7884524073926897
1781552134020014080,2.5086090564727783,-0.45939916372299194,-1.1288142204284668,-0.814845621585846,-0.2331078052520752,0.17912399768829346,-0.9558113813400269,0.004164934158325195,-0.05650436878204346,-0.13574135303497314,0.16778336386257,0.10078783308189655,-0.10925262434256047,0.9745534485721453,-0.18009597835002492,-0.23921489740870777,2.7789047588385922
1781552134030048256,2.5186431407928467,-0.2920546531677246,-1.015497088432312,-0.825978696346283,-0.24487046897411346,0.18065525591373444,-0.9525765776634216,0.12012986838817596,0.009042009711265564,-0.04099947214126587,0.17165957594028858,0.10614660432579497,-0.11155541947721563,0.9730473995016582,-0.18165263169474377,-0.2516133672846725,2.769320402123804
1781552134040083200,2.5286781787872314,-0.31652751564979553,-0.9206701517105103,-0.8917118906974792,-0.2555411159992218,0.18121017515659332,-0.9496639370918274,0.1857779324054718,0.007846221327781677,-0.008862674236297607,0.1758519912189353,0.11099585728542534,-0.11334877331142494,0.9715493620262755,-0.18221685623993591,-0.26285959452284574,2.75931355109826
1781552134050117376,2.5387122631073,-0.579772412776947,-0.8665956258773804,-0.9045422077178955,-0.26581668853759766,0.18298907577991486,-0.9464969635009766,0.15122318267822266,-0.03465837240219116,0.05010414123535156,0.18039897698033314,0.1154917622845625,-0.11581524352443028,0.9698993573956914,-0.18402600253467996,-0.2737898811889472,2.7483790714385625
1781552134060152064,2.5487470626831055,-0.9408882856369019,-0.6391688585281372,-0.8968791961669922,-0.2746889591217041,0.1876344531774521,-0.9430478811264038,0.11528041958808899,-0.017834648489952087,0.05512368679046631,0.18526476006973944,0.11896873984635846,-0.11967665250824458,0.9680914499715421,-0.188753273709334,-0.28343575269924515,2.7364139282157725
1781552134070187008,2.5587821006774902,-1.0855666399002075,-0.49857082962989807,-0.8107706904411316,-0.2815532982349396,0.19516760110855103,-0.9394878149032593,0.17596247792243958,0.005805909633636475,0.030353903770446777,0.19020657671607502,0.12112371553969316,-0.12484044557675664,0.9662119206902834,-0.1964283322100075,-0.29117060778114506,2.7239556684920134
1781552134080221184,2.5688161849975586,-0.8724860548973083,-0.6500948071479797,-0.7588236331939697,-0.28840047121047974,0.20204858481884003,-0.9359495639801025,0.26336079835891724,-0.07291345298290253,-0.013452291488647461,0.19469144776553843,0.12334860434827277,-0.12965474344151465,0.9644013494151944,-0.20344919427617,-0.2989048960197429,2.7124531261918565
1781552134090256128,2.5788512229919434,-0.7196009159088135,-0.7420217990875244,-0.7382515072822571,-0.2965750992298126,0.20727162063121796,-0.9322454929351807,0.22531655430793762,-0.06231310963630676,0.046137094497680664,0.1989540371953991,0.1264004114918414,-0.13379156057116706,0.9625695247026959,-0.20878517856509557,-0.3080055764969132,2.701426289894491
1781552134100291328,2.588886260986328,-0.7706358432769775,-0.7739847898483276,-0.6560977697372437,-0.3050851821899414,0.21206648647785187,-0.9284130930900574,0.1184396743774414,0.03201310336589813,0.05403870344161987,0.20286188344313194,0.12968821171487074,-0.1377476960217135,0.9607568401411622,-0.21368906475570051,-0.3174929304807874,2.6910721706713154
1781552134110324992,2.5989201068878174,-0.8234388828277588,-0.7219306826591492,-0.576580286026001,-0.31338077783584595,0.21743249893188477,-0.9244001507759094,0.012462198734283447,0.058721065521240234,0.06697827577590942,0.20649425199984195,0.1328278093518843,-0.14197431968887952,0.9589370036518887,-0.21918326334197047,-0.3268507044229753,2.681113029228219
1781552134120360192,2.608955144882202,-0.8437092900276184,-0.6125994324684143,-0.4891790747642517,-0.32073864340782166,0.22346916794776917,-0.9204282760620117,-0.023774296045303345,0.06980475783348083,0.10766887664794922,0.20983066846064408,0.13544506793458655,-0.14642569444891687,0.957175678364082,-0.22537220359397162,-0.335308237056695,2.671682840660921
1781552134130395136,2.618990182876587,-0.9228147268295288,-0.5240315794944763,-0.46126145124435425,-0.3271709978580475,0.2300010472536087,-0.9165471196174622,0.04383057355880737,0.1379036158323288,0.11817681789398193,0.21303290199350244,0.13753835055040797,-0.15102857267986608,0.9554530819424611,-0.2320787541333287,-0.34286207195424423,2.6624830225582174
1781552134140429056,2.629024028778076,-1.038374662399292,-0.410118043422699,-0.461953341960907,-0.33256182074546814,0.23731493949890137,-0.9127345085144043,0.08572039008140564,0.08752940595149994,0.0790400505065918,0.21643324142874665,0.1389622601332862,-0.15595590601863893,0.953689598825749,-0.23960089956362518,-0.3494079184654498,2.652778955579283
1781552134150464000,2.639059066772461,-1.2216613292694092,-0.3777746558189392,-0.42053931951522827,-0.3372012972831726,0.24614310264587402,-0.9086852073669434,0.0874302089214325,-0.019778981804847717,0.058373987674713135,0.21992271066927202,0.13979529088607387,-0.16160032281815842,0.9518279976659808,-0.24869890671806286,-0.3553357201405732,2.6425753711684683
1781552134160499200,2.6490941047668457,-1.0055588483810425,-0.5143740177154541,-0.3390982449054718,-0.3422423303127289,0.2551532983779907,-0.9043046832084656,0.089968740940094,-0.09910166263580322,0.060859858989715576,0.22306061332247243,0.14083716553590975,-0.1673694896490391,0.9499453948776911,-0.2580062506483735,-0.36179982778244363,2.6328771637852157
1781552134170533120,2.659128189086914,-0.836274266242981,-0.5267699956893921,-0.2774689793586731,-0.34778329730033875,0.2623715400695801,-0.9001155495643616,0.04478955268859863,-0.20260289311408997,0.10923725366592407,0.22569011797921887,0.14239160939975715,-0.1722407285732795,0.9482202851494953,-0.26547903096629677,-0.36870690272502515,2.6244726155616593
1781552134180568320,2.669163227081299,-0.8748093843460083,-0.5706735253334045,-0.21497948467731476,-0.35343340039253235,0.2690589427947998,-0.8959308862686157,-0.011007517576217651,-0.0962073802947998,0.14879953861236572,0.22801619201072656,0.14409586685437473,-0.17683594441468792,0.9465590369576619,-0.27241580724559245,-0.37574509370653714,2.6167196738609007
1781552134190603008,2.6791980266571045,-0.8399579524993896,-0.5240215063095093,-0.09390818327665329,-0.3588205575942993,0.276334285736084,-0.8915644288063049,-0.045705169439315796,0.029100865125656128,0.03241837024688721,0.22992855292869463,0.14566113304671474,-0.18166069174878735,0.9449418649506494,-0.2799777641590006,-0.3826267477965498,2.609648343274484
1781552134200637184,2.689232110977173,-0.9154345989227295,-0.4938867390155792,-0.06569172441959381,-0.36344826221466064,0.2837408185005188,-0.8873536586761475,-0.10852134227752686,-0.0265844464302063,-0.03957200050354004,0.23146939663344795,0.1468819023809298,-0.18641049571546164,0.9434505130223789,-0.287693028677825,-0.3887433589967436,2.6033974097546255
1781552134210672128,2.6992671489715576,-0.888495922088623,-0.4537149667739868,-0.046338003128767014,-0.36795759201049805,0.2916948199272156,-0.8829050660133362,-0.08290907740592957,0.041587650775909424,0.06678873300552368,0.23198077977088585,0.14817627633548186,-0.19128841853008,0.9421451899119543,-0.29599824760613064,-0.39486880097124444,2.5991153360201924
1781552134220707072,2.7093021869659424,-0.8665400147438049,-0.3552855849266052,0.010419820435345173,-0.3714867830276489,0.2993660271167755,-0.8788501024246216,-0.030673831701278687,0.1276511549949646,0.07227057218551636,0.233445228712767,0.14880079754914927,-0.19604402732129772,0.940706327279135,-0.3040281542319033,-0.3999178660083122,2.593025601984554
1781552134230740992,2.7193360328674316,-0.7749350070953369,-0.3968966603279114,0.024854952469468117,-0.3746740520000458,0.30664899945259094,-0.8749775886535645,-0.07379701733589172,0.024420946836471558,-0.05258893966674805,0.23358180185041472,0.1495655653389926,-0.20035305729186642,0.939642722038642,-0.31167040803257284,-0.4045862982522931,2.5898750055703004
1781552134240775936,2.7293710708618164,-0.7062025666236877,-0.4200986623764038,0.09762449562549591,-0.3781462013721466,0.31339332461357117,-0.8710855841636658,-0.1537446677684784,-0.010872572660446167,0.011039197444915771,0.2334681600271126,0.15059377433952117,-0.20439844961122197,0.938634899409838,-0.3187642821228239,-0.409560795640056,2.587277400536363
1781552134250811136,2.739406108856201,-0.5166395306587219,-0.27351146936416626,0.1932721883058548,-0.38073980808258057,0.3192339539527893,-0.8678288459777832,-0.24795281887054443,-0.1193285584449768,0.022675037384033203,0.2328738765600869,0.151384452369883,-0.20776988252092227,0.9379148717278183,-0.3249210384362816,-0.41343972512039784,2.58613768680567
1781552134260845312,2.7494401931762695,-0.2748570144176483,-0.25009962916374207,0.23041610419750214,-0.3821848928928375,0.323640912771225,-0.8655583262443542,-0.17752274870872498,-0.11773881316184998,-0.06669265031814575,0.23189942044327497,0.15183962879762672,-0.21015602372599912,0.9375509262459132,-0.329574972962984,-0.41580240626915654,2.586503182527056
1781552134270880256,2.7594752311706543,-0.1327611207962036,-0.24412228167057037,0.23315276205539703,-0.38370952010154724,0.32600122690200806,-0.8639966249465942,-0.012774854898452759,0.12916845083236694,-0.011857867240905762,0.23068357507955534,0.15262872450201342,-0.21143830769399208,0.9374344346346042,-0.33207061437230545,-0.41794500755501135,2.5879752973111967
1781552134280914944,2.76951003074646,-0.1574326455593109,0.003367120400071144,0.30038532614707947,-0.38397666811943054,0.3282927870750427,-0.8630096912384033,-0.04911354184150696,0.058990538120269775,0.06038212776184082,0.22939298101159286,0.15279870369926649,-0.21247990292682095,0.9374879335013787,-0.3344956237429388,-0.41862756872945206,2.5899503054768926
1781552134290949120,2.7795441150665283,-0.3447892367839813,0.06196598708629608,0.28710758686065674,-0.38246387243270874,0.33151930570602417,-0.8624478578567505,-0.12446358799934387,-0.28565138578414917,0.04414951801300049,0.22822527861766642,0.15192151825311573,-0.2137660356814045,0.9376231353073616,-0.3379134888593089,-0.417404636728229,2.591839445334039
1781552134300984064,2.789579153060913,-0.5442724823951721,-0.17698293924331665,0.30153581500053406,-0.3821333348751068,0.3368864059448242,-0.8605124354362488,-0.1443864405155182,-0.2618131637573242,0.01947849988937378,0.22718215944791664,0.15138951517411095,-0.21639083741633797,0.9373603587249597,-0.3436080202173901,-0.4179170187800816,2.5924793701850444
1781552134311019264,2.799614191055298,-0.4304170608520508,0.20525497198104858,0.24981270730495453,-0.38094496726989746,0.3412815034389496,-0.8593066334724426,-0.30399155616760254,-0.2515140473842621,0.04363280534744263,0.22604835068816917,0.15054994524022847,-0.21836072093794123,0.9373129049329197,-0.34827992523518503,-0.4172822108059115,2.5938389028857376
1781552134321052928,2.809648036956787,-0.18822571635246277,-0.03035222925245762,0.3327714800834656,-0.3791988790035248,0.34549134969711304,-0.8583961129188538,-0.14208713173866272,0.07969480752944946,0.038373589515686035,0.2253088094945826,0.14935523789238583,-0.22021567083191168,0.937248110407776,-0.3527623169026839,-0.41597441497905613,2.594564761178295
1781552134331088128,2.819683074951172,-0.1033204197883606,0.16339074075222015,0.18453437089920044,-0.3777310848236084,0.34734147787094116,-0.8582966327667236,-0.1673128604888916,0.05129435658454895,-0.05320239067077637,0.2239138169605637,0.14872191992423248,-0.220756621345255,0.9375557387443265,-0.3547345864410991,-0.41458553387369995,2.5973587983980635
1781552134341123072,2.8297181129455566,-0.09538179636001587,0.08149374276399612,0.31620317697525024,-0.37614551186561584,0.3494457006454468,-0.8581388592720032,-0.24696239829063416,-0.011143088340759277,0.17698651552200317,0.2233247132803871,0.14781165059653548,-0.22154524273185494,0.937654284091163,-0.356979445260239,-0.41310445246410094,2.598387243742629
1781552134351157248,2.839752197265625,-0.25594884157180786,0.3175198435783386,0.3177539110183716,-0.3727833032608032,0.35194724798202515,-0.8585835695266724,-0.17224538326263428,-0.08642905950546265,-0.09240520000457764,0.22191731758028452,0.14613675866728024,-0.22215368752901057,0.938106901141698,-0.3596506538180621,-0.40962384299229465,2.60152735483852
1781552134361192192,2.8497872352600098,-0.4081439673900604,0.0685393288731575,0.42382577061653137,-0.3698170781135559,0.3555569648742676,-0.858379065990448,-0.1484782099723816,-0.3022427558898926,0.1258808970451355,0.22075800704104226,0.1444898216425125,-0.22345728735486708,0.9383259494208246,-0.3635099124181177,-0.406799916890907,2.6036859734888376
1781552134371227136,2.8598220348358154,-0.5587236285209656,0.3574632704257965,0.49703019857406616,-0.3668455481529236,0.3618454933166504,-0.857025146484375,-0.29251721501350403,-0.37043625116348267,0.15330511331558228,0.2191094987960526,0.1426724412174329,-0.22612384354383105,0.9383514680070574,-0.37024678666510347,-0.4044471742743549,2.6060518743164667
1781552134381261056,2.869856119155884,-0.5529568195343018,0.31309953331947327,0.5133191347122192,-0.3617842197418213,0.36904117465019226,-0.8561078906059265,-0.2521989345550537,-0.24434638023376465,0.05242753028869629,0.21767805931389891,0.1396366695230905,-0.2290145072430251,0.9384402475447956,-0.377977172302063,-0.39982913805835957,2.6082670812762374
1781552134391296256,2.8798911571502686,-0.2165425717830658,0.1702643632888794,0.5583723783493042,-0.3578107953071594,0.37433701753616333,-0.8554784059524536,0.06426221132278442,0.19525834918022156,-0.04822337627410889,0.21549459936906126,0.1375584524501395,-0.23095124117921687,0.9387765318227769,-0.38368169012706116,-0.396146384344164,2.61238784049654
1781552134401331200,2.8899261951446533,-0.10221867263317108,0.25702348351478577,0.3229209780693054,-0.3541787266731262,0.3768855929374695,-0.8558707237243652,-0.09214085340499878,0.08472329378128052,0.042867183685302734,0.21390123500070074,0.13580923626775473,-0.23156097065226475,0.939245304575229,-0.3864316280821008,-0.3923654048843843,2.6160259830078156
1781552134411365120,2.8999600410461426,0.22339938580989838,0.327424019575119,0.43258169293403625,-0.35031288862228394,0.3779449164867401,-0.8569939136505127,-0.14759665727615356,0.2009430229663849,0.030165910720825195,0.21227935215774063,0.13410563622645288,-0.23134114700214714,0.9399119789039112,-0.38757556211788713,-0.3880432720176071,2.620259851205436
1781552134421400064,2.9099950790405273,0.5957857370376587,0.3839416205883026,0.3798159658908844,-0.34606367349624634,0.3755364418029785,-0.8597745299339294,-0.39864152669906616,-0.09257745742797852,-0.21189594268798828,0.21059172938081236,0.1325814512066686,-0.2292048934148018,0.941030434380626,-0.3849755178726878,-0.3826641081518365,2.6258013106925184
1781552134431435008,2.920030117034912,0.026365142315626144,0.39650094509124756,0.3517952561378479,-0.3410588800907135,0.37430670857429504,-0.8623070120811462,-0.488210529088974,-0.25750067830085754,-0.02935558557510376,0.20913753630708548,0.13048605903832125,-0.22763980970080983,0.9420271708618455,-0.38364901756286124,-0.37663756483185623,2.6306721664985426
1781552134441469184,2.9300642013549805,-0.07795673608779907,0.43598151206970215,0.49146685004234314,-0.3359116315841675,0.376054584980011,-0.8635660409927368,-0.33710774779319763,-0.1285722553730011,-0.035283446311950684,0.20754280436168135,0.1280454001383595,-0.22764301181346547,0.9427137040040313,-0.3855346230464805,-0.37097215378875975,2.634977378992627
1781552134451503872,2.940099000930786,-0.49839532375335693,0.3463769555091858,0.36765462160110474,-0.3305675685405731,0.3798256814479828,-0.8639777302742004,-0.23628118634223938,-0.1597329080104828,-0.02663201093673706,0.20628536327272615,0.1252189707783166,-0.22876044450693991,0.9430987282220616,-0.3896078543252354,-0.3654267574323043,2.6380307819488205
1781552134461539072,2.950134038925171,-0.00790121778845787,0.455824077129364,0.4422313868999481,-0.32589617371559143,0.38336995244026184,-0.8641870021820068,-0.15397748351097107,-0.35259297490119934,0.29579710960388184,0.20470541047685634,0.12284421665103802,-0.2298168797695804,0.9434984042828195,-0.3934422959989595,-0.36062188532895617,2.64165828802087
1781552134471572992,2.9601681232452393,-0.3655880093574524,0.3215199410915375,0.22158612310886383,-0.3208516836166382,0.38618025183677673,-0.8648231029510498,-0.12641394138336182,-0.12298139929771423,0.1914069652557373,0.20400346811533054,0.1201421098731496,-0.2305522094941768,0.9438188886345431,-0.3964869862933588,-0.35526156972612016,2.6437538870402233
1781552134481608192,2.970203161239624,0.1376570463180542,0.042324770241975784,0.3579237163066864,-0.31848615407943726,0.38805699348449707,-0.8648573756217957,0.06485456228256226,0.30348658561706543,-0.09636998176574707,0.20270442940021105,0.11905703950597347,-0.23107730528638706,0.9441078305423457,-0.39852245454910684,-0.3528422290367028,2.646633980491554
1781552134491643136,2.980238199234009,0.24490147829055786,0.32002922892570496,0.24646137654781342,-0.315848708152771,0.38671383261680603,-0.8664248585700989,-0.357979416847229,-0.16276058554649353,0.04621917009353638,0.20140021803652144,0.11815646147112942,-0.229840439202051,0.9448017868629687,-0.3970655272094804,-0.3495711026775834,2.650523489964672
1781552134501677056,2.990272045135498,0.12923826277256012,0.48425304889678955,0.48403850197792053,-0.3107448220252991,0.3863631784915924,-0.8684245347976685,-0.39865151047706604,-0.11196437478065491,-0.05444228649139404,0.2000652819663431,0.11589810339104042,-0.2288129663845738,0.9456141599799294,-0.3966853225761564,-0.34362964002288554,2.6548744866592813
1781552134511712000,3.000307083129883,0.25077399611473083,0.20145317912101746,0.5239995121955872,-0.305835485458374,0.3864361345767975,-0.8701332211494446,-0.1621515452861786,0.05495482683181763,-0.12963789701461792,0.19788501461827276,0.11390138796562002,-0.22794708706482372,0.9465242431863651,-0.39676440907379507,-0.33799377895364485,2.6608267096665723
1781552134521746176,3.010341167449951,-0.38022711873054504,0.24909234046936035,0.2983725070953369,-0.30241379141807556,0.38775187730789185,-0.8707435727119446,-0.33981338143348694,-0.22709208726882935,0.07972794771194458,0.19619522728082217,0.11242695415622282,-0.22800962910957795,0.9470370697755107,-0.3981914032717774,-0.33427210876962293,2.664982710221571
1781552134531781120,3.020376205444336,-0.3028721511363983,0.15267498791217804,0.39232349395751953,-0.2992153465747833,0.39220958948135376,-0.8698515892028809,-0.4341525733470917,-0.22923046350479126,-0.23158884048461914,0.19506760457614683,0.110629036839099,-0.22985955275885983,0.9470345367622189,-0.4030324160454904,-0.3313056495792948,2.6670385378625925
1781552134541816064,3.0304110050201416,-0.20250745117664337,0.08513562381267548,0.12787774205207825,-0.2972886562347412,0.39500167965888977,-0.869248628616333,-0.3916761875152588,0.03557083010673523,-0.08366274833679199,0.19394800975499152,0.10964506471474644,-0.23098411106205252,0.9471053065103272,-0.4060696693725287,-0.3295359801351777,2.669182131414123
1781552134551849984,3.04044508934021,0.23888354003429413,0.3511013984680176,0.08992423862218857,-0.29528796672821045,0.3953905701637268,-0.8697535991668701,-0.38816845417022705,0.2225140929222107,0.14657855033874512,0.19385081654339925,0.10860642339890583,-0.23092821600982041,0.9472585427404993,-0.40649302442894025,-0.32729707532864744,2.6698429772649543
1781552134561885184,3.0504801273345947,0.4721599221229553,0.5539583563804626,0.05092889443039894,-0.2907291054725647,0.39219075441360474,-0.8727330565452576,-0.2991146147251129,0.003530651330947876,-0.026177406311035156,0.19372952237754246,0.1066101819800906,-0.2286213835426288,0.9480693301695868,-0.40301195352094116,-0.3215629483237425,2.6722242494752586
1781552134571920128,3.0605151653289795,0.31949180364608765,0.2562190890312195,-0.02031465619802475,-0.28704434633255005,0.3886309266090393,-0.8755407333374023,-0.20082491636276245,-0.2079516053199768,-0.15010929107666016,0.19400499450223024,0.10500325227544377,-0.22628291563799852,0.9487531121026084,-0.3991452574102166,-0.3168057428911419,2.673587975223007
1781552134581954048,3.0705490112304688,0.0843978226184845,0.15508528053760529,-0.07248198240995407,-0.28561916947364807,0.3865981101989746,-0.8769056797027588,-0.22345981001853943,-0.1940321922302246,-0.09463667869567871,0.19425571515876322,0.1044118800840872,-0.22504514097036613,0.9490613928553557,-0.3969400261617456,-0.3148762315088603,2.673972010839209
1781552134591988992,3.0805840492248535,-0.02709888108074665,0.23021504282951355,-0.04590923339128494,-0.28425005078315735,0.3862961530685425,-0.8774834275245667,-0.40195292234420776,-0.30672159790992737,0.031154751777648926,0.1948390864296251,0.1036038103020458,-0.2247766278881481,0.9490939862213195,-0.39661263899017746,-0.3132708741407628,2.673190103795339
1781552134602024192,3.0906190872192383,-0.1531585454940796,0.30233266949653625,-0.04112646356225014,-0.2820254862308502,0.3869071900844574,-0.8779318928718567,-0.4766109585762024,-0.24756395816802979,-0.06487810611724854,0.1953407243366583,0.10229030104095889,-0.22487939357457282,0.9491090052869878,-0.3972751992416458,-0.31082596791616873,2.672577173467902
1781552134612058112,3.1006531715393066,-0.15642383694648743,0.2458030730485916,-0.13208405673503876,-0.2798301875591278,0.3881254494190216,-0.8780966401100159,-0.4709937870502472,-0.056780844926834106,-0.05362027883529663,0.19616752354083192,0.10085539144879313,-0.2253438850699613,0.9489819276879691,-0.39859671055920876,-0.3085033947596286,2.6711178018496198
1781552134622093312,3.1106882095336914,-0.003444151720032096,0.19675855338573456,-0.19194233417510986,-0.2786353528499603,0.38840582966804504,-0.8783525824546814,-0.3746544420719147,0.21956536173820496,0.0022539496421813965,0.19721806182539117,0.09996918478730842,-0.22545483578204556,0.9488314931518331,-0.39890097602208147,-0.30718364710919144,2.6691554112846734
1781552134632128000,3.120723009109497,0.3451782763004303,0.2653581202030182,-0.25559404492378235,-0.27743369340896606,0.38621190190315247,-0.8796993494033813,-0.36071938276290894,0.07762476801872253,-0.020965933799743652,0.19851269662186669,0.09926769033049053,-0.22426825825592814,0.9489164614081976,-0.3965212920013644,-0.30550038903297144,2.667305127613291
1781552134642162176,3.1307570934295654,0.44028186798095703,0.16239073872566223,-0.26383092999458313,-0.2765659689903259,0.38185182213783264,-0.8818733096122742,-0.3538051247596741,-0.23945680260658264,0.03139418363571167,0.19977608638459127,0.09896424397435304,-0.22196719184963987,0.9492240677579763,-0.39179912161866165,-0.3038975247391182,2.665965901491905
1781552134652197120,3.14079213142395,0.23057180643081665,0.04488459974527359,-0.24068483710289001,-0.2764943540096283,0.3779425323009491,-0.8835781216621399,-0.2956949770450592,-0.16180181503295898,-0.016034245491027832,0.20097067715821912,0.0990424058267285,-0.22000348596249916,0.9494208051975568,-0.3875729908439689,-0.30327268249263534,2.664437285044635
1781552134662232064,3.150827169418335,-0.02690979652106762,-0.16988521814346313,-0.15331345796585083,-0.27798667550086975,0.376603364944458,-0.8836816549301147,-0.20586952567100525,0.11070132255554199,-0.045273423194885254,0.20178343715300187,0.09974809356410813,-0.21956656976630437,0.9492756441435312,-0.3861269651341619,-0.30477671765241654,2.66266522919021
1781552134672265984,3.160861015319824,-0.182417094707489,-0.05079704895615578,-0.15071074664592743,-0.2795950174331665,0.37695151567459106,-0.883025586605072,-0.322501540184021,-0.14706259965896606,0.03625434637069702,0.20240639146241815,0.1003862823746039,-0.22002226931264549,0.9489702285586878,-0.3865028121293443,-0.3066456919153449,2.660844465218693
1781552134682300928,3.170896053314209,-0.5362886190414429,-0.1403556913137436,-0.126534566283226,-0.28085923194885254,0.3797910213470459,-0.8814061880111694,-0.38370680809020996,-0.3955075740814209,0.21877801418304443,0.2031540251252875,0.10056638659779431,-0.22177309706730522,0.9483836190418935,-0.3895703710575409,-0.3084769777979065,2.658222799241052
1781552134692336128,3.1809310913085938,-0.6145772933959961,-0.16249747574329376,-0.2246488779783249,-0.2829018235206604,0.38450297713279724,-0.8787058591842651,-0.3690604567527771,-0.23522624373435974,0.08302104473114014,0.20407984633482318,0.10090585046228885,-0.2246443182681401,0.9474725946044488,-0.3946693395005371,-0.3114733403845373,2.6545245819561165
1781552134702370048,3.190965175628662,-0.5998086929321289,-0.19289293885231018,-0.29147401452064514,-0.2855062186717987,0.3891434669494629,-0.8758159279823303,-0.3305216133594513,0.09359884262084961,-0.15326732397079468,0.2054720363166977,0.10142116048135931,-0.2276088258994611,0.9464085744904077,-0.3997015824222279,-0.31512599749711173,2.6496724678871826
1781552134712405248,3.201000213623047,-0.28985753655433655,-0.11795957386493683,-0.2723383903503418,-0.2880440056324005,0.3921201229095459,-0.8736546635627747,-0.310268372297287,0.0715944766998291,-0.12201184034347534,0.20685295784980165,0.10207051471160514,-0.2296830036517452,0.9455364418642725,-0.4029351621096657,-0.31847705979766866,2.6452660622599082
1781552134722439936,3.2110350131988525,-0.3541848659515381,-0.09035191684961319,-0.2597362995147705,-0.2899831235408783,0.3940310478210449,-0.8721520900726318,-0.3208719491958618,-0.1332278549671173,0.1398981213569641,0.2081756057228657,0.1025357420811918,-0.23110682891066212,0.9448485941831484,-0.40501336525417336,-0.3209926597457558,2.6414144357718006
1781552134732474112,3.221069097518921,-0.2533615827560425,-0.15702322125434875,-0.26113712787628174,-0.29210802912712097,0.39612463116645813,-0.8704931139945984,-0.29468396306037903,-0.09102514386177063,-0.04170787334442139,0.2094240817996701,0.10309096725121496,-0.2326493253128669,0.9441335836742041,-0.4072923418638992,-0.32375875938783827,2.637605131256019
1781552134742509056,3.2311041355133057,-0.09946230053901672,-0.22273698449134827,-0.299184113740921,-0.294856458902359,0.39660367369651794,-0.8693475723266602,-0.271824449300766,-0.07729825377464294,-0.18508052825927734,0.2106050923050269,0.10414873152231806,-0.23340793098733553,0.9435672952848043,-0.40781413375059383,-0.32699417993179836,2.634191129992711
1781552134752544256,3.2411391735076904,-0.25048109889030457,-0.31399792432785034,-0.35814356803894043,-0.2985905110836029,0.3970966637134552,-0.8678467273712158,-0.2760554850101471,-0.1245594322681427,0.05963444709777832,0.2119521597354434,0.10566492423169513,-0.23433216454653122,0.9428677362531573,-0.4083512209170289,-0.33137243506259556,2.630132091603811
1781552134762577920,3.2511730194091797,-0.14286382496356964,-0.27378180623054504,-0.41078200936317444,-0.3027878701686859,0.3977956175804138,-0.8660705089569092,-0.3319624960422516,-0.09991353750228882,-0.00422978401184082,0.21353981561662597,0.10733386300257071,-0.23546589003471977,0.9420381974340624,-0.40911292748188977,-0.33632833753994323,2.625359437038482
1781552134772613120,3.2612080574035645,0.05268942564725876,-0.20307525992393494,-0.4383361339569092,-0.30653825402259827,0.39685317873954773,-0.8651831150054932,-0.29122480750083923,0.10686996579170227,-0.22640013694763184,0.21529635743952624,0.10890882531852746,-0.23568474186530905,0.9414027410613681,-0.4080859429108135,-0.34050439046249265,2.6208141257567137
1781552134782648064,3.271243095397949,0.24499282240867615,-0.14546097815036774,-0.48952317237854004,-0.30989596247673035,0.39398494362831116,-0.8652978539466858,-0.22263577580451965,0.08330997824668884,-0.1486029028892517,0.21720407578798417,0.11045709309402317,-0.23484101673102986,0.9409948964667647,-0.4049631974701006,-0.3439061611370122,2.6166151002716833
1781552134792682240,3.2812771797180176,0.17999331653118134,-0.1840796023607254,-0.5369242429733276,-0.3133208751678467,0.3903208076953888,-0.8657249808311462,-0.2563660144805908,-0.2548074722290039,0.10574573278427124,0.21931030001491217,0.11208212637646502,-0.23361316876639865,0.9406197538290555,-0.40097999796787953,-0.34725189887393276,2.6122106601247217
1781552134802717184,3.2913122177124023,0.14408618211746216,-0.11999862641096115,-0.5062068104743958,-0.3168463706970215,0.38734400272369385,-0.8657788634300232,-0.321779727935791,-0.33235132694244385,0.03206914663314819,0.22155341729522568,0.11365360633351647,-0.2327948290896605,0.9401082588270501,-0.3977489392210016,-0.3508277831596164,2.6072937006012995
1781552134812752128,3.301347017288208,0.04999137669801712,-0.049612339586019516,-0.43444234132766724,-0.3194084167480469,0.3846515715122223,-0.8660377860069275,-0.24357986450195312,-0.07044258713722229,-0.05586773157119751,0.22357253227459525,0.11476200575041529,-0.231971526243751,0.9396990425578672,-0.39483032925444494,-0.3533379115406017,2.603050320949268
1781552134822786048,3.3113811016082764,-0.3153328001499176,0.032112084329128265,-0.417422354221344,-0.3211789131164551,0.3845526874065399,-0.8654266595840454,-0.17317530512809753,0.018111467361450195,0.11913460493087769,0.22567645062357589,0.1151549941369997,-0.2324349293243575,0.9390332099188258,-0.3947232067638725,-0.3553664869265117,2.598094135861054
1781552134832821248,3.321416139602661,-0.08289849758148193,0.010196130722761154,-0.3859195411205292,-0.32246318459510803,0.3851911723613739,-0.8646647930145264,-0.13069233298301697,-0.1845839023590088,-0.06613659858703613,0.22771349234437926,0.11523056280168872,-0.233215596279611,0.9383383908230808,-0.3954149866284949,-0.3569584506884146,2.593197502544026
1781552134842856192,3.331451177597046,0.004081142600625753,-0.12707224488258362,-0.4271165132522583,-0.32465797662734985,0.38389697670936584,-0.8644190430641174,-0.005130201578140259,-0.013245731592178345,-0.04296004772186279,0.2295675405755784,0.11603657084239502,-0.23307934817916198,0.937821077974156,-0.3940129857506845,-0.3592785367339249,2.588997715543035
1781552134852890112,3.341485023498535,0.12163147330284119,-0.15331436693668365,-0.4267079830169678,-0.32766178250312805,0.382161408662796,-0.8640546202659607,0.03199225664138794,0.2855173945426941,0.02318859100341797,0.23139891350016528,0.1173125484015613,-0.23283136713833175,0.937273658782631,-0.3921341280772199,-0.3624601669079563,2.584745033403276
