time,seconds_elapsed,rotationRateX,rotationRateY,rotationRateZ,gravityX,gravityY,gravityZ,accelerationX,accelerationY,accelerationZ,quaternionW,quaternionX,quaternionY,quaternionZ,pitch,roll,yaw
1781551197608243200,0.08196139335632324,0.11435970664024353,0.01248631626367569,-0.1089414581656456,0.09189573675394058,-0.3356025516986847,-0.93751060962677,0.12674745917320251,0.006302624940872192,0.06684410572052002,-0.5598342365330212,-0.05857480380961681,-0.16677438533118752,-0.8095313609955496,0.3422448059652719,0.09770888004639514,1.9146251115289163
1781551197618277120,0.0919952392578125,0.0033309301361441612,-0.00824026670306921,0.0446249283850193,0.09199268370866776,-0.3361610174179077,-0.937300980091095,-0.027631111443042755,-0.11986315250396729,0.02317744493484497,-0.5598909411426577,-0.05871678863778489,-0.16703845698098957,-0.8094274196098001,0.3428377103690881,0.09783303097455864,1.9143588219748688
1781551197628311040,0.10202932357788086,0.06053829565644264,-0.009347342886030674,0.029524538666009903,0.09172995388507843,-0.3363947868347168,-0.937242865562439,-0.05227072536945343,-0.1270146369934082,0.006288886070251465,-0.5597164492612469,-0.058860720519922874,-0.16707478515868396,-0.8095301690435488,0.3430859412440774,0.09756140711568112,1.9148039258294072
1781551197638344960,0.11206316947937012,0.1451815515756607,0.007345883175730705,0.023823777213692665,0.09164447337388992,-0.33745142817497253,-0.9368712902069092,-0.003494448959827423,-0.051952868700027466,0.03817439079284668,-0.5595841143056357,-0.059191143058391425,-0.16751346360220898,-0.809506856533823,0.34420821450589667,0.09750948204323567,1.914950727804889
1781551197648379136,0.12209725379943848,0.17879356443881989,0.017162561416625977,0.048726193606853485,0.09163430333137512,-0.33903494477272034,-0.9363003969192505,0.013040989637374878,-0.03446969389915466,0.03729832172393799,-0.559367376284438,-0.059633792841892234,-0.16820704013612897,-0.8094802653763746,0.34589090894057745,0.09755780179066807,1.9151892047281398
1781551197658412288,0.13213038444519043,0.1814572662115097,0.040385857224464417,0.05483069270849228,0.09172160923480988,-0.34081706404685974,-0.9356446266174316,0.03643697500228882,-0.02659931778907776,0.04007577896118164,-0.5590767707182273,-0.06008140796711497,-0.16902045382411687,-0.8094784519940177,0.3477858640246645,0.0977181674551654,1.9155494998728797
1781551197668445952,0.1421642303466797,0.15258726477622986,0.05369154363870621,0.07430532574653625,0.09194137901067734,-0.3424619436264038,-0.935022234916687,0.022774189710617065,-0.04982626438140869,0.04192531108856201,-0.5587275293538985,-0.06041988966263198,-0.16981846756382146,-0.8095275083239307,0.3495360548769819,0.09801559560510817,1.916049849842052
1781551197678480128,0.15219831466674805,0.14726920425891876,0.07339387387037277,0.0774846076965332,0.09226614981889725,-0.34394943714141846,-0.9344440698623657,0.015827111899852753,-0.06930431723594666,0.0526081919670105,-0.5583139455291042,-0.06065304774342713,-0.17058477567467553,-0.8096342680826486,0.35111973927083817,0.09842005874354888,1.9167133137835006
1781551197688514304,0.1622323989868164,0.1382400095462799,0.09317983686923981,0.08198002725839615,0.09277398139238358,-0.34537017345428467,-0.9338696002960205,0.032515935599803925,-0.06589996814727783,0.07318234443664551,-0.5578753950701787,-0.06078431183103652,-0.17137813481317873,-0.8097592012311235,0.35263321600548575,0.09901871919178304,1.9174081228235014
1781551197698547968,0.17226624488830566,0.1262536644935608,0.10939662158489227,0.09393388777971268,0.09342996031045914,-0.34670302271842957,-0.9333101511001587,0.04147300124168396,-0.059318095445632935,0.08203756809234619,-0.5573900780561631,-0.06081690955384124,-0.17218076884295325,-0.8099206615602935,0.35405379966160183,0.0997736156555624,1.9181994042589479
1781551197708582144,0.18230032920837402,0.11933024227619171,0.11977722495794296,0.10209541022777557,0.09417983144521713,-0.34795302152633667,-0.9327694773674011,0.04253891110420227,-0.05364301800727844,0.08242768049240112,-0.5568504178530594,-0.060773087173269846,-0.1729794976632005,-0.8101248958701961,0.3553868129609947,0.10062693734029265,1.9191170209398956
1781551197718616064,0.19233417510986328,0.12642116844654083,0.12075859308242798,0.11095255613327026,0.09494607150554657,-0.3491954505443573,-0.9322273135185242,0.04073508083820343,-0.0545521080493927,0.05933302640914917,-0.5562711874035199,-0.06071090369919385,-0.17378296921912467,-0.8103556068996175,0.3567123778904916,0.10149864040947819,1.9201279559397855
1781551197728649984,0.20236825942993164,0.13335098326206207,0.11967655271291733,0.12290535122156143,0.09566481411457062,-0.3505389094352722,-0.9316494464874268,0.04032152146100998,-0.05236941576004028,0.03148770332336426,-0.5556449497533017,-0.0606883569302392,-0.1746201482854358,-0.810606807671466,0.3581464739408756,0.10232464787854043,1.9212426673808272
1781551197738683136,0.2124013900756836,0.12147381901741028,0.11272303760051727,0.12646760046482086,0.09631834179162979,-0.35186895728111267,-0.9310805797576904,0.048991113901138306,-0.04350152611732483,0.01773524284362793,-0.5550000140627019,-0.06068380625255068,-0.1754342994032609,-0.8108731433735352,0.3595669928775873,0.10308124799724434,1.9224189185164622
1781551197748717056,0.22243523597717285,0.07858334481716156,0.10818195343017578,0.1318242847919464,0.09690134972333908,-0.3529587984085083,-0.9306074380874634,0.056800439953804016,-0.0418013334274292,0.01898634433746338,-0.5543489806120099,-0.06063305845107124,-0.17612470084640117,-0.8111725737295724,0.36073155831563836,0.10375308589864204,1.9236719586776816
1781551197758751232,0.2324693202972412,0.022114470601081848,0.10675635933876038,0.12948575615882874,0.09743955731391907,-0.35355475544929504,-0.9303249716758728,0.05310365557670593,-0.052390068769454956,0.0354427695274353,-0.5537019874617458,-0.060450504473933235,-0.17658779383680395,-0.8115272637765367,0.36136857422131996,0.10435663854433483,1.9250219861012805
1781551197768784896,0.24250316619873047,-0.012793711386620998,0.11505996435880661,0.11954391002655029,0.09805057942867279,-0.3537130653858185,-0.9302005767822266,0.04452754557132721,-0.06021210551261902,0.05266761779785156,-0.5530913003309107,-0.06011180028309626,-0.1768792607466422,-0.8119053467670938,0.36153782600427303,0.10502018286015267,1.9263521445230924
1781551197778819072,0.25253725051879883,-0.024461286142468452,0.12800665199756622,0.11368149518966675,0.09878963232040405,-0.35365065932273865,-0.9301461577415466,0.03631168603897095,-0.06422653794288635,0.06317222118377686,-0.5525174987691995,-0.059660458709490535,-0.1771089054758158,-0.8122792428322921,0.3614711221400919,0.10581205100491582,1.9276048064530809
1781551197788853248,0.2625713348388672,-0.015008395537734032,0.14200462400913239,0.11528099328279495,0.09964828938245773,-0.353586882352829,-0.9300788044929504,0.023749537765979767,-0.06502276659011841,0.06002265214920044,-0.5519337973017631,-0.05915655566158867,-0.17737278301219545,-0.8126552969190391,0.3614029130997329,0.10673247436631836,1.9288531787074206
1781551197798886912,0.27260518074035645,0.008678557351231575,0.1752976030111313,0.10333485156297684,0.10073909163475037,-0.35366395115852356,-0.9299319386482239,0.011824987828731537,-0.06143611669540405,0.04722630977630615,-0.5513473876143977,-0.058597932384098994,-0.17776475074212028,-0.8130079551138091,0.361485316171271,0.10790872988739472,1.9300238954797746
1781551197808921088,0.2826392650604248,0.06219211593270302,0.18275244534015656,0.08772926032543182,0.10208020359277725,-0.3540891706943512,-0.9296238422393799,-0.011656619608402252,-0.044745057821273804,0.010205507278442383,-0.5507921962441723,-0.05804694986117403,-0.17837776434503236,-0.8132895968038041,0.36193996259649136,0.10936988690135024,1.9309880681787435
1781551197818954240,0.29267239570617676,0.11437755823135376,0.1935579627752304,0.09260044246912003,0.10352365672588348,-0.3550373315811157,-0.9291024208068848,-0.017586156725883484,-0.02696642279624939,0.004419863224029541,-0.5502312697629896,-0.057609807864867635,-0.1792481216051691,-0.8135089442495264,0.3629540046171556,0.11096558703824726,1.931833251438607
1781551197828988160,0.302706241607666,0.17149516940116882,0.19980481266975403,0.10017900168895721,0.1050298735499382,-0.3564980626106262,-0.9283737540245056,-0.012790493667125702,-0.01685395836830139,0.0012192726135253906,-0.5496153525328306,-0.05728862256792483,-0.18036388790733604,-0.8137013043779714,0.3645170038549915,0.11265417822082821,1.9326899334712793
1781551197839022080,0.3127403259277344,0.21823151409626007,0.20375694334506989,0.11400320380926132,0.10654918849468231,-0.35842710733413696,-0.9274574518203735,-0.010815538465976715,-0.018739640712738037,0.005963921546936035,-0.5489403030131128,-0.05708935002403584,-0.1816922867738604,-0.8138755409681483,0.3665825094485732,0.11438165216743913,1.933586791828438
1781551197849056000,0.32277417182922363,0.2664909064769745,0.22144272923469543,0.13428451120853424,0.10807004570960999,-0.36083754897117615,-0.9263461232185364,-0.009559310972690582,-0.030718237161636353,0.016983330249786377,-0.5481660526211108,-0.05701147129747355,-0.1832392745524094,-0.8140559416027392,0.36916578708810016,0.11613772002406197,1.9346184313174306
1781551197859090176,0.332808256149292,0.2942975163459778,0.2340080589056015,0.15743030607700348,0.10965623706579208,-0.36363935470581055,-0.9250631928443909,-0.017859354615211487,-0.05762529373168945,0.01203829050064087,-0.5472848315686655,-0.05699874714295756,-0.184985246429045,-0.8142547857976113,0.372171733216916,0.11798859537064726,1.9358043443767012
1781551197869124096,0.34284234046936035,0.29200640320777893,0.2500905990600586,0.17906369268894196,0.11129729449748993,-0.3665696382522583,-0.9237096905708313,-0.03254667669534683,-0.0816572904586792,0.012653172016143799,-0.5462927589104096,-0.05697434296746369,-0.18681293942574348,-0.8145053821650592,0.37531931049109474,0.11991142187489587,1.9372095946487313
1781551197879158016,0.3528761863708496,0.3072066605091095,0.2776697874069214,0.2210172712802887,0.11299194395542145,-0.36957302689552307,-0.9223061203956604,-0.03321899473667145,-0.09353122115135193,0.0218239426612854,-0.545144136199648,-0.056910677046167805,-0.18870110887607752,-0.8148440983469332,0.3785494590656591,0.12190279382020193,1.9389567898777456
1781551197889192192,0.36291027069091797,0.33868682384490967,0.309974730014801,0.273001104593277,0.11478264629840851,-0.3728440999984741,-0.9207671880722046,-0.03301078826189041,-0.10341322422027588,0.03317868709564209,-0.5437673331419879,-0.05683098858765392,-0.19075283322334594,-0.8152917512313901,0.382072245894274,0.12402000642568904,1.9411662908270333
1781551197899225344,0.3729434013366699,0.37438541650772095,0.33904871344566345,0.317533940076828,0.11665576696395874,-0.37647342681884766,-0.9190534353256226,-0.03634876012802124,-0.11646175384521484,0.03587472438812256,-0.5421478957690007,-0.05676302442325549,-0.19300581230260191,-0.8158446478227661,0.38598670068416513,0.1262551899267242,1.9438529621746357
1781551197909259008,0.3829772472381592,0.38939154148101807,0.38709667325019836,0.3512703478336334,0.11871504783630371,-0.3804166615009308,-0.9171640276908875,-0.04504562169313431,-0.13777178525924683,0.031208276748657227,-0.540312340295308,-0.05665399515781517,-0.19546943702224273,-0.8164830062151378,0.39024677994157736,0.12872141358576114,1.946928412877455
1781551197919293184,0.39301133155822754,0.3592000901699066,0.4399905204772949,0.36235228180885315,0.12117991596460342,-0.38431498408317566,-0.9152144193649292,-0.047296859323978424,-0.15593770146369934,0.0198744535446167,-0.5383262340261454,-0.05631688277892338,-0.1980434408193971,-0.8171976274701861,0.3944656934398983,0.13164032339053933,1.9502512519152124
1781551197929327104,0.4030451774597168,0.3972185552120209,0.4455181956291199,0.39202895760536194,0.12382277101278305,-0.3881974518299103,-0.9132199287414551,-0.04418715089559555,-0.15966936945915222,0.016933917999267578,-0.5362526855144424,-0.055869702827639804,-0.20067039034164383,-0.8179504797138356,0.3986748322836435,0.13476734714631822,1.9537160674476344
1781551197939361024,0.41307926177978516,0.4055872857570648,0.48121944069862366,0.47666579484939575,0.12633183598518372,-0.392468124628067,-0.9110483527183533,-0.035740405321121216,-0.17129835486412048,0.02631324529647827,-0.5338741252360936,-0.05551022131739087,-0.20345626157988256,-0.8188422864849679,0.4033134869487002,0.13778778413146986,1.9578403900999894
1781551197949395200,0.4231133460998535,0.4609301686286926,0.5118818879127502,0.5246685147285461,0.12888486683368683,-0.3970390558242798,-0.9087071418762207,-0.03135068714618683,-0.16688001155853271,0.0452885627746582,-0.533194628683538,-0.05563860793904475,-0.20627839602370604,-0.8185700575655039,0.40828845441648004,0.14089347662586982,1.9576973651009832
1781551197959429120,0.4331471920013428,0.5975242853164673,0.5442755222320557,0.5809200406074524,0.13149414956569672,-0.40254613757133484,-0.905906081199646,-0.034234628081321716,-0.14156699180603027,0.05295509099960327,-0.5302383192543535,-0.05544255204357827,-0.2096975677537062,-0.8196342453337122,0.4142966095415657,0.14414535326410788,1.962833452843017
1781551197969462272,0.4431803226470947,0.7414792776107788,0.5945325493812561,0.6404054760932922,0.13413560390472412,-0.40949469804763794,-0.9023978114128113,-0.021571531891822815,-0.11600273847579956,0.04111546277999878,-0.5269265262123015,-0.05555546236075752,-0.21380995710782139,-0.8206994077058122,0.4219001303421529,0.14756307795656126,1.9684132762952127
1781551197979495936,0.453214168548584,0.8339908719062805,0.6624748706817627,0.6830146908760071,0.13706833124160767,-0.41756710410118103,-0.8982482552528381,-0.028013765811920166,-0.12856021523475647,0.04955446720123291,-0.5232924885162673,-0.05577378375479594,-0.2185523798162934,-0.8217597691583843,0.4307661791006165,0.15142702285113058,1.9743312331145082
1781551197989530112,0.46324825286865234,0.8472938537597656,0.7375994324684143,0.7444796562194824,0.14034119248390198,-0.4261758327484131,-0.8936881422996521,-0.05934754014015198,-0.18937897682189941,0.0709189772605896,-0.519333421317906,-0.05589247253589269,-0.22367823010445462,-0.8228833088235445,0.4402612558326493,0.1557638973384709,1.9807043597928475
1781551197999564288,0.4732823371887207,0.7792596817016602,0.8002889156341553,0.7956094145774841,0.1439025104045868,-0.4345931112766266,-0.8890562057495117,-0.07316276431083679,-0.2365036904811859,0.08804607391357422,-0.5150381255831371,-0.05570570247099146,-0.2288422509500129,-0.8241747092696143,0.4495864449286258,0.16046816362843616,1.987751088494949
1781551198009597952,0.48331618309020996,0.7433522939682007,0.8603429198265076,0.8388115167617798,0.14768660068511963,-0.4425581991672516,-0.8844947218894958,-0.07102645933628082,-0.2425003945827484,0.08270639181137085,-0.5104874725046331,-0.05518042906403059,-0.23389687646867813,-0.8256210395550622,0.4584494505303934,0.1654465664910363,1.9953623161950722
1781551198019632128,0.4933502674102783,0.7375021576881409,0.8951249122619629,0.9029558897018433,0.15157511830329895,-0.4504081606864929,-0.8798621892929077,-0.05600932240486145,-0.21563798189163208,0.07462537288665771,-0.5056345162153772,-0.05445001504825349,-0.23896464874784046,-0.8272030021038854,0.46722244732311935,0.17059695539961914,2.003592167905766
1781551198029666304,0.5033843517303467,0.7619731426239014,0.91248619556427,0.9768425822257996,0.15524989366531372,-0.4584718644618988,-0.8750434517860413,-0.03498011827468872,-0.1770566999912262,0.05326610803604126,-0.5004253052189479,-0.05372799608301685,-0.2441138811684033,-0.8289126589589497,0.47627494033142503,0.175592443172077,2.012575056791735
1781551198039699968,0.5134181976318359,0.775230348110199,0.9140070676803589,1.020145058631897,0.15863749384880066,-0.466800719499588,-0.870017945766449,-0.01528117060661316,-0.148342102766037,0.034950196743011475,-0.4949140331173817,-0.05307190358692975,-0.2493479346781826,-0.8307040203381996,0.48566970184110697,0.18035681756135583,2.0221835577054024
1781551198049734144,0.5234522819519043,0.8371139764785767,0.9000561237335205,1.0606560707092285,0.16162748634815216,-0.47548040747642517,-0.8647513389587402,-0.011191099882125854,-0.13909780979156494,0.03497844934463501,-0.48921186619401963,-0.05258430030846102,-0.25467471777829254,-0.8324946621840664,0.49551004563293577,0.18477436556535343,2.0321569107861572
1781551198059767040,0.5334851741790771,0.8105736970901489,0.9024742841720581,1.1152849197387695,0.1641920953989029,-0.484494686126709,-0.8592472076416016,0.002204999327659607,-0.13553088903427124,0.03431135416030884,-0.4832830679617942,-0.05225889080704423,-0.26008727675378585,-0.8343026851995184,0.505785454701327,0.18881211227083214,2.0425943663726582
1781551198069801216,0.5435192584991455,0.7094111442565918,0.9209404587745667,1.1663813591003418,0.16641777753829956,-0.4929606020450592,-0.8539876937866211,0.01288825273513794,-0.1246388852596283,0.046065330505371094,-0.4770957527000139,-0.051789252906803515,-0.2651867890809894,-0.8362854977436894,0.5154892686338488,0.19245939024829375,2.053830132453984
1781551198079835136,0.5535533428192139,0.5634749531745911,0.9623488783836365,1.2198246717453003,0.16850148141384125,-0.500451385974884,-0.8492088317871094,0.0038617849349975586,-0.12990444898605347,0.08970260620117188,-0.47065145466888136,-0.050967052385736386,-0.26981091994234996,-0.8385056134955193,0.5241200588674709,0.19587752718035933,2.0659446275025806
1781551198089869056,0.5635871887207031,0.4932495057582855,0.9740601778030396,1.270076870918274,0.17043980956077576,-0.5070254802703857,-0.844911515712738,0.007340341806411743,-0.12807583808898926,0.13058656454086304,-0.4639403156696566,-0.04981069741740812,-0.2739765165102812,-0.8409608946545853,0.5317302483466194,0.199053694287195,2.078959382408119
1781551198099903232,0.5736212730407715,0.4874326288700104,0.9784956574440002,1.2825628519058228,0.17212940752506256,-0.5133922100067139,-0.8407139182090759,0.01878856122493744,-0.11095166206359863,0.1484074592590332,-0.4570678297314954,-0.04860538845661678,-0.2779937883975844,-0.843472624598129,0.5391330633793598,0.20195093527684754,2.0924316658492343
1781551198109937152,0.5836553573608398,0.5285515785217285,0.9959156513214111,1.2815297842025757,0.17378635704517365,-0.519830584526062,-0.8364056944847107,0.022014424204826355,-0.07236301898956299,0.1000623106956482,-0.4501282777775307,-0.04736448166059074,-0.2820527751822964,-0.8459239998332657,0.5466526506961874,0.20486270509187507,2.105959623402259
1781551198119971072,0.5936892032623291,0.7120695114135742,1.0241369009017944,1.3097708225250244,0.17543020844459534,-0.5272596478462219,-0.831397294998169,0.012756451964378357,-0.025810420513153076,0.052924394607543945,-0.44304543865390195,-0.04630540848653906,-0.28663070049515776,-0.8481800358517856,0.5553722930134877,0.20795595024490093,2.1193855590485686
1781551198130004224,0.603722333908081,0.8575372099876404,1.0572872161865234,1.3504539728164673,0.17696669697761536,-0.5362045168876648,-0.8253287076950073,0.0026139914989471436,-0.008168041706085205,0.009395480155944824,-0.43567720594389747,-0.04555562237226746,-0.2919937021367946,-0.8502056764991766,0.5659340835755041,0.21122139282825178,2.132870086048244
1781551198140037888,0.6137561798095703,0.8758935928344727,1.0605666637420654,1.3570407629013062,0.17835071682929993,-0.5458737015724182,-0.8186653852462769,-0.004247933626174927,-0.007074296474456787,-0.00030434131622314453,-0.4281090980038385,-0.04493560171438566,-0.29773832022418933,-0.8520888562646891,0.5774315145598081,0.21450384616126147,2.1464900103171516
1781551198150072064,0.6237902641296387,0.796150267124176,1.0361781120300293,1.3194977045059204,0.17952574789524078,-0.5551573634147644,-0.8121396899223328,0.005380257964134216,0.0024077296257019043,0.0011655688285827637,-0.42059560102557175,-0.04425551749256399,-0.3032682261587417,-0.8539141008585909,0.5885521722976725,0.2175542750784142,2.160080121997061
1781551198160106240,0.633824348449707,0.816842794418335,0.9933974146842957,1.2634952068328857,0.1804894506931305,-0.5639840960502625,-0.8058197498321533,0.03784856200218201,0.03444308042526245,0.0036346912384033203,-0.4133167009321996,-0.043567110301550166,-0.3085320620547683,-0.8556162113262272,0.5992025095182771,0.22034568338799643,2.17326457691843
1781551198170139392,0.643857479095459,0.8382987976074219,0.9889073371887207,1.206925392150879,0.1814168393611908,-0.5729600787162781,-0.7992525696754456,0.058787018060684204,0.08377856016159058,-0.016726434230804443,-0.40629172947586795,-0.042964322655998845,-0.31389134426225546,-0.8570608542886302,0.6101129860672267,0.2232011907041554,2.1856961443644845
1781551198180173312,0.6538915634155273,0.8488454222679138,1.0107028484344482,1.2308826446533203,0.1823505014181137,-0.5819358229637146,-0.7925269603729248,0.05052913725376129,0.1185721755027771,-0.052397966384887695,-0.39929412650747087,-0.0423069324934446,-0.31929084688656656,-0.8583866694697573,0.6211070797091668,0.22615144182049216,2.197941568569647
1781551198190207488,0.6639256477355957,0.761714518070221,1.0251388549804688,1.2319614887237549,0.18314725160598755,-0.590684175491333,-0.785843014717102,0.03604523837566376,0.11599856615066528,-0.048049747943878174,-0.3921428478070132,-0.04153464917642518,-0.3245818344860844,-0.859735660955536,0.6319064956304885,0.22897110359200704,2.210583840051426
1781551198200241408,0.673959493637085,0.6209496855735779,0.9927691221237183,1.1882747411727905,0.18386055529117584,-0.5983535647392273,-0.779851496219635,0.03166984021663666,0.0873214602470398,-0.04079669713973999,-0.38511116953666075,-0.04050746745940706,-0.3292922612605906,-0.8611708330022974,0.6414446160272552,0.23153542431131313,2.223334188921485
1781551198210274560,0.6839926242828369,0.549656867980957,0.9444864392280579,1.1862411499023438,0.18423812091350555,-0.6051033139228821,-0.7745361924171448,0.048046424984931946,0.08006364107131958,-0.030898988246917725,-0.3782515800330179,-0.03941603575348266,-0.33343407170762335,-0.8626667170754815,0.6498956204955725,0.2335290387485922,2.2361558208928694
1781551198220308224,0.6940264701843262,0.5080729126930237,0.9166046977043152,1.160698413848877,0.18422658741474152,-0.6113739013671875,-0.7695989608764648,0.06551401317119598,0.0879364013671875,-0.026940345764160156,-0.37148546619491574,-0.03837736444251393,-0.33723538096873523,-0.8641747847638918,0.6577955835011042,0.2349586494902795,2.2490934734272585
1781551198230342400,0.7040605545043945,0.4740917682647705,0.914714515209198,1.1253596544265747,0.18422450125217438,-0.6172709465026855,-0.7648777365684509,0.04537448287010193,0.07434797286987305,-0.007583200931549072,-0.3648818177877311,-0.037261665487191474,-0.3408411625881708,-0.8656212927276762,0.6652691944797197,0.23635310433288817,2.2617544765683495
1781551198240376576,0.7140946388244629,0.4882374107837677,0.9393490552902222,1.113329291343689,0.18433639407157898,-0.6230127811431885,-0.7601810693740845,0.01950576901435852,0.08155465126037598,0.004977822303771973,-0.3583306986783689,-0.036033149157112525,-0.3443996082997368,-0.8670003991410468,0.6725884181781416,0.23789815059146963,2.2742471128750044
1781551198250410240,0.7241284847259521,0.5369328260421753,0.9659135341644287,1.055202603340149,0.18475472927093506,-0.6289473176002502,-0.7551761269569397,0.02444326877593994,0.10277849435806274,0.010013163089752197,-0.35184478375796624,-0.034689068824704086,-0.3481502720413447,-0.8682127362391407,0.680198469962519,0.23993818410538992,2.2862817761362813
1781551198260444416,0.7341625690460205,0.5974614024162292,0.9630727767944336,1.004150629043579,0.18553510308265686,-0.6351124048233032,-0.7498058676719666,0.045208320021629333,0.12696421146392822,0.020069599151611328,-0.3455772603628697,-0.03327023397094176,-0.3521223414412647,-0.8691830744948059,0.6881540685648588,0.24257173569298035,2.2974467149646207
1781551198270478336,0.7441964149475098,0.7462061643600464,0.9484251141548157,0.9665353894233704,0.18636058270931244,-0.6420220732688904,-0.7436917424201965,0.07955433428287506,0.15718930959701538,0.005578398704528809,-0.3394573968309659,-0.03202170820984801,-0.3565511530399478,-0.8698359864899103,0.697132764233575,0.24553244198435967,2.3078202629296807
1781551198280512256,0.7542304992675781,0.7793273329734802,0.9075093865394592,0.9162570238113403,0.18715506792068481,-0.6495088934898376,-0.7369608283042908,0.12670297920703888,0.14172691106796265,-0.02545982599258423,-0.33354376864249535,-0.03096174877131472,-0.36133220789134207,-0.870189080053165,0.7069383485910047,0.24869776571355318,2.31736590804043
1781551198290545408,0.7642636299133301,0.7189319133758545,0.843869149684906,0.8699979186058044,0.1877523809671402,-0.6567617058753967,-0.7303513884544373,0.1596444547176361,0.099373459815979,-0.022654592990875244,-0.3279312261287385,-0.030021999863670202,-0.36595489969993444,-0.8704234069754906,0.7165164501011131,0.2516228463203585,2.3263452503337985
1781551198300579328,0.7742974758148193,0.6012758612632751,0.8147237300872803,0.8822489976882935,0.188012957572937,-0.6632394790649414,-0.7244062423706055,0.1599637120962143,0.03160196542739868,-0.020878732204437256,-0.32251146864020225,-0.02910672297013186,-0.3700671141872773,-0.8707406942047529,0.7251390241685429,0.25393786171098687,2.335377065543973
1781551198310613504,0.7843315601348877,0.5930469632148743,0.7495041489601135,0.9568643569946289,0.18759888410568237,-0.6692877411842346,-0.7189301252365112,0.14276915788650513,-0.05358213186264038,-0.01712334156036377,-0.31689031359449543,-0.028301684076399835,-0.37381004090586223,-0.8712321815381056,0.7332497419623826,0.2552499727997082,2.345422919352377
1781551198320647424,0.794365644454956,-0.06512029469013214,0.6160768270492554,0.6795749664306641,0.18699268996715546,-0.6728711724281311,-0.7157361507415771,0.14741891622543335,-0.1439012885093689,-0.014427423477172852,-0.3119209997888453,-0.02727965440063187,-0.37601562993162047,-0.8721086522251702,0.7380831802175981,0.2555472267246949,2.3553270560542567
1781551198330681344,0.8043994903564453,-0.5549868941307068,0.5128474235534668,0.7138953804969788,0.18630889058113098,-0.6719862222671509,-0.716745138168335,0.13667389750480652,-0.12029588222503662,-0.04314255714416504,-0.30790249269946635,-0.025691062387202458,-0.37545624574899356,-0.8738242046082341,0.736887539285904,0.2543094370290146,2.3654029062072577
1781551198340715520,0.8144335746765137,-0.7138442397117615,0.2800391912460327,0.45267364382743835,0.18518994748592377,-0.6683390140533447,-0.7204357981681824,0.15741564333438873,-0.017390966415405273,-0.08457213640213013,-0.3045669528256264,-0.02401659958330442,-0.3731022751736644,-0.8760462066835345,0.7319735722493703,0.25160537718521214,2.3755492001318768
1781551198350749184,0.8244674205780029,-0.42546969652175903,0.1060175970196724,0.17048379778862,0.18444880843162537,-0.6645950675010681,-0.7240801453590393,0.13609257340431213,0.15827792882919312,-0.12723815441131592,-0.30296235091408624,-0.02289187052602673,-0.370723466545105,-0.8776411085439098,0.726951744210007,0.24943047729442988,2.3815065916978226
1781551198360783360,0.8345015048980713,0.09029938280582428,0.04933807626366615,-0.022395383566617966,0.18457657098770142,-0.6634806394577026,-0.7250689268112183,0.14380782842636108,0.47457683086395264,-0.19322025775909424,-0.3030829138167391,-0.022638722223653963,-0.3700716534149934,-0.8778810809344274,0.7254612614564163,0.24926973163807792,2.3817049213123274
1781551198370816512,0.8445346355438232,0.46317362785339355,-0.029653947800397873,-0.00809687189757824,0.1848175823688507,-0.6655876636505127,-0.7230737209320068,0.1203276664018631,0.7285454273223877,-0.32374024391174316,-0.30371119271048763,-0.02323971514215019,-0.3713799322831367,-0.8770954904346444,0.7282809401661016,0.2502421918813949,2.379093954502402
1781551198380850432,0.8545684814453125,0.29435664415359497,-0.16301386058330536,-0.06298941373825073,0.18423080444335938,-0.6687010526657104,-0.7203457355499268,0.10019302368164062,0.6325987577438354,-0.45494723320007324,-0.30446443428917414,-0.02452946360788484,-0.373129250241717,-0.8760561328747665,0.7324603903110573,0.25038615938966313,2.3761685131808825
1781551198390884352,0.8646025657653809,-0.5531155467033386,-0.278862863779068,-0.34220534563064575,0.18402841687202454,-0.6675519347190857,-0.7214623689651489,0.07982656359672546,0.1824445128440857,-0.4687384366989136,-0.30581857797331574,-0.024954783179471935,-0.37235207153818367,-0.8759030882952822,0.7309159953096148,0.24975122302284153,2.3737713494536945
1781551198400918528,0.8746366500854492,-1.244075894355774,-0.44990089535713196,-0.35673823952674866,0.18385300040245056,-0.6600521802902222,-0.7283744215965271,0.04872146248817444,-0.11323279142379761,-0.3314400315284729,-0.30880613478634983,-0.024659478927821055,-0.3677019154909321,-0.8768272981317357,0.72088818038439,0.24725079490891852,2.3707507167151145
1781551198410952448,0.8846704959869385,-1.0742764472961426,-0.5851942896842957,-0.373831182718277,0.1823384016752243,-0.6505519151687622,-0.7372482419013977,0.0993083119392395,-0.03848922252655029,-0.2043563723564148,-0.3120151016954218,-0.024664716290766,-0.36161792551165434,-0.8782202630391049,0.7083109191219898,0.24245748722794866,2.3688207759695135
1781551198420986368,0.8947045803070068,-0.4750838577747345,-0.5051193833351135,-0.34161174297332764,0.18058569729328156,-0.6439821124076843,-0.7434216737747192,0.10823266208171844,0.1422884464263916,-0.1564043164253235,-0.31527816898812255,-0.02542852888129386,-0.35727098281927283,-0.8788119369424114,0.6996920570032023,0.2382961130332891,2.3653850213808716
1781551198431020288,0.9047384262084961,0.6316990256309509,-0.2590669095516205,-0.14380303025245667,0.17934665083885193,-0.6440190672874451,-0.7436896562576294,0.03404751420021057,0.19998830556869507,-0.0881432294845581,-0.31756080262584363,-0.026975555129460135,-0.35696988372776234,-0.8780661007478122,0.6997403387646219,0.2366395452803863,2.360849046283984
1781551198441054464,0.9147725105285645,0.5020539164543152,-0.09948869049549103,-0.026964036747813225,0.17857961356639862,-0.6490124464035034,-0.7395215630531311,-0.05080251395702362,-0.05853760242462158,0.1885266900062561,-0.3186073395589498,-0.02889031228234216,-0.3597284669671537,-0.876498735217681,0.7062856028330032,0.23694383970597158,2.356600513389952
1781551198451087360,0.9248056411743164,-0.17263317108154297,-0.08562400937080383,0.1173366829752922,0.17742663621902466,-0.6500434279441833,-0.7388932704925537,-0.08857470750808716,-0.36126333475112915,0.3692033290863037,-0.31902171387604483,-0.029859393178287577,-0.3600857850045837,-0.8761688086468526,0.7076416221405245,0.23566301573902823,2.3558193613705347
1781551198461121280,0.9348394870758057,-0.3272794783115387,-0.057475458830595016,0.12279802560806274,0.1762678623199463,-0.6481931805610657,-0.7407936453819275,-0.07221817970275879,-0.595687985420227,0.275446355342865,-0.3191077505829205,-0.030051261803507152,-0.35874797018885507,-0.8766795576896645,0.7052092791574084,0.23360064178743015,2.357115128381501
1781551198471155456,0.944873571395874,-0.14875154197216034,-0.10265518724918365,0.09648653119802475,0.17489448189735413,-0.6466428637504578,-0.7424721717834473,-0.01653878390789032,-0.5795686841011047,0.28679895401000977,-0.31928158682608054,-0.03045219113345316,-0.35754239973258456,-0.8770948628847252,0.7031750549376196,0.23133970143454063,2.3581790887844485
1781551198481189376,0.9549074172973633,-0.20723669230937958,-0.11755450069904327,0.1936785876750946,0.17320170998573303,-0.6456738114356995,-0.7437113523483276,0.08543476462364197,-0.21820253133773804,0.27511394023895264,-0.3193733484308305,-0.031106804858572253,-0.3566184262045111,-0.877414588202981,0.7019053224386235,0.22880989534714846,2.3593325602682915
1781551198491223296,0.9649415016174316,-0.3615351915359497,-0.10812731832265854,0.29548829793930054,0.17070214450359344,-0.6439557075500488,-0.7457759380340576,0.045957401394844055,-0.034648358821868896,0.1972377896308899,-0.31897817242651266,-0.03179467736914645,-0.3551072104749065,-0.8781462303656159,0.6996575544534291,0.22501580263755072,2.3623550844304066
1781551198501257472,0.9749755859375,-0.5039207935333252,-0.08435088396072388,0.25297811627388,0.16815365850925446,-0.6412283778190613,-0.7486992478370667,-0.06353941559791565,-0.16159749031066895,0.15426260232925415,-0.3184162859792229,-0.032218186649079564,-0.35300478403427915,-0.8791818159125285,0.6960979849782103,0.22092835843380038,2.366194763861184
1781551198511291392,0.9850094318389893,-0.4890289604663849,-0.05718623846769333,0.3005182147026062,0.1659715175628662,-0.6377620697021484,-0.7521389722824097,-0.1071336418390274,-0.19916725158691406,0.07844817638397217,-0.31783907716306553,-0.032297479364169365,-0.3505529659018981,-0.8803680468365632,0.6915892257212087,0.21718550044547197,2.3701448376314374
1781551198521325312,0.9950435161590576,-0.331363707780838,-0.08917666226625443,0.44660723209381104,0.16299572587013245,-0.6353930234909058,-0.7547901272773743,-0.07866039872169495,-0.10391056537628174,0.07833749055862427,-0.3163714219869284,-0.03266216481725792,-0.3486231842536668,-0.8816485487832618,0.6885173563366025,0.2126824886592784,2.3760290631511807
1781551198531358464,1.0050766468048096,-0.4915406107902527,-0.07629961520433426,0.5733222961425781,0.15910448133945465,-0.6332709193229675,-0.7573992609977722,-0.06408800184726715,-0.14993220567703247,0.08915591239929199,-0.31430399653856167,-0.03330500110872005,-0.34668593079647614,-0.8831265921033002,0.6857723161336643,0.2070562210882854,2.3836039081811693
1781551198541392384,1.0151104927062988,-0.8277660012245178,-0.09888534992933273,0.6846826672554016,0.15444616973400116,-0.6292707324028015,-0.7616854906082153,-0.060558855533599854,-0.2649248242378235,0.09464752674102783,-0.31177331812836345,-0.033756725792971363,-0.3435371126656654,-0.885234566171607,0.6806145294696364,0.200056597024121,2.3932947750026816
1781551198551426304,1.0251445770263672,-1.2047545909881592,-0.12867918610572815,0.7801977396011353,0.14894716441631317,-0.6226273775100708,-0.7682121992111206,-0.01903383433818817,-0.3127058744430542,0.1348198652267456,-0.30887442798409276,-0.03395252803783339,-0.3387346139085565,-0.8880893958256433,0.6720958218471755,0.19151183648549444,2.405097326120334
1781551198561460224,1.0351784229278564,-1.5308383703231812,-0.10122200846672058,0.8619482517242432,0.14292819797992706,-0.6132023930549622,-0.7768875956535339,0.014984995126724243,-0.28164929151535034,0.1650712490081787,-0.3056377766616085,-0.03375380021920492,-0.33229033924831336,-0.8916441913788792,0.6601082620895548,0.18194087901155637,2.41865359033172
1781551198571494400,1.0452125072479248,-1.8334227800369263,-0.09203236550092697,0.950343906879425,0.13667304813861847,-0.6013062000274658,-0.7872428894042969,0.006454393267631531,-0.21149897575378418,0.15713119506835938,-0.3020187390112598,-0.03311130839961674,-0.324472187879762,-0.8957712504888219,0.6451348431672358,0.17189641742953288,2.433629624152688
1781551198581528320,1.0552465915679932,-2.100942373275757,-0.06184970214962959,1.0886961221694946,0.12995634973049164,-0.586991012096405,-0.7990950345993042,0.000841975212097168,-0.1057274341583252,0.18532556295394897,-0.297908888700225,-0.03215590973012554,-0.3153069568730066,-0.9004431449908287,0.6273371780922998,0.16121798049417335,2.4501733397325967
1781551198591562240,1.0652804374694824,-2.3944170475006104,-0.03051135130226612,1.250786542892456,0.12277183681726456,-0.570436954498291,-0.8121137619018555,-0.01354941725730896,-0.046399593353271484,0.24607372283935547,-0.2930181192700009,-0.030881263337179016,-0.3049417333812412,-0.9056474249645298,0.607037728975253,0.15003953548212617,2.468689669540111
1781551198601596416,1.0753145217895508,-2.9043893814086914,0.06296081095933914,1.3403249979019165,0.1155528724193573,-0.5502901077270508,-0.8269391655921936,-0.0623607337474823,-0.11763286590576172,0.3346295952796936,-0.28746602352848055,-0.0289354045968018,-0.29273395544564035,-0.9115003328244948,0.5827116187381639,0.13883665322371674,2.488888891148395
1781551198611629312,1.0853474140167236,-3.4432461261749268,0.057194001972675323,1.4147331714630127,0.10874975472688675,-0.5251821279525757,-0.8440125584602356,-0.09600866585969925,-0.18209326267242432,0.4099915623664856,-0.2815100079924547,-0.026035462359957896,-0.2780573193959385,-0.9180187050524422,0.5529291167923228,0.12814247559073635,2.510096751427412
1781551198621663232,1.095381498336792,-3.9399783611297607,-0.05627450346946716,1.499679684638977,0.10124468803405762,-0.4952162802219391,-0.8628501296043396,-0.05931352823972702,-0.1398087441921234,0.4522055983543396,-0.2752096621418117,-0.022886280326687155,-0.2608661724347276,-0.9250322237771387,0.5180837661844587,0.11680341598584319,2.532259146752834
1781551198631697408,1.1054155826568604,-4.765820503234863,-0.10512899607419968,1.5751177072525024,0.09315399080514908,-0.4587767422199249,-0.8836550712585449,0.02435395121574402,-0.04476329684257507,0.4286990165710449,-0.2686123458302097,-0.01930346633523713,-0.2404159987894545,-0.9325636291348268,0.4766180088684192,0.10503102361764688,2.555165324463717
1781551198641731328,1.1154494285583496,-5.705939292907715,-0.16599340736865997,1.694092869758606,0.08476059138774872,-0.413207471370697,-0.906683623790741,0.056627340614795685,0.02380320429801941,0.41974520683288574,-0.261525837505047,-0.014857633984188798,-0.21549345804485914,-0.940715738925431,0.4259735034562951,0.0932132894886683,2.579099982669995
1781551198651765248,1.125483512878418,-6.592831134796143,-0.23981277644634247,1.7220954895019531,0.07622958719730377,-0.3578464090824127,-0.9306637644767761,0.06512783467769623,-0.01526150107383728,0.4506985545158386,-0.25398103081413975,-0.009600485413490388,-0.18594612420900966,-0.9491183017803746,0.36596057075444033,0.08172639303807822,2.6035198965000337
1781551198661799424,1.1355175971984863,-7.3747944831848145,-0.3220013678073883,1.6963038444519043,0.06801041215658188,-0.2929343581199646,-0.953710675239563,0.049650102853775024,-0.1138344407081604,0.461950421333313,-0.24627390551604222,-0.0036051858087503227,-0.1520909753571432,-0.9571857705986647,0.29729439111904893,0.07119085419690349,2.6272722026964823
1781551198671833344,1.1455514430999756,-7.646824836730957,-0.5174230933189392,1.7118401527404785,0.05962289497256279,-0.22091396152973175,-0.9734691381454468,0.02341543510556221,-0.12150852382183075,0.4570659399032593,-0.23836194084880963,0.0024516357863264373,-0.1151495920604115,-0.9643226172364051,0.22275148278092916,0.06117144113348179,2.6501023015093286
1781551198681867264,1.155585527420044,-7.284465789794922,-0.6769171357154846,1.726969599723816,0.05049113556742668,-0.14811056852340698,-0.9876810908317566,0.0070192404091358185,0.018014132976531982,0.4226176142692566,-0.23011317967324257,0.007493107282075554,-0.07812372044976978,-0.9699940465188469,0.14865748881478463,0.05107642624669148,2.671937056222285
1781551198691900160,1.1656184196472168,-6.596811294555664,-0.5748391151428223,1.6587735414505005,0.04216337949037552,-0.0797366052865982,-0.9959238767623901,-0.03238249570131302,0.2355288416147232,0.39822185039520264,-0.22169215743425186,0.011720461077704952,-0.04359706037912798,-0.9740711392884612,0.07982134385177533,0.04231067978745196,2.692339892348385
1781551198701934336,1.1756525039672852,-5.636203765869141,-0.23062260448932648,1.5978845357894897,0.03727230429649353,-0.01898806169629097,-0.9991247057914734,-0.12436947226524353,0.42919009923934937,0.38445496559143066,-0.21338793040992113,0.016183910995392896,-0.013255763179493724,-0.9767435940339805,0.018989202190907627,0.037287663543498106,2.7110600958199127
1781551198711968512,1.1856865882873535,-4.723016262054443,0.1415104866027832,1.6266802549362183,0.0369962677359581,0.032138556241989136,-0.9987984895706177,-0.2165159285068512,0.48395946621894836,0.3180276155471802,-0.20500491552343997,0.02140671340196489,0.011938011712369452,-0.9784540402063512,-0.032144089683179417,0.03702384747368432,2.7291245267102155
1781551198722002176,1.1957204341888428,-4.365499019622803,0.35630160570144653,1.5613415241241455,0.040561750531196594,0.07673084735870361,-0.99622642993927,-0.2209816724061966,0.3832758665084839,0.2768508195877075,-0.19660396123020918,0.02746013385474868,0.03365591108681829,-0.9795203804975592,-0.07680633774415525,0.04069291636353098,2.7469913983455667
1781551198732036352,1.2057545185089111,-3.954224109649658,0.3513619899749756,1.4096797704696655,0.04561014845967293,0.11775260418653488,-0.9919949769973755,-0.14628763496875763,0.24095100164413452,0.10960972309112549,-0.1887552985687132,0.03359629402862556,0.05360782779343629,-0.979984170104852,-0.11802643422907313,0.04594584783176396,2.763747037406547
1781551198742070528,1.2157886028289795,-3.4552369117736816,0.1636703759431839,1.3403068780899048,0.05015512555837631,0.1538243442773819,-0.9868244528770447,-0.03099009022116661,0.1485132873058319,-0.10140180587768555,-0.1814499441205903,0.03878837563377829,0.07129674987947271,-0.9800450249250021,-0.15443752914384098,0.050781074720233084,2.779379634035728
1781551198752104192,1.2258224487304688,-3.3238916397094727,-0.11714650690555573,1.3763314485549927,0.05266764760017395,0.18618768453598022,-0.9811015725135803,0.10677143931388855,0.057601988315582275,-0.22658580541610718,-0.17408100925302394,0.04241171488146567,0.08746695470520342,-0.9799216881991588,-0.18728054143742806,0.05363067854904448,2.795003143352101
1781551198762138368,1.235856533050537,-3.8095297813415527,-0.34890010952949524,1.2541488409042358,0.05307022109627724,0.22022882103919983,-0.9740034937858582,0.19607527554035187,-0.07800164818763733,-0.33584141731262207,-0.16663967259803886,0.044921942066393085,0.10478678050329837,-0.9794043563747231,-0.22204903754158242,0.054432860897722674,2.810602430374164
1781551198772171264,1.24588942527771,-4.422780990600586,-0.5591210126876831,1.022545337677002,0.05139903351664543,0.25977280735969543,-0.9643009305000305,0.19113941490650177,-0.20511582493782043,-0.2703792452812195,-0.15986964624143082,0.04673463100864612,0.125161582313438,-0.9780553249258296,-0.26278692037994805,0.05325146931941694,2.82458414811722
1781551198782205440,1.2559235095977783,-4.43163537979126,-0.5812180638313293,0.8786068558692932,0.04848821461200714,0.30237725377082825,-0.9519542455673218,0.16789668798446655,-0.18276360630989075,-0.07894480228424072,-0.1537816240613313,0.04806383131033013,0.14735243641420848,-0.9758731794290666,-0.30718566829009214,0.050891464328255524,2.8368763481357036
1781551198792239360,1.2659575939178467,-3.840660333633423,-0.29933202266693115,0.8918523788452148,0.04696909710764885,0.34130775928497314,-0.9387773275375366,0.13453420996665955,-0.027281880378723145,0.03225266933441162,-0.14812447993165165,0.049657228634308825,0.16776615318561625,-0.9733693162974628,-0.3483078459835212,0.049990516017879176,2.8483527388335426
1781551198802273280,1.275991439819336,-3.421891689300537,0.027855951339006424,0.8832154273986816,0.04908665642142296,0.37465551495552063,-0.9258638024330139,0.07922449707984924,0.12331506609916687,-0.032052457332611084,-0.14270666452434377,0.05250737370067395,0.1852325180740334,-0.9708587498991128,-0.3840252117129798,0.05296755743701608,2.8600022185908487
1781551198812307456,1.2860255241394043,-2.9434986114501953,0.14358828961849213,0.7600599527359009,0.053106971085071564,0.4038180708885193,-0.9132965803146362,0.017419148236513138,0.2049313187599182,-0.16534721851348877,-0.1379229735192809,0.05598705369930739,0.2005421812730518,-0.9683106393362693,-0.41568649419811343,0.05808325401410762,2.870875042603536
1781551198822341376,1.2960596084594727,-2.526116371154785,0.29806068539619446,0.8436150550842285,0.05846794694662094,0.4280991852283478,-0.901838481426239,-0.019558031111955643,0.12437579035758972,-0.302018940448761,-0.13354192138041412,0.05975643699884281,0.2133305847987273,-0.9659637167239397,-0.4423884342813048,0.0647413467454688,2.881403002048244
1781551198832375296,1.306093454360962,-2.5476086139678955,0.18442372977733612,0.7496760487556458,0.06433303654193878,0.4500621259212494,-0.8906769156455994,0.019544526934623718,0.00443616509437561,-0.27167659997940063,-0.1290700452653948,0.06351482082770413,0.2250053687573213,-0.9636801428067165,-0.4668349163078498,0.07210415887222674,2.89245815710692
1781551198842409472,1.3161275386810303,-2.7481250762939453,-0.0025733266957104206,0.5416985750198364,0.06804033368825912,0.4733392596244812,-0.8782485127449036,0.10981611162424088,-0.05094549059867859,-0.22879189252853394,-0.12521970804094026,0.06636791937726738,0.23763636485359863,-0.9609601033589483,-0.49307777226155536,0.07731831389982434,2.901906014291404
1781551198852442368,1.3261604309082031,-2.324779748916626,-0.23718222975730896,0.5047517418861389,0.06947517395019531,0.4954707622528076,-0.8658417463302612,0.1851940155029297,-0.07252764701843262,-0.20135796070098877,-0.12168997306125111,0.06799273222942223,0.24991222837721724,-0.9581818221759112,-0.5183767268524622,0.08006849485588727,2.9101842884195337
1781551198862476288,1.3361945152282715,-2.0526607036590576,-0.27256739139556885,0.3439226746559143,0.06931832432746887,0.5136805176734924,-0.8551767468452454,0.18400809168815613,-0.07193857431411743,-0.014162242412567139,-0.11855615655952673,0.06853993058244016,0.2602189432977434,-0.9557891096337324,-0.539469058099873,0.08088047774764891,2.9171456751188054
1781551198872510464,1.3462285995483398,-1.763959527015686,-0.14978328347206116,0.3046730160713196,0.0690985918045044,0.5301565527915955,-0.8450795412063599,0.0703667476773262,0.13035064935684204,0.06872761249542236,-0.11609987408902457,0.06906635485581981,0.2696109525737359,-0.9534467551668195,-0.5587852062079359,0.08158428894800984,2.922666770904517
1781551198882544384,1.356262445449829,-1.0422700643539429,-0.05910451337695122,0.3072410821914673,0.06992226094007492,0.5416731238365173,-0.8376759886741638,-0.0036075711250305176,0.3730759620666504,-0.1054239273071289,-0.11399206620557925,0.06981401009831796,0.2762028278591428,-0.9517582478926783,-0.5724262558128748,0.0832786637087253,2.9277096148390496
1781551198892578304,1.3662965297698975,-0.8135902285575867,0.03353274613618851,0.2892426550388336,0.07140183448791504,0.5489141941070557,-0.8328235149383545,-0.008001565933227539,0.35729002952575684,-0.283677339553833,-0.1122526424794741,0.07065495407234414,0.28034999451869835,-0.9506897973780654,-0.5810646542694008,0.08552550925153125,2.9321168190552287
1781551198902612480,1.3763306140899658,-0.9444910287857056,0.05707695335149765,0.2909531891345978,0.0734591856598854,0.555931806564331,-0.8279756307601929,-0.022464312613010406,0.18973469734191895,-0.23954451084136963,-0.11061854190249823,0.07180273133561665,0.284352888889384,-0.949605887702873,-0.5894835168173053,0.088489744424168,2.936540182696053
1781551198912646400,1.386364459991455,-1.1576381921768188,0.02371673285961151,0.25316452980041504,0.0753847062587738,0.564477264881134,-0.8219990730285645,-0.028326615691184998,0.004858613014221191,-0.17212623357772827,-0.10900477871825122,0.07300325965132443,0.2892593591806912,-0.9482180330031498,-0.599799872224426,0.09145317589657379,2.9409800648908595
1781551198922680320,1.3963985443115234,-0.4185372292995453,0.026393743231892586,0.3074171245098114,0.07689251005649567,0.5713191032409668,-0.8171181678771973,-0.021945610642433167,-0.0478663444519043,-0.15877294540405273,-0.1073839627175442,0.0738403214080801,0.29323802043845587,-0.9471155525694575,-0.6081122042203165,0.0938257769913108,2.9452576212799504
1781551198932714496,1.4064326286315918,-1.2429461479187012,0.2070736438035965,0.22912420332431793,0.07970893383026123,0.5771461129188538,-0.8127415776252747,0.026263363659381866,-0.01484447717666626,-0.43519848585128784,-0.10599512727998382,0.07534917306324729,0.29656652880665,-0.9461162151763267,-0.6152296681866132,0.09776150179373361,2.949540480010413
1781551198942747392,1.4164655208587646,-1.4593192338943481,-0.08966988325119019,0.2969232201576233,0.081651970744133,0.5881125330924988,-0.8046468496322632,-0.008470825850963593,0.006888628005981445,0.08360809087753296,-0.10432572218297215,0.07671742317981917,0.30297031217808545,-0.9441607620488255,-0.6287231682486796,0.10112936164100728,2.954400690198458
1781551198952781312,1.426499605178833,-1.7717766761779785,0.030888892710208893,0.17564234137535095,0.08269436657428741,0.6010984182357788,-0.7948850989341736,-0.011222206056118011,-0.2293790578842163,-0.032705843448638916,-0.10260995862248344,0.07775262389380978,0.31066378785385645,-0.941760890478253,-0.6448748143981978,0.10366021155357666,2.9591980905564204
1781551198962815232,1.4365334510803223,-1.375808835029602,0.04452827200293541,0.3679182827472687,0.08468002080917358,0.613427996635437,-0.7851976752281189,0.04721694439649582,0.006292402744293213,-0.2519422173500061,-0.10073149501636518,0.0791727566770979,0.3180139157879307,-0.939389126264066,-0.6603939341023519,0.10743027175127635,2.964799779880166
1781551198972849408,1.4465675354003906,-1.211804986000061,0.19888469576835632,0.3327464461326599,0.08779823780059814,0.6231920719146729,-0.7771248817443848,0.041687846183776855,0.04949164390563965,0.00011682510375976562,-0.09874679356043983,0.08094233083300564,0.323860917867039,-0.9374494862926054,-0.6728177001921649,0.11250124621429901,2.9710738153429506
1781551198982883328,1.456601619720459,-0.8652246594429016,0.13254454731941223,0.427963525056839,0.09162264317274094,0.6312769055366516,-0.770126461982727,-0.011010460555553436,-0.06166630983352661,0.07664501667022705,-0.09682012321517738,0.08296536667087298,0.32871497020751106,-0.9357825819128561,-0.6831985662710066,0.11841432103649985,2.9775413857164703
1781551198992917248,1.4666354656219482,-0.18312816321849823,0.14224231243133545,0.29403501749038696,0.09496396034955978,0.6347448825836182,-0.7668642401695251,0.020560339093208313,0.015355825424194336,0.12575095891952515,-0.09503568821330324,0.08440015928430596,0.33082394817565064,-0.9350937386031828,-0.6876782910521303,0.1232068835515728,2.9831881276523915
1781551199002951424,1.4766695499420166,-0.05368468537926674,0.1300642043352127,0.16373960673809052,0.09752322733402252,0.6353572010993958,-0.7660355567932129,0.005382046103477478,0.03905075788497925,0.05084085464477539,-0.09424505781641795,0.08553555551532518,0.3311584206564977,-0.934952244365966,-0.6884710266161326,0.12662783687665788,2.9861175802279574
1781551199012985344,1.486703634262085,0.24184949696063995,0.006318036001175642,0.12860532104969025,0.09894353896379471,0.6344311833381653,-0.7666206359863281,-0.025502987205982208,0.11608761548995972,0.14464187622070312,-0.09368134881457618,0.08601899522549955,0.33059098778366885,-0.9351653137017406,-0.6872724442987292,0.1283549793631394,2.9878911122684064
1781551199023018240,1.4967365264892578,0.028529226779937744,0.009400112554430962,-0.016606736928224564,0.09939184784889221,0.6329957246780396,-0.7677484750747681,-0.03956213593482971,0.13409411907196045,0.18321478366851807,-0.09351766720984328,0.0860844616061161,0.32971993203361005,-0.9354831607260906,-0.6854167870827493,0.12874283314821847,2.988309455735065
1781551199033052416,1.5067706108093262,-0.0006659420905634761,-0.04548098146915436,-0.0744258239865303,0.09897928684949875,0.6332126259803772,-0.7676228880882263,-0.09054117649793625,0.1599697470664978,0.15318197011947632,-0.09371624419203645,0.08595185560379384,0.3298497120975622,-0.9354297309613386,-0.6856969963795515,0.12823503498872954,2.9877162327384084
1781551199043086336,1.5168044567108154,0.08821971714496613,-0.19447259604930878,-0.077940933406353,0.09759116172790527,0.6328163146972656,-0.7681272625923157,-0.07558798789978027,0.16419601440429688,0.006347477436065674,-0.09392965113253947,0.0852545784246945,0.32964832331775423,-0.9355431134413337,-0.6851850450469169,0.12637370341565798,2.9865853526922574
1781551199053120256,1.5268385410308838,0.23677031695842743,-0.3407802879810333,-0.001615270972251892,0.09524788707494736,0.6317796111106873,-0.7692739367485046,-0.04011787474155426,0.045741140842437744,-0.16206151247024536,-0.09378135436013792,0.08386956220983618,0.32913358963395634,-0.9358643802462102,-0.6838468993958221,0.12318834957424002,2.9857344630001075
1781551199063154432,1.5368726253509521,0.4908592998981476,-0.4266397953033447,0.07825053483247757,0.09247986227273941,0.6287819147109985,-0.7720627188682556,-0.049465328454971313,-0.09853899478912354,-0.18602138757705688,-0.0930573745536624,0.081902819277042,0.32750659988513714,-0.9366812332815563,-0.6799856868478753,0.11921483653703409,2.985760063766041
1781551199073188352,1.5469064712524414,0.5192771553993225,-0.3344340920448303,0.10962283611297607,0.09010571241378784,0.6247578263282776,-0.7756021618843079,-0.05769604444503784,-0.09753614664077759,-0.30168360471725464,-0.09220230816854129,0.08002756718268848,0.3252606885026732,-0.9377099130180669,-0.6748213028843496,0.11565670596347287,2.986183656660993
1781551199083222272,1.5569405555725098,0.7611901760101318,-0.3149466812610626,0.07880793511867523,0.08813323080539703,0.6198812127113342,-0.7797305583953857,-0.08541718125343323,0.009345412254333496,-0.24996298551559448,-0.09148231836518343,0.07835722079291588,0.322482358628332,-0.9388802607641308,-0.6685913518563188,0.11255266756131319,2.986459936532091
1781551199093256448,1.5669746398925781,1.178175926208496,-0.1655191034078598,0.05810851231217384,0.08661194890737534,0.611943244934082,-0.7861449122428894,-0.09811708331108093,0.09669017791748047,-0.1407044529914856,-0.0910962620072492,0.07682190160787064,0.31784578046548717,-0.9406241794502214,-0.6585152416570758,0.10973046547360145,2.9860292889389446
1781551199103289344,1.577007532119751,1.3689501285552979,0.0337977297604084,-0.02922559343278408,0.08622655272483826,0.6019366979598999,-0.7938748002052307,-0.06944189220666885,0.24724537134170532,-0.2876986861228943,-0.09145609661807601,0.0759983501984963,0.3119084182208817,-0.942641537106167,-0.6459241709913047,0.10819068221706922,2.9843965736310634
1781551199113323520,1.5870416164398193,1.7152585983276367,0.0737367570400238,-0.07601067423820496,0.08634362369775772,0.5895087718963623,-0.8031339645385742,-0.023263782262802124,0.3088524341583252,-0.13473224639892578,-0.09236955557067554,0.0754507640265794,0.3045327454834199,-0.9450052105103206,-0.6304505681487644,0.10709701908914437,2.9816756947764325
1781551199123357184,1.5970754623413086,1.671325445175171,0.1004549190402031,-0.1842644363641739,0.08632002770900726,0.5757898688316345,-0.8130282163619995,0.05638016760349274,0.12359672784805298,-0.02414524555206299,-0.09377317520993339,0.07489141549017694,0.2964408317685725,-0.9474812584712113,-0.6135699138969959,0.10577475908780017,2.9778292847000034
1781551199133391360,1.607109546661377,1.570008397102356,0.09772863984107971,-0.24842238426208496,0.0857754796743393,0.5625683069229126,-0.8222891688346863,0.0850924476981163,-0.0509258508682251,0.034706830978393555,-0.09553789480427043,0.07419869599282405,0.28870392190134775,-0.9497458659278757,-0.5974890111950424,0.10393713283654347,2.973115651756107
1781551199143425536,1.6171436309814453,1.3699655532836914,0.27057313919067383,-0.30313172936439514,0.08571163564920425,0.5507606267929077,-0.8302507400512695,0.09862979501485825,-0.06901013851165771,-0.02541637420654297,-0.09769619471985774,0.07396370994509448,0.28178717533078984,-0.9516200690448047,-0.5832752400729483,0.10287141988001691,2.967889932441661
1781551199153459200,1.6271774768829346,1.6516391038894653,0.22490151226520538,-0.20463629066944122,0.08641758561134338,0.538565993309021,-0.8381399512290955,0.12996728718280792,-0.0007395148277282715,-0.032679080963134766,-0.0998256115052639,0.07407447988266422,0.27466886783396244,-0.9534698260889238,-0.5687342917917544,0.10274333198943512,2.963013238882606
1781551199163494400,1.6372125148773193,1.612210750579834,0.24504193663597107,-0.18175362050533295,0.08726449310779572,0.5244536995887756,-0.8469552397727966,0.13636831939220428,-0.14356380701065063,0.06578153371810913,-0.10166939334519637,0.07401882702841991,0.26654003347427024,-0.9555840242486283,-0.5520733596048154,0.10267088769669121,2.9587069932128083
1781551199173528320,1.6472463607788086,1.2121986150741577,0.431839257478714,-0.14016729593276978,0.08931303024291992,0.5125807523727417,-0.8539813756942749,0.04755830764770508,-0.2261885404586792,0.0801013708114624,-0.1034082786189063,0.07470332880927087,0.25967042093010306,-0.9572342867651782,-0.5381877266535512,0.10420546032646162,2.9551330589841447
1781551199183562240,1.657280445098877,0.9617695808410645,0.47048118710517883,-0.18425139784812927,0.09249372035264969,0.5033865571022034,-0.8590965867042542,-0.02073163539171219,-0.10739046335220337,0.02183157205581665,-0.10515416180684684,0.07615378700082233,0.25426818535365175,-0.9583793794155545,-0.5275136571534003,0.10725081270677798,2.9520140039887695
1781551199193595136,1.6673133373260498,0.8067709803581238,0.3002914488315582,-0.23047535121440887,0.09481628984212875,0.4959828853607178,-0.8631401062011719,0.029710687696933746,-0.03235983848571777,0.017772674560546875,-0.10707103632596396,0.07731851072227033,0.24990356285182344,-0.9592215013855414,-0.5189663919125835,0.10941171535241138,2.948339578103541
1781551199203629312,1.6773474216461182,0.9776039719581604,0.016968416050076485,0.04732084646821022,0.09577393531799316,0.48867765069007874,-0.867191731929779,0.046132802963256836,0.054001182317733765,0.26425594091415405,-0.10811881449488764,0.07754613711308632,0.2457452620631407,-0.9601594207627617,-0.5105734590044206,0.10999570522682174,2.9460610068103064
1781551199213663232,1.6873815059661865,0.5889747142791748,0.27373242378234863,0.04191462695598602,0.09678258746862411,0.48045024275779724,-0.8716654777526855,-0.1433219015598297,-0.008770555257797241,0.25884199142456055,-0.10812197897006771,0.077463934262352,0.24117751193927753,-0.9613233034976583,-0.5011680056721193,0.1105788787576058,2.9459212000199364
1781551199223697152,1.6974153518676758,-0.11724022030830383,0.6043269038200378,-0.10849618166685104,0.10083311796188354,0.47965335845947266,-0.8716452121734619,-0.44124144315719604,-0.15685367584228516,-0.17716765403747559,-0.10909005294486936,0.07974111302112481,0.24045532216268664,-0.9612085864835878,-0.5002596253683558,0.11516946039620152,2.9450285269803134
1781551199233731328,1.7074494361877441,0.3864511251449585,0.14928357303142548,-0.0925036296248436,0.10380250215530396,0.4785845875740051,-0.8718841075897217,-0.34576112031936646,0.08945435285568237,0.08773493766784668,-0.11006036429076221,0.08143880563236544,0.23963655537510212,-0.9611601722094865,-0.49904200029141155,0.11849762152109224,2.943800205912736
1781551199243765248,1.7174835205078125,0.5972496867179871,-0.09588968753814697,0.07187119871377945,0.10377815365791321,0.47412988543510437,-0.8743174076080322,0.10432121902704239,0.24849584698677063,0.15983986854553223,-0.1104060896368637,0.08117930733340815,0.2371733672218757,-0.9617532234263068,-0.49397550732400825,0.11814343287270898,2.9428205920206887
1781551199253799168,1.7275173664093018,0.6624318957328796,-0.04932964965701103,0.21404698491096497,0.1036081314086914,0.4682094156742096,-0.8775222301483154,0.11605740338563919,0.05191689729690552,0.19122767448425293,-0.10977761058154964,0.08049868778627557,0.23400605880884823,-0.962657816041197,-0.487263279354541,0.11752485477038867,2.9437463812486113
1781551199263833344,1.7375514507293701,0.1655733734369278,0.2836799919605255,0.14302633702754974,0.1055460199713707,0.46429243683815,-0.8793705105781555,-0.2252359688282013,-0.3182353377342224,0.1867436170578003,-0.10924080383450502,0.08108112503244623,0.23182015170331868,-0.9631986486022478,-0.482835565844925,0.11945309125213806,2.9451731580428913
1781551199273867008,1.7475852966308594,0.4472779929637909,0.12192732095718384,0.17220179736614227,0.10836876183748245,0.46184560656547546,-0.8803151845932007,-0.21176232397556305,-0.11699700355529785,0.008275449275970459,-0.10884426800390541,0.08226351087394344,0.2303803779590926,-0.9634887190133998,-0.4800749040299721,0.12248598543870481,2.94662319389044
1781551199283900160,1.7576184272766113,0.5336547493934631,-0.1402781903743744,0.19974607229232788,0.10896196216344833,0.4570370018482208,-0.8827482461929321,0.17025861144065857,0.08532139658927917,0.15417158603668213,-0.10819428679335959,0.08206575202433092,0.22779614945084445,-0.9641929895756814,-0.4746610461559904,0.12281369892526385,2.947845520213282
1781551199293934336,1.7676525115966797,0.5624019503593445,-0.15472784638404846,0.2791181206703186,0.10853186994791031,0.4517708718776703,-0.8855077028274536,0.2823830544948578,-0.07805261015892029,0.2087804079055786,-0.10701050103376264,0.08118866681276447,0.22506565963291014,-0.9650401380364151,-0.4687493261268053,0.12195631403068294,2.9498734521404297
1781551199303968256,1.777686357498169,0.37578970193862915,0.07301370799541473,0.2428533285856247,0.1093420535326004,0.4474683701992035,-0.887590229511261,0.0811639353632927,-0.2598157823085785,0.11548024415969849,-0.10591872982831568,0.0810487814955806,0.22279136152343637,-0.9656999478657828,-0.46393248746780197,0.1225722393854213,2.952092513194517
1781551199314002176,1.7877204418182373,0.4490162432193756,0.06994907557964325,0.2106168270111084,0.11118251085281372,0.4435162842273712,-0.8893434405326843,-0.046897225081920624,-0.24184086918830872,0.039657771587371826,-0.10505828502913936,0.08152297001623139,0.22064061638666707,-0.9662476608752845,-0.45951814246617023,0.12437113386793024,2.9541118823305967
1781551199324036352,1.7977545261383057,0.38243216276168823,-0.009319113567471504,0.11780140548944473,0.11214862763881683,0.4395999312400818,-0.8911647200584412,0.04416240006685257,-0.11223790049552917,-0.06688880920410156,-0.10445612457178334,0.0816123499072132,0.21853387762192494,-0.9667840238127344,-0.4551532227487318,0.1251869098380552,2.9553655327595827
1781551199334070272,1.807788372039795,0.515444815158844,-0.024723103269934654,0.07858289778232574,0.1123313307762146,0.43538251519203186,-0.8932098150253296,0.0900002121925354,-0.0017582476139068604,-0.1956878900527954,-0.10416504607102137,0.08135109133061498,0.21628014466728349,-0.9673440981262794,-0.450463143117825,0.12510463125565044,2.955755686805245
1781551199344104192,1.8178224563598633,0.3404991030693054,0.06737673282623291,0.046438805758953094,0.11274395883083344,0.4314425587654114,-0.8950676918029785,-0.017498597502708435,0.003554999828338623,-0.22164678573608398,-0.10406330345904823,0.081271446873516,0.21415209491341816,-0.9678350441307292,-0.4460912026080659,0.1253014736497364,2.955828325561409
1781551199354138112,1.8278563022613525,0.36662817001342773,0.08661167323589325,-0.009385042823851109,0.11361156404018402,0.42824018001556396,-0.8964946866035461,-0.12368237227201462,-0.009889990091323853,-0.14493286609649658,-0.10417730067046442,0.08152442130424252,0.2123826990981953,-0.9681913348146619,-0.4425444356420247,0.12605668504380269,2.9556104868411905
1781551199364171264,1.8378894329071045,0.2454298585653305,-0.029108265414834023,-0.10795076191425323,0.1136869564652443,0.4255593717098236,-0.897760808467865,-0.1074155941605568,-0.04360136389732361,-0.00697857141494751,-0.10464102972452932,0.08148190442255034,0.2109034935639004,-0.968468250832485,-0.43957993808055434,0.12596343507519317,2.954507304132163
1781551199374205440,1.8479235172271729,0.35675397515296936,-0.2102089375257492,-0.13832783699035645,0.11202351003885269,0.42301109433174133,-0.8991731405258179,-0.012017406523227692,0.03334876894950867,0.07530534267425537,-0.10523550113077597,0.08058275553452682,0.20957061660698267,-0.9687683602898834,-0.43676580428955236,0.12394638348869493,2.9527249049711943
1781551199384239104,1.857957363128662,0.279638409614563,-0.20231346786022186,-0.1282576322555542,0.10943669825792313,0.42017698287963867,-0.9008190631866455,0.016310982406139374,0.11185121536254883,0.06204342842102051,-0.1058053997439521,0.07918453680778877,0.20813527222130596,-0.9691309457878242,-0.43364033149350883,0.1208933512659138,2.9507645947207037
1781551199394273280,1.8679914474487305,0.203106090426445,-0.13165926933288574,-0.07285775989294052,0.1075042262673378,0.41808244585990906,-0.9020254611968994,-0.0995696485042572,0.04761579632759094,0.020036935806274414,-0.10623463211044878,0.07814243205235376,0.20707735485032078,-0.9693951974260329,-0.4313334057308097,0.11862139463702542,2.949302567670495
1781551199404307200,1.8780252933502197,0.04094674810767174,-0.08704067021608353,-0.010793855413794518,0.1063702404499054,0.41703131794929504,-0.9026462435722351,-0.1790631115436554,-0.08298590779304504,0.004697024822235107,-0.1063682618753808,0.07751790548876493,0.20656195938871044,-0.9695406176691362,-0.4301765888306846,0.11730167774948809,2.948701425157511
1781551199414341120,1.888059377670288,0.04295716807246208,-0.18907928466796875,0.005353156477212906,0.10520267486572266,0.4167186915874481,-0.9029274582862854,-0.09760379791259766,-0.12996026873588562,0.0221748948097229,-0.10625133306490325,0.07687321162605135,0.20646256375878758,-0.969625940209062,-0.42983264588069575,0.11598990119551651,2.948650393504445
1781551199424375296,1.8980934619903564,-0.025422953069210052,-0.31168031692504883,0.012249145656824112,0.10287211090326309,0.41659390926361084,-0.903253436088562,0.02905537188053131,-0.12483063340187073,0.10445588827133179,-0.10594502780371526,0.07560507471613497,0.2065360535581124,-0.9697434119087559,-0.429695406465534,0.11340200411976967,2.9487260109550784
1781551199434409216,1.9081273078918457,0.05367080122232437,-0.2689412534236908,-0.005988980643451214,0.10017497092485428,0.4165237545967102,-0.9035889506340027,0.07916156947612762,-0.0768783688545227,0.027169883251190186,-0.10560489910318321,0.07414592029412412,0.20665894569030463,-0.9698670420909489,-0.4296182183574315,0.11041256157896552,2.9487879397758827
1781551199444443136,1.918161392211914,0.10562294721603394,-0.2071995735168457,-0.07907064259052277,0.09789645671844482,0.4157874584197998,-0.9041776061058044,0.042957425117492676,-0.026901990175247192,-0.023022711277008057,-0.10558698080586834,0.07292561542781265,0.20638087418348774,-0.9700207666089976,-0.42880848307334885,0.10785114632500532,2.948252371007986
1781551199454476288,1.928194522857666,0.1719718873500824,-0.2133665233850479,-0.1713787317276001,0.09548942744731903,0.41471925377845764,-0.9049252867698669,0.03990180790424347,-0.04283204674720764,-0.029599249362945557,-0.10604114753741756,0.07171813468177503,0.20589773558669655,-0.970163895945249,-0.42763424241748316,0.1051328301583522,2.94670063354497
1781551199464510208,1.9382283687591553,0.10639606416225433,-0.20284411311149597,-0.19442519545555115,0.09275855869054794,0.4134436547756195,-0.9057925939559937,0.06430015712976456,-0.089911550283432,-0.06307947635650635,-0.1067809886285912,0.0703917801024464,0.2053015189751834,-0.970306160454493,-0.42623287498782614,0.10205021930770576,2.9444794612992946
1781551199474544384,1.9482624530792236,-0.12458069622516632,-0.09550978988409042,-0.2121666520833969,0.09055756777524948,0.41368862986564636,-0.9059034585952759,0.028491497039794922,-0.09392544627189636,-0.07374131679534912,-0.10760687552976714,0.06945716163518692,0.20548475345657055,-0.9702434756258925,-0.4265019151487852,0.0996328339410711,2.9422731480430473
1781551199484578048,1.958296298980713,-0.35800251364707947,-0.08589977025985718,-0.22622281312942505,0.08885306864976883,0.41604650020599365,-0.9049919247627258,-0.044617846608161926,-0.07457008957862854,-0.0743781328201294,-0.10851318402444603,0.06893772674611347,0.2067646412243787,-0.9699075781485682,-0.4290933190791427,0.09786739881959662,2.9401010065924047
1781551199494612224,1.9683303833007812,-0.5852585434913635,-0.07791708409786224,-0.2353140413761139,0.08706348389387131,0.4205609858036041,-0.9030771851539612,-0.07485645264387131,-0.052717357873916626,-0.07755941152572632,-0.10937904752793835,0.06851674385041075,0.20920531686084878,-0.9693166568984417,-0.43406356189275735,0.0961105503193074,2.9380688588084074
1781551199504646400,1.9783644676208496,-0.527467668056488,-0.0328686498105526,-0.250429630279541,0.08554575592279434,0.4260149598121643,-0.9006626605987549,-0.08624766021966934,0.006815880537033081,-0.12616229057312012,-0.11028539282271796,0.06831410647769512,0.21213642417224868,-0.9685909681780623,-0.4400834278682012,0.09469682460769673,2.9360410653722013
1781551199514680064,1.9883983135223389,-0.2764698266983032,0.006491674110293388,-0.3009314239025116,0.08422348648309708,0.42990535497665405,-0.8989370465278625,-0.10438034683465958,0.04934269189834595,-0.09903353452682495,-0.11147017774861542,0.06817012693395091,0.21420624479394035,-0.9680098056641454,-0.44438795694586125,0.09341959209538009,2.9334150139577386
1781551199524714240,1.9984323978424072,0.17366032302379608,0.019544892013072968,-0.34655749797821045,0.0829475000500679,0.43079325556755066,-0.8986305594444275,-0.0897834375500679,0.07576802372932434,-0.05600506067276001,-0.11304684221029616,0.06792899439527236,0.21464008414679908,-0.9677477975158871,-0.445371592585705,0.09204352501643207,2.929874418127146
1781551199534748416,2.0084664821624756,0.6285764575004578,-0.0395052433013916,-0.3694886267185211,0.08129364252090454,0.42722687125205994,-0.9004824161529541,-0.04406219720840454,0.09149566292762756,-0.0580289363861084,-0.1149261658329152,0.0672419708630449,0.21269066975526113,-0.9680047033854265,-0.44142340498779953,0.09003381500181583,2.9254629304695463
1781551199544781312,2.0184993743896484,0.532392144203186,0.012632790952920914,-0.4394450783729553,0.07936903089284897,0.4220593273639679,-0.9030871987342834,-0.02704664319753647,-0.0058758556842803955,-0.10271114110946655,-0.11705049596388618,0.06634747589968064,0.20989143250647876,-0.9684228370179617,-0.43571568093432433,0.08766110528589119,2.9204427957194636
1781551199554815232,2.028533458709717,0.3888581097126007,0.12107484042644501,-0.5811675786972046,0.07786694169044495,0.4183231294155121,-0.9049544334411621,-0.06208934634923935,-0.15495643019676208,-0.1305832862854004,-0.11974499086853527,0.06588719163474593,0.20780198377533737,-0.9685754686410144,-0.43159836677721264,0.0858337381324644,2.9144078165417886
1781551199564849152,2.038567304611206,0.3290586769580841,0.09811706095933914,-0.6658960580825806,0.0763002410531044,0.41560643911361694,-0.9063385725021362,-0.0532136932015419,-0.18942540884017944,-0.11841118335723877,-0.12304024029081816,0.06558887436440135,0.2062251812250038,-0.9685196667984465,-0.42860944104911947,0.08398710441870506,2.907157228455785
1781551199574883328,2.0486013889312744,0.3120355010032654,0.006974371615797281,-0.734308660030365,0.0738600417971611,0.4130913019180298,-0.9076895117759705,0.0217972993850708,-0.11723867058753967,-0.036158084869384766,-0.12658909925156794,0.06490560719620032,0.20479869531283681,-0.9684109972177523,-0.4258459224203284,0.08119259880300135,2.899192953677155
1781551199584917248,2.0586354732513428,0.09763692319393158,-0.040792353451251984,-0.8338683247566223,0.0704381987452507,0.41172993183135986,-0.9085796475410461,0.0814630463719368,-0.06413471698760986,0.04670220613479614,-0.1304545189083707,0.06387220991904605,0.20403559685077605,-0.9681278669942445,-0.4243515490592491,0.07737086465823394,2.8903827582169352
1781551199594951168,2.068669319152832,-0.1598670482635498,-0.12260212749242783,-0.8748972415924072,0.06616061925888062,0.4125154912471771,-0.9085448384284973,0.10041956603527069,-0.05588710308074951,0.1617492437362671,-0.13453380973545678,0.06261927050829348,0.20446615723897393,-0.9675603194948285,-0.4252137412672307,0.07269211477350375,2.8809741061069647
1781551199604985344,2.0787034034729004,-0.5270271897315979,-0.17486053705215454,-0.9310619831085205,0.06101610139012337,0.4161781072616577,-0.9072335958480835,0.12585827708244324,-0.10941541194915771,0.2242501974105835,-0.13864594846401657,0.061178693954990024,0.2064954456646976,-0.9666405808852306,-0.4292380677732652,0.06715398849716513,2.871317620348576
1781551199615019264,2.0887374877929688,-0.9228682518005371,-0.26310986280441284,-0.8844299912452698,0.055200304836034775,0.42331287264823914,-0.904300332069397,0.14821460843086243,-0.15297290682792664,0.24553263187408447,-0.14267321238494968,0.059696464557701306,0.21044276671645568,-0.9652949860896874,-0.4370988631438477,0.060966355522662795,2.8616564094214247
1781551199625053184,2.098771333694458,-1.0952688455581665,-0.3142300248146057,-0.7387034296989441,0.04896818473935127,0.43300050497055054,-0.900062620639801,0.14040863513946533,-0.13421818614006042,0.264411985874176,-0.1459595263572445,0.05809883827086501,0.21585464808116328,-0.9637048745013124,-0.44781887229352685,0.054351724770984815,2.8533444360150155
1781551199635086336,2.10880446434021,-1.4734677076339722,-0.24029414355754852,-0.7190918922424316,0.04333781450986862,0.44447454810142517,-0.8947425484657288,0.09594441950321198,-0.24594244360923767,0.09458690881729126,-0.14879086801403432,0.05690480993371713,0.22223989453923787,-0.9618901271315868,-0.46058760246886227,0.04839824939334825,2.846002729926384
1781551199645120256,2.118838310241699,-2.1957080364227295,-0.2866579294204712,-0.7162340879440308,0.037799712270498276,0.4613718092441559,-0.8864012956619263,0.03806699439883232,-0.3413766920566559,0.04686272144317627,-0.15145214750746255,0.056264340498262636,0.23158944796563966,-0.9593034263100344,-0.4795407926214198,0.04261819395609723,2.838843650545731
1781551199655154176,2.1288723945617676,-2.2202253341674805,-0.45720192790031433,-0.6479146480560303,0.03132321685552597,0.4815226197242737,-0.8758737444877625,0.04492495581507683,-0.14901834726333618,0.13920992612838745,-0.15367971838698302,0.05541498996482824,0.24288329836084133,-0.9562005756128997,-0.5023911750292627,0.03574701610403418,2.8320541407646487
1781551199665188352,2.138906478881836,-1.8508656024932861,-0.5916545987129211,-0.598021924495697,0.023609299212694168,0.4995298981666565,-0.8659748435020447,0.05382905527949333,0.060559213161468506,0.15155839920043945,-0.15541214883352988,0.05366654649853913,0.25324388658177577,-0.9533280866105243,-0.5230560200741804,0.027256509277890834,2.8256902808563953
1781551199675222272,2.148940324783325,-1.2432390451431274,-0.6381667852401733,-0.6057783961296082,0.015200376510620117,0.5129606127738953,-0.8582775592803955,0.004788633435964584,0.12903767824172974,0.08294796943664551,-0.15708574626003954,0.051141367434971816,0.2612389425011296,-0.9510324964140571,-0.5386301845209348,0.01770847585157376,2.8190888589282
1781551199685256192,2.1589744091033936,-1.0406990051269531,-0.43876662850379944,-0.604067325592041,0.007315398193895817,0.5227328538894653,-0.8524651527404785,-0.09154391288757324,0.13247954845428467,-0.07305669784545898,-0.15891456178633329,0.04859127147253744,0.2672195967069384,-0.9491989560963812,-0.5500535087581645,0.008581252288100734,2.812251623632514
1781551199695290368,2.169008493423462,-0.43228232860565186,-0.30196067690849304,-0.6520830392837524,0.0008343535591848195,0.5293723344802856,-0.848389208316803,-0.12494933605194092,0.17852866649627686,-0.2798914313316345,-0.16124678495880035,0.046608323736802376,0.2713541103454257,-0.9477310301844731,-0.5578605289280648,0.0009834558158546207,2.804822230322517
1781551199705324288,2.179042339324951,0.1325051635503769,-0.17783662676811218,-0.7323091626167297,-0.004872429184615612,0.5303246974945068,-0.8477806448936462,-0.07638061791658401,0.16883301734924316,-0.38166576623916626,-0.1641701287705788,0.04462052149216323,0.27224746663099425,-0.9470684257630222,-0.5589834811037172,-0.0057472125111965025,2.796663297166044
1781551199715358208,2.1890764236450195,0.742280125617981,-0.18469387292861938,-0.8188954591751099,-0.010350480675697327,0.5267122983932495,-0.8499805927276611,0.018178239464759827,0.1851102113723755,-0.38654589653015137,-0.16773585530922425,0.042457949331641515,0.2705679609503667,-0.9470242579232399,-0.5547282093675646,-0.01217671225353885,2.7875242149184865
1781551199725391104,2.1991093158721924,1.020071029663086,-0.3182061016559601,-0.8240806460380554,-0.016991090029478073,0.5185774564743042,-0.854861855506897,0.13089795410633087,0.1842271089553833,-0.3594173192977905,-0.17149552154740647,0.039265607943026096,0.2665094572713748,-0.9476393113190581,-0.5451863435097052,-0.019873214192083474,2.777969714474963
1781551199735425280,2.2091434001922607,0.9353779554367065,-0.07858899980783463,-0.7532230019569397,-0.022906677797436714,0.5100997686386108,-0.8598101735115051,0.13692034780979156,0.13411104679107666,-0.24121826887130737,-0.17514259068589141,0.03635763853014071,0.26224614678007496,-0.9482774927381025,-0.5353007929559996,-0.02663525311101252,2.7690134212670667
1781551199745459200,2.219177484512329,0.8700617551803589,0.07585010677576065,-0.746259331703186,-0.02653191238641739,0.5019477605819702,-0.8644909262657166,0.09603570401668549,0.08429491519927979,-0.09940677881240845,-0.17888045169756453,0.034655459645033956,0.25797972550137627,-0.9488136757570327,-0.5258493096586005,-0.030681161902834653,2.7606473053326654
1781551199755493120,2.2292113304138184,0.4746238887310028,-0.039417095482349396,-0.7731199860572815,-0.03006981499493122,0.49567335844039917,-0.8679883480072021,0.19413231313228607,-0.04062575101852417,0.06206488609313965,-0.18267352870328604,0.03319601793779916,0.25476236580980216,-0.9490123970567066,-0.5186099594981095,-0.034629261779169834,2.7520810501449775
1781551199765527296,2.2392454147338867,0.030403826385736465,-0.29900872707366943,-0.7470758557319641,-0.03528828173875809,0.49330708384513855,-0.8691391348838806,0.38991779088974,-0.07793232798576355,0.13731235265731812,-0.18614568314417962,0.031218160159522838,0.2538815822548183,-0.9486407578614714,-0.5158875516656874,-0.04057913161218149,2.743362105891314
1781551199775561216,2.249279499053955,-0.3779410719871521,-0.39265692234039307,-0.728853702545166,-0.042050912976264954,0.4944528043270111,-0.8681867122650146,0.5117927193641663,-0.11061796545982361,0.23067450523376465,-0.1891333486774389,0.028723956260630904,0.25511090881492904,-0.9477985330946608,-0.5172051849924718,-0.04839751120994392,2.7348620315257857
1781551199785595136,2.2593133449554443,-0.8220641613006592,-0.4609837830066681,-0.7420073747634888,-0.049387115985155106,0.4994272291660309,-0.8649470210075378,0.5105687379837036,-0.22058811783790588,0.25100964307785034,-0.19200266230347884,0.026356288508399425,0.25851855507594923,-0.9463658893630338,-0.5229375351510748,-0.0570365006508258,2.725991573896547
1781551199795629312,2.2693474292755127,-1.1747604608535767,-0.5694783329963684,-0.7684639692306519,-0.05768957734107971,0.5075541734695435,-0.8596863746643066,0.4688834249973297,-0.28369247913360596,0.26978158950805664,-0.19478946116432388,0.023866340167837043,0.2637939018758626,-0.9444046493768566,-0.5323437998634534,-0.06700492264141236,2.716510002552935
1781551199805663232,2.279381513595581,-1.603153109550476,-0.6114300489425659,-0.8493042588233948,-0.06684493273496628,0.5187941789627075,-0.8522818088531494,0.4644889831542969,-0.2264663577079773,0.1364005208015442,-0.19767482777530682,0.02137645847511985,0.2709282779245222,-0.9418415208453773,-0.5454398617596962,-0.07827031870417206,2.705934143130321
1781551199815696128,2.289414405822754,-1.3143415451049805,-0.8589667081832886,-0.9222021698951721,-0.07777218520641327,0.531026303768158,-0.8437787890434265,0.47157102823257446,-0.05533355474472046,0.10616886615753174,-0.2006755324528451,0.018190974020115488,0.2788901343420134,-0.9389455959778712,-0.5598112789623539,-0.0919116037291497,2.6940423624499004
1781551199825730304,2.2994484901428223,-1.058119297027588,-0.9427201747894287,-0.9913162589073181,-0.0906018316745758,0.5399228930473328,-0.8368240594863892,0.4626416265964508,0.06873488426208496,-0.013029396533966064,-0.2038257246370181,0.013724535053414874,0.28530615546861904,-0.9364117895301686,-0.5703455338722061,-0.10784858206317557,2.6812999384257346
1781551199835764224,2.3094823360443115,-0.9569231867790222,-0.989617645740509,-1.011215329170227,-0.10414005070924759,0.547390878200531,-0.8303722739219666,0.338240385055542,0.079562246799469,-0.10755497217178345,-0.20708291319863498,0.008791357555664495,0.29109548688796716,-0.9339715544181724,-0.5792433716302244,-0.12476229699797838,2.6679832190231934
1781551199845798144,2.31951642036438,-0.7450548410415649,-0.9301426410675049,-1.0091359615325928,-0.11782679706811905,0.553400456905365,-0.8245391249656677,0.22279201447963715,0.05399090051651001,-0.0950469970703125,-0.21035251146857148,0.0036352687803532383,0.29617091312432353,-0.9316766902562224,-0.5864413125176081,-0.1419392396222194,2.6545618768125387
1781551199855832320,2.3295505046844482,-0.5288117527961731,-0.6946715116500854,-1.0456253290176392,-0.1301628053188324,0.5572476387023926,-0.8200809359550476,0.1466575562953949,0.05110502243041992,-0.09402734041213989,-0.21392845893000598,-0.000987066430440403,0.2999309328524854,-0.9296639838474324,-0.5910673960817244,-0.1574064411412477,2.6412276126108245
1781551199865866240,2.3395843505859375,-0.33701786398887634,-0.7329544425010681,-1.042348027229309,-0.14174485206604004,0.5594490170478821,-0.8166548609733582,0.16689135134220123,0.052794575691223145,-0.09376072883605957,-0.21774780644467742,-0.005339347029772099,0.30272768059317995,-0.9278541988817495,-0.5937209306269186,-0.17185551603210356,2.6278893011338598
1781551199875900160,2.349618434906006,-0.40477216243743896,-0.7470279335975647,-1.099670648574829,-0.15384948253631592,0.5606849789619446,-0.8136109113693237,0.2924908399581909,0.03788679838180542,-0.06817924976348877,-0.22155139780847385,-0.01007072893978007,0.3051116568132052,-0.9261320283647053,-0.5952128184174292,-0.18688800340245443,2.614500730765861
1781551199885934336,2.359652519226074,-0.3941732943058014,-0.8763089776039124,-1.1257225275039673,-0.16671498119831085,0.5622311234474182,-0.8100014328956604,0.35941821336746216,0.002206742763519287,-0.0278586745262146,-0.22557220495787803,-0.01505621335693312,0.30785158312459426,-0.9241850212956257,-0.5970812426884946,-0.20298596872262806,2.600138856640639
1781551199895968256,2.3696863651275635,-0.5393158197402954,-0.8651739954948425,-1.1021291017532349,-0.18022070825099945,0.5639806389808655,-0.8058823347091675,0.34274208545684814,-0.011276781558990479,0.08012855052947998,-0.2293145600010736,-0.020411687975459034,0.31087327816036486,-0.9221475284915976,-0.5991983427667268,-0.2200115477124231,2.5859212998489873
1781551199906001408,2.3797194957733154,-0.6948521733283997,-0.7189217209815979,-1.1655844449996948,-0.19299572706222534,0.5669590830802917,-0.8008183240890503,0.28894299268722534,0.016109704971313477,-0.07450205087661743,-0.2334502120171948,-0.025070802186331086,0.314582724030603,-0.9197337183382461,-0.6028096050213858,-0.23648854939376557,2.5706145793773643
1781551199916035072,2.3897533416748047,-0.6790233850479126,-0.7981675267219543,-1.0555641651153564,-0.2053832709789276,0.5701265931129456,-0.7954705357551575,0.2047881782054901,-0.0026369690895080566,-0.004959762096405029,-0.2374795486408697,-0.029515055105683908,0.31842360093529165,-0.917245219120619,-0.6066599535311757,-0.2526727845477601,2.5554427824560575
1781551199926069248,2.399787425994873,-1.0341479778289795,-0.6945748329162598,-1.0609261989593506,-0.21744857728481293,0.5746865272521973,-0.7889559864997864,0.20470748841762543,-0.054972171783447266,0.08537322282791138,-0.24121807110397042,-0.03366754575133233,0.3230921124846509,-0.914489904791149,-0.612221031232485,-0.2689384411828113,2.5403337364118457
1781551199936103424,2.4098215103149414,-0.9487179517745972,-0.7873934507369995,-1.008427619934082,-0.22914545238018036,0.5803848505020142,-0.7814382910728455,0.21333734691143036,-0.01558077335357666,0.06535857915878296,-0.24503727582410542,-0.037402646367131656,0.32845379056341606,-0.9114142477815359,-0.6192011934234973,-0.2852393395800141,2.5245024963699234
1781551199946137088,2.4198553562164307,-0.9028918743133545,-0.827997088432312,-0.9309508800506592,-0.24116526544094086,0.5850902795791626,-0.7742795348167419,0.25218212604522705,0.007255911827087402,0.14634978771209717,-0.24818966706672888,-0.04165509196756057,0.33335431577254193,-0.9085932800388361,-0.6249913468729188,-0.3019467349518899,2.5100642885988367
1781551199956171264,2.429889440536499,-1.0984824895858765,-0.9111378788948059,-0.9579212665557861,-0.2534129321575165,0.5906437635421753,-0.7661082148551941,0.279001921415329,-0.016211390495300293,0.08414715528488159,-0.25126971912351653,-0.04589342010827231,0.33888003331142164,-0.9054930151254711,-0.6318563857628663,-0.3194503763511939,2.495003331593353
1781551199966205440,2.4399235248565674,-0.7477118968963623,-0.9706430435180664,-0.9239236116409302,-0.26631343364715576,0.5953401327133179,-0.7580549120903015,0.22366511821746826,0.03492414951324463,0.040922343730926514,-0.25416475247757203,-0.05063653877283439,0.34410535161847927,-0.9024564676387185,-0.6376889359753427,-0.3378427674778876,2.480062592301208
1781551199976239104,2.4499573707580566,-0.7599549889564514,-0.7842474579811096,-0.8972765803337097,-0.2783988416194916,0.5983598232269287,-0.7513052225112915,0.13054117560386658,0.03971695899963379,-0.127036452293396,-0.25696681244728836,-0.055239740206831554,0.3482756781037678,-0.8997892170395648,-0.6414524805727226,-0.35486672644509515,2.46623387195073
1781551199986273280,2.459991455078125,-0.7787563800811768,-0.5946027040481567,-0.8322246074676514,-0.2888176739215851,0.6017109751701355,-0.7446665167808533,0.013884812593460083,-0.019389808177947998,-0.05896806716918945,-0.2598234069951113,-0.05890273860493242,0.3524162253672362,-0.8971203992766396,-0.6456415148971703,-0.3699870965061547,2.452742614801202
1781551199996307200,2.4700253009796143,-0.8047565221786499,-0.455134779214859,-0.8515434265136719,-0.29775476455688477,0.6052051782608032,-0.7382876873016357,-0.007115811109542847,-0.0462910532951355,-0.025750339031219482,-0.26291076028973653,-0.06167485090680266,0.35644405266632856,-0.8944392947477379,-0.6500235712805416,-0.38335185995009696,2.4392239381797176
1781551200006340352,2.480058431625366,-0.5775729417800903,-0.5630698204040527,-0.7779232859611511,-0.30644312500953674,0.6076876521110535,-0.7326720356941223,0.07466211915016174,0.004113495349884033,-0.048669517040252686,-0.2659090840981838,-0.06449661498646939,0.359866869218724,-0.8919800119008138,-0.6531456859171856,-0.39614300324045526,2.426399346342301
1781551200016374272,2.4900925159454346,-0.5668763518333435,-0.6392818689346313,-0.7481169104576111,-0.31547412276268005,0.6096146106719971,-0.7272180914878845,0.16970691084861755,0.01889491081237793,0.05274909734725952,-0.2683878147601706,-0.06777728351647035,0.3630388338651198,-0.8897061986139952,-0.6555743218937928,-0.4093086724715526,2.4147068948001804
1781551200026408192,2.500126361846924,-0.5645948052406311,-0.6854403018951416,-0.6732410788536072,-0.324701726436615,0.611308217048645,-0.7217139601707458,0.183222234249115,-0.00867760181427002,0.12080758810043335,-0.27052033448699386,-0.07132720863875948,0.3661358313468106,-0.8875109723967245,-0.6577125916512268,-0.42277378557666706,2.4036714534409405
1781551200036442368,2.510160446166992,-0.475305438041687,-0.6387884020805359,-0.6337642073631287,-0.33355605602264404,0.6130130290985107,-0.7162090539932251,0.13468825817108154,-0.003973722457885742,0.0566631555557251,-0.2723492525567808,-0.07480229017771382,0.3691884225008154,-0.8853984613118845,-0.6598685811313689,-0.43585313971286227,2.3933846238597116
1781551200046476032,2.5201942920684814,-0.5367136597633362,-0.5312211513519287,-0.595997154712677,-0.341526597738266,0.6144368648529053,-0.7112151384353638,0.07048472762107849,-0.026485204696655273,-0.09254157543182373,-0.27421240161897026,-0.0778523803782781,0.37192935770886104,-0.8834111181081608,-0.6616720275698497,-0.447683769484149,2.3835841551097046
1781551200056510208,2.53022837638855,-0.6616513133049011,-0.5099414587020874,-0.4929911494255066,-0.34853851795196533,0.6168301105499268,-0.7057206034660339,0.027920842170715332,-0.09215664863586426,-0.011854469776153564,-0.2759158998027792,-0.08030733298560688,0.3750872252828129,-0.8813233492399789,-0.6647090068397398,-0.45873646488440645,2.3739593865724875
1781551200066544384,2.540262460708618,-0.5237467288970947,-0.5114269852638245,-0.4166676104068756,-0.35502690076828003,0.6194950342178345,-0.7001298666000366,0.03433293104171753,-0.017215371131896973,0.06386888027191162,-0.2771620004405746,-0.0826350709896601,0.37829421484198084,-0.8793442203540502,-0.668099304175074,-0.46930129746471655,2.365371037238135
1781551200076578048,2.5502963066101074,-0.5394402146339417,-0.38609862327575684,-0.31332603096961975,-0.36040961742401123,0.6218656301498413,-0.6952611804008484,0.02094733715057373,0.03299582004547119,-0.048909902572631836,-0.2781762437613657,-0.08454210995002538,0.3810800802349209,-0.8776381347148491,-0.6711227208704146,-0.4782433764937206,2.358073797021141
1781551200086612224,2.560330390930176,-0.6882719993591309,-0.4169374704360962,-0.23306527733802795,-0.36482930183410645,0.6250179409980774,-0.6901102066040039,0.007056474685668945,-0.10043603181838989,0.049836158752441406,-0.27881994207987154,-0.08597676515183754,0.38412613301358406,-0.8759649035911703,-0.6751545259944581,-0.48630692366767136,2.351564027915563
1781551200096645376,2.5703635215759277,-0.7042685747146606,-0.4800420105457306,-0.24546095728874207,-0.36946842074394226,0.6290926337242126,-0.6839119791984558,0.03821536898612976,-0.12085288763046265,0.12153404951095581,-0.2793015155899911,-0.08742962942267671,0.3878144877213032,-0.8740404334876519,-0.6803853692182856,-0.49530979134380676,2.3444838438960525
1781551200106679296,2.580397367477417,-0.3976295590400696,-0.5076065063476562,-0.20286129415035248,-0.3742406368255615,0.6322566270828247,-0.678377091884613,0.04635977745056152,0.04338729381561279,0.08955574035644531,-0.2795729489550284,-0.08920167921190607,0.39096611544153426,-0.8723689274281184,-0.6844624466310003,-0.5041248447770089,2.338339516595924
1781551200116713216,2.5904314517974854,-0.2270471453666687,-0.5025455951690674,-0.23554706573486328,-0.3790148198604584,0.6333086490631104,-0.6747354865074158,0.04712092876434326,0.10285162925720215,-0.04641008377075195,-0.2796387321732683,-0.0914409190998713,0.3927732259220936,-0.8713036211757905,-0.6858210341944735,-0.5117994389711426,2.334201320066938
1781551200126747136,2.6004652976989746,-0.14027737081050873,-0.5898815989494324,-0.19773630797863007,-0.3841659426689148,0.6337622404098511,-0.6713881492614746,-0.0010268986225128174,-0.014972567558288574,-0.02990579605102539,-0.27963763998620383,-0.09401308531294092,0.39429362862800843,-0.8703430548107365,-0.6864073300909096,-0.5197248256602528,2.3303876127944743
1781551200136781312,2.610499382019043,0.05487348139286041,-0.37371477484703064,-0.14577537775039673,-0.38858357071876526,0.6332399845123291,-0.6693354249000549,-0.08114296197891235,-0.03970366716384888,0.004433751106262207,-0.27940730503082434,-0.09648669384187074,0.3949969646775772,-0.8698271562969752,-0.6857323645686302,-0.5259962354331726,2.328345272263272
1781551200146815232,2.6205334663391113,-0.16915935277938843,-0.1257326751947403,-0.05725057050585747,-0.3908483684062958,0.633238673210144,-0.6680167317390442,-0.16310670971870422,-0.12579238414764404,-0.07996910810470581,-0.27939947046890923,-0.09765895962325746,0.3955431232196288,-0.8694506032763845,-0.6857306747209628,-0.529382393806301,2.3268249749778653
1781551200156849152,2.6305673122406006,-0.33891668915748596,-0.03778790682554245,-0.04082233086228371,-0.39152589440345764,0.6347859501838684,-0.666148841381073,-0.14735350012779236,-0.21454370021820068,-0.041645348072052,-0.27959493971324845,-0.09764703741688192,0.3967248974809564,-0.8688503915613739,-0.6877314426142969,-0.5313600032112835,2.3246554164487216
1781551200166884352,2.6406025886535645,-0.25866422057151794,-0.2264491617679596,0.02596336044371128,-0.39246997237205505,0.6367625594139099,-0.6637023091316223,-0.012803465127944946,-0.1674937605857849,0.04457700252532959,-0.2795363889859954,-0.09781221061619426,0.39822305776883044,-0.8681651004872457,-0.6902922836372687,-0.5340233073528498,2.322519361042426
1781551200176918528,2.650636672973633,-0.29072093963623047,-0.30378177762031555,0.045950114727020264,-0.39397475123405457,0.6387542486190796,-0.6608909964561462,0.08026930689811707,-0.07640683650970459,0.13939142227172852,-0.27894995621681,-0.09850732039105364,0.3998134571082862,-0.8675439109495484,-0.6928780598260004,-0.5375665792356508,2.3211729732896056
1781551200186952704,2.660670757293701,-0.32127484679222107,-0.456322580575943,0.09392483532428741,-0.3960712254047394,0.6410173773765564,-0.6574376821517944,0.03562811017036438,-0.0074877142906188965,0.09960687160491943,-0.2780857883482591,-0.09959165967273174,0.40169970767014146,-0.8668258859389146,-0.6958230375212878,-0.5422166570838796,2.3197916738782354
1781551200196985600,2.670703649520874,-0.14283479750156403,-0.4089314937591553,0.1942378580570221,-0.3980847895145416,0.6431022882461548,-0.6541773676872253,-0.08162102103233337,0.07200086116790771,0.07147467136383057,-0.27666235906216974,-0.1009292928525592,0.4033913719063282,-0.8663409836705087,-0.6985425489412183,-0.5466659944251996,2.3198708247473765
1781551200207019520,2.6807377338409424,-0.1442476063966751,-0.2568138837814331,0.2881627380847931,-0.39863118529319763,0.6450808048248291,-0.6518926620483398,-0.18698588013648987,0.0576016902923584,0.042349815368652344,-0.2750224575033066,-0.101631376790125,0.4046291350289725,-0.8662038216820603,-0.7011290012208626,-0.5488311765079826,2.3215583667265545
1781551200217053440,2.6907715797424316,-0.009235462173819542,-0.3229052722454071,0.3356647491455078,-0.39846864342689514,0.6466720104217529,-0.6504138708114624,-0.19619694352149963,-0.009480178356170654,0.06696349382400513,-0.2731093517292714,-0.10216467480789596,0.4054077661687748,-0.8663823486714439,-0.7032132796673524,-0.5496608170824125,2.3247084271928617
1781551200227087616,2.7008056640625,-0.15254175662994385,-0.36041295528411865,0.37786865234375,-0.39839568734169006,0.648750901222229,-0.6483850479125977,-0.11045441031455994,-0.050743699073791504,-0.019125938415527344,-0.2709080745364908,-0.10279952639652823,0.406496904906897,-0.8664879918851182,-0.7059419345224788,-0.5509717708906025,2.32802342119569
1781551200237121536,2.7108397483825684,-0.06937842071056366,-0.396624892950058,0.4497596323490143,-0.39821022748947144,0.6509718894958496,-0.6462695598602295,-0.07070764899253845,-0.07592910528182983,0.010420501232147217,-0.2683892500022079,-0.10350649489013397,0.4076170203282246,-0.866661484198035,-0.7088640409100903,-0.5522225720724143,2.332014176367403
1781551200247155456,2.7208735942840576,-0.18120348453521729,-0.36391595005989075,0.5137130618095398,-0.3974846303462982,0.6537629961967468,-0.6438943147659302,-0.09580150246620178,-0.14936846494674683,0.052906155586242676,-0.26556997483370065,-0.10398333840338617,0.4089502441014324,-0.8668446867066011,-0.7125467158528888,-0.5530527960753537,2.3365701111521404
1781551200257189632,2.730907678604126,-0.10218404233455658,-0.3380354642868042,0.4504898488521576,-0.3965105712413788,0.6567246913909912,-0.6414764523506165,-0.13531923294067383,-0.10014510154724121,0.08125001192092896,-0.26280136591254594,-0.10428600938812832,0.41034887607796694,-0.8669911564152597,-0.7164673304099762,-0.5536379019566531,2.341021177015009
1781551200267223552,2.7409417629241943,0.29206445813179016,-0.2908115088939667,0.47844693064689636,-0.39566126465797424,0.6578689813613892,-0.6408281326293945,-0.17762669920921326,-0.04762423038482666,-0.0011091232299804688,-0.26010096788024467,-0.10492909086617913,0.4105798621909314,-0.8676183854980191,-0.7179856802125096,-0.5531312551372396,2.346846083653407
1781551200277257472,2.7509756088256836,0.3004094660282135,-0.3575122654438019,0.585359513759613,-0.3941061794757843,0.6576278209686279,-0.6420327425003052,-0.2534463107585907,-0.09563136100769043,0.037113308906555176,-0.2569514054385941,-0.10563835003396013,0.4096634633917908,-0.8689030519160512,-0.7176655476219144,-0.5505347472568454,2.355462253637023
1781551200287291648,2.761009693145752,0.7010972499847412,0.2361079603433609,0.6114236116409302,-0.39025628566741943,0.6575244069099426,-0.6444856524467468,-0.31851446628570557,-0.10405761003494263,-0.13337689638137817,-0.2541205502410468,-0.10495936497383,0.4083389449123267,-0.8704399477797012,-0.7175282670274951,-0.5444767483225118,2.3648786486141815
1781551200297324544,2.771042585372925,-0.48119527101516724,0.18520909547805786,0.6200855374336243,-0.3846891224384308,0.6587991118431091,-0.6465277075767517,-0.3449251353740692,-0.19169706106185913,-0.08848810195922852,-0.25170094024209355,-0.10295854875567714,0.4075974374973835,-0.8717285113718004,-0.7192213622195823,-0.5367407679306875,2.3733589598739604
1781551200307358464,2.781076669692993,0.7703772783279419,-0.16142289340496063,0.6063718795776367,-0.3807452321052551,0.6600261926651001,-0.6476098299026489,-0.13103455305099487,-0.012611031532287598,-0.012653231620788574,-0.24891785997451882,-0.10198792214247743,0.4071775329869495,-0.8728372632810412,-0.7208536578222753,-0.531492616673439,2.3815251865696005
1781551200317392640,2.7911107540130615,-0.4703058898448944,0.049101851880550385,0.460467129945755,-0.3775489032268524,0.6613882184028625,-0.6480913162231445,-0.040435075759887695,-0.029659152030944824,-0.2069806456565857,-0.2465808460579883,-0.10118094772202695,0.4070832270784975,-0.8736380436843642,-0.7226681071937259,-0.5274935980137945,2.38800752236516
1781551200327426560,2.801144599914551,1.0077210664749146,-0.07392314076423645,0.5856943130493164,-0.3739258944988251,0.6613749861717224,-0.6502019762992859,-0.20233753323554993,0.08903700113296509,0.2531225085258484,-0.24408339603647086,-0.10043193154596233,0.405970992419905,-0.8749424675569032,-0.7226504670660514,-0.5219033423550562,2.396327330881744
1781551200337460480,2.811178684234619,0.04982226714491844,0.13933028280735016,0.45067548751831055,-0.3703642189502716,0.660681426525116,-0.6529397964477539,-0.2880677878856659,-0.027792632579803467,-0.2423238754272461,-0.24163124961553717,-0.09979035460393736,0.40444033609362096,-0.8764041517507164,-0.7217261830018502,-0.5159720309719814,2.405039106089415
1781551200347494656,2.8212127685546875,0.6695904731750488,0.11026348173618317,0.6938329935073853,-0.36662188172340393,0.659001350402832,-0.6567385792732239,-0.44958600401878357,-0.10588550567626953,-0.009780526161193848,-0.23901518470573502,-0.0992656400956131,0.4022151517840909,-0.8782033154679778,-0.7194902708777143,-0.5091522760710331,2.415013732554809
1781551200357528576,2.8312466144561768,0.20785264670848846,0.9323522448539734,0.8802950382232666,-0.3574289381504059,0.6593694686889648,-0.6614200472831726,-0.570473313331604,-0.31626033782958984,-0.10980486869812012,-0.23638413919005113,-0.09555729210397565,0.40019840931386236,-0.8802458021335166,-0.7199797970766866,-0.4954399976101648,2.4270677245739805
1781551200367562496,2.841280698776245,-0.36899179220199585,0.7532498836517334,0.6262563467025757,-0.3463451564311981,0.6633131504058838,-0.6633707284927368,-0.4828784465789795,-0.2300245761871338,-0.0025075674057006836,-0.23499385248576282,-0.0897665091435052,0.4003206201137382,-0.8811716095092315,-0.7252374760846583,-0.48117006390103506,2.434732200069286
1781551200377596416,2.8513145446777344,0.5374231338500977,0.4002717137336731,0.6218786835670471,-0.3385862410068512,0.6637551784515381,-0.6669246554374695,-0.0901094377040863,0.008760690689086914,-0.24362832307815552,-0.23313296129591213,-0.08645721906167862,0.3988268101580654,-0.8826728685727508,-0.7258282424827193,-0.4697750138674512,2.443896879123498
1781551200387630336,2.8613486289978027,-0.22919444739818573,0.20750680565834045,0.4571102261543274,-0.3329155743122101,0.6656367182731628,-0.6679034233093262,0.10612419247627258,-0.22610729932785034,0.04897642135620117,-0.23146867313151392,-0.08394940506380087,0.39874901584272054,-0.8833878357270166,-0.7283467242428072,-0.46240577097304464,2.4500797658146
1781551200397663488,2.8713817596435547,0.37674951553344727,-0.059640072286129,0.23642019927501678,-0.3300951421260834,0.6651009321212769,-0.669834315776825,-0.07322517037391663,-0.042649149894714355,0.20770657062530518,-0.22988894899178114,-0.08325319513166082,0.39768298542519087,-0.8843462119602973,-0.7276289339600532,-0.45787199861889954,2.455954734700461
1781551200407697408,2.881415605545044,0.9070059657096863,0.37471911311149597,0.2447497695684433,-0.3276711106300354,0.6634392738342285,-0.6726663112640381,-0.3365439772605896,0.20187139511108398,-0.4718801975250244,-0.22908538720673183,-0.08257531354197693,0.39604062204296475,-0.8853547095301328,-0.7254059808387551,-0.4532929280782616,2.4606156373366064
1781551200417731584,2.8914496898651123,0.7710702419281006,0.8090492486953735,0.52662193775177,-0.3210279047489166,0.6572919487953186,-0.6818419694900513,-0.6499956846237183,0.1805834174156189,-0.02819526195526123,-0.22799968688808728,-0.08043649783104936,0.39065201613319356,-0.8882213908525981,-0.717219807380147,-0.4400360162527804,2.471802252008972
1781551200427765504,2.9014837741851807,1.2176005840301514,0.8547970056533813,0.6480482220649719,-0.3112201392650604,0.6534816026687622,-0.6900027990341187,-0.6455821990966797,-0.1395808458328247,0.34307897090911865,-0.22670376175872353,-0.07639188634852973,0.38621611300519226,-0.8908461513926764,-0.7121749402009111,-0.4237199837023555,2.4835482915109153
1781551200437799424,2.91151762008667,-0.07317610085010529,0.5721451044082642,0.38554948568344116,-0.30259591341018677,0.6496514678001404,-0.697415828704834,-0.38107413053512573,-0.3047569990158081,-0.16513299942016602,-0.22540032079080155,-0.07297172245688055,0.3820565731879212,-0.8932540213481144,-0.7071258572871867,-0.4093693654237619,2.4943066832313576
1781551200447833600,2.9215517044067383,0.30697575211524963,0.37488847970962524,0.3658735156059265,-0.29724279046058655,0.6515001058578491,-0.6979930996894836,-0.14515528082847595,-0.2601732015609741,-0.08992499113082886,-0.22471985347372875,-0.07020479048480659,0.38219724499864194,-0.8935869420497444,-0.7095601129181431,-0.4025933213205878,2.497945912204953
1781551200457867264,2.9315855503082275,-0.7934415936470032,0.2743130028247833,0.1921139806509018,-0.2930329740047455,0.6527169942855835,-0.6986359357833862,-0.09174790978431702,-0.1266244649887085,0.05335700511932373,-0.224053901377384,-0.06811837151902295,0.38215430039506754,-0.8939339322709675,-0.7111652628286779,-0.3971483449028488,2.5012539014434947
1781551200467901440,2.941619634628296,0.5630901455879211,0.14310996234416962,0.11654119938611984,-0.29030969738960266,0.6555862426757812,-0.6970847249031067,-0.22549843788146973,-0.07761377096176147,0.21620392799377441,-0.22404860782988195,-0.06629539878693318,0.38348737315393655,-0.8935013953048584,-0.7149586888693883,-0.39461719879665597,2.5011505052564265
1781551200477935616,2.9516537189483643,-0.7430217862129211,0.6274089217185974,0.24270978569984436,-0.2867901921272278,0.6552115082740784,-0.6988914608955383,-0.3510729670524597,-0.15115267038345337,-0.12415236234664917,-0.22391102694976422,-0.06456748108385275,0.38260333867488694,-0.894041162928563,-0.7144625877771518,-0.3893969212608477,2.5038513814568644
1781551200487969280,2.9616875648498535,0.2426641583442688,0.4771898090839386,0.4032405912876129,-0.2803786098957062,0.6583796739578247,-0.6985156536102295,-0.4700638949871063,-0.1796351671218872,0.3236377239227295,-0.22366453934734787,-0.06087766827324344,0.38345282640999817,-0.8939978528793923,-0.7186639792353015,-0.38170580530895115,2.5063912072223404
1781551200498002432,2.9717206954956055,-0.9413825869560242,0.04838293045759201,0.16908270120620728,-0.27643805742263794,0.6617648005485535,-0.6968854069709778,-0.3109795153141022,-0.06000399589538574,-0.10011160373687744,-0.22303099669674187,-0.058612468200857096,0.3848660397692335,-0.8937000426710408,-0.7231702918809849,-0.37763797958279516,2.5081662732510557
1781551200508036352,2.9817545413970947,0.014113003388047218,-0.24866843223571777,0.18802496790885925,-0.2761080265045166,0.6650359034538269,-0.6938960552215576,-0.1270139217376709,0.11641252040863037,-0.21978503465652466,-0.2221486832135396,-0.05835698854536586,0.3868416214980034,-0.8930835000861655,-0.7275418642976033,-0.3787031889713922,2.508333708738467
1781551200518070528,2.991788625717163,-1.1147959232330322,-0.3551172614097595,0.18654265999794006,-0.27698811888694763,0.6698903441429138,-0.68885737657547,-0.21950235962867737,-0.07911580801010132,0.24731379747390747,-0.22094175781081477,-0.05865433192458678,0.39003970615683387,-0.8919716516097079,-0.7340610786081608,-0.38231361191364066,2.5074422512843038
1781551200528104448,3.0018227100372314,-0.06189148128032684,-0.1874350607395172,0.1300138682126999,-0.27795305848121643,0.6739975810050964,-0.6844482421875,-0.44427594542503357,-0.09160012006759644,0.3322296142578125,-0.2196977888579001,-0.059124556478541,0.39278514281107935,-0.8910426954275132,-0.739606938647649,-0.385752198530374,2.506985240325066
1781551200538138368,3.0118565559387207,-0.5592831373214722,0.14595302939414978,-0.04697662964463234,-0.27772247791290283,0.67622309923172,-0.6823434829711914,-0.5496701002120972,-0.06318598985671997,-0.6020650863647461,-0.21971920257271157,-0.058678776954478616,0.39418912538295287,-0.890446680620644,-0.7426236725467616,-0.3865371856134712,2.5056390268537703
1781551200548172544,3.021890640258789,0.3714948296546936,0.08895978331565857,0.0564163401722908,-0.2767917513847351,0.6770288348197937,-0.6819225549697876,-0.5372951626777649,0.1359136700630188,0.0659099817276001,-0.2200117007019842,-0.05794637868665216,0.39456423098456583,-0.8902563017790942,-0.7437179356496124,-0.3855814349912932,2.5050597880287886
1781551200558206464,3.0319247245788574,-0.1943129003047943,-0.002185703720897436,-0.155845046043396,-0.27669966220855713,0.6758231520652771,-0.6831547617912292,-0.30551469326019287,0.0372963547706604,-0.09377706050872803,-0.22020819769668865,-0.05798284227227481,0.39377736982304956,-0.8905536707383123,-0.7420809543366744,-0.38483694657925166,2.505464296063945
1781551200568240384,3.0419585704803467,0.31273192167282104,-0.05693123862147331,-0.21587537229061127,-0.27841824293136597,0.6752775311470032,-0.6829959750175476,-0.20398837327957153,-0.06756573915481567,-0.23597979545593262,-0.22103572404197622,-0.0585957531048018,0.3937874259757757,-0.8903039928700603,-0.7413409112765226,-0.38707738528428465,2.5028482783734227
1781551200578274560,3.051992654800415,0.09590506553649902,-0.052437953650951385,-0.2078952044248581,-0.2801801562309265,0.6724582314491272,-0.6850540041923523,-0.239915668964386,-0.1761050820350647,-0.1203506588935852,-0.22177921043847829,-0.059593550312275916,0.39232843986260957,-0.8906968745025889,-0.7375250954722503,-0.3882321757153287,2.501876681750434
1781551200588308480,3.0620267391204834,-0.3937322795391083,-0.11365204304456711,-0.2959073781967163,-0.28238722681999207,0.673427402973175,-0.6831932067871094,-0.36296796798706055,-0.2997702360153198,0.18604665994644165,-0.22282142383464093,-0.06015135113261034,0.3934275154781556,-0.8899141415733295,-0.7388353539172655,-0.3919484099976346,2.4974787979435593
1781551200598341376,3.0720596313476562,-0.4687439501285553,0.017049375921487808,-0.36349013447761536,-0.28517043590545654,0.6749376058578491,-0.6805416941642761,-0.44479477405548096,-0.14799058437347412,-0.18426543474197388,-0.22425700728510284,-0.060755572533690086,0.39501632899599853,-0.8888079952435706,-0.7408801550270073,-0.3968069559868246,2.4914395372563622
1781551200608375552,3.0820937156677246,-0.42310428619384766,0.2373463213443756,-0.3672979176044464,-0.2867148220539093,0.6776922941207886,-0.677146852016449,-0.4875619113445282,-0.011676609516143799,-0.18947607278823853,-0.22638123571228283,-0.06021480859323572,0.39724142499302983,-0.8873133887389089,-0.7446197773170433,-0.40052823136055343,2.4837788500854234
1781551200618409472,3.092127561569214,0.014552159234881401,0.2572450637817383,-0.41911983489990234,-0.2875667214393616,0.6773097515106201,-0.6771683096885681,-0.4302982687950134,0.14695477485656738,0.08173984289169312,-0.22863208924669806,-0.05970943393995114,0.39730419996251376,-0.8867421362016186,-0.7440997388603161,-0.4015831609597939,2.4784019989048933
1781551200628443392,3.1021616458892822,0.1359046846628189,0.07327762991189957,-0.5158080458641052,-0.2896709740161896,0.6758953332901001,-0.6776845455169678,-0.2632007300853729,0.0637134313583374,-0.10936379432678223,-0.2311014201811055,-0.05991577730172598,0.3969481495801534,-0.8862474530610556,-0.7421788617396959,-0.40393739898096853,2.47241013601366
1781551200638477568,3.1121957302093506,0.34150391817092896,0.08479592949151993,-0.49232882261276245,-0.29267188906669617,0.6722835302352905,-0.6799838542938232,-0.15390706062316895,0.025210976600646973,-0.23876309394836426,-0.23339216294891343,-0.06100542495068217,0.3953307554774213,-0.886295744888936,-0.7372891467962891,-0.40644408029857826,2.4677412230634084
1781551200648511488,3.12222957611084,0.3030177652835846,-0.10909364372491837,-0.47339800000190735,-0.29578882455825806,0.6688966751098633,-0.681972324848175,-0.15040865540504456,-0.11875629425048828,-0.10824984312057495,-0.23550432499673382,-0.06220610988851434,0.3938835476861821,-0.8862978229701297,-0.7327235054507568,-0.40923802430117845,2.4632503125249823
1781551200658545408,3.132263660430908,0.16535525023937225,-0.32280218601226807,-0.4876728057861328,-0.30074042081832886,0.6653935313224792,-0.6832324266433716,-0.17135125398635864,-0.18878531455993652,0.14540588855743408,-0.23706939644867311,-0.06462716284959072,0.3926921536750389,-0.8862359453800043,-0.7280209051329536,-0.4146517511404716,2.4588904636823594
1781551200668579584,3.1422977447509766,-0.07443097233772278,-0.09603110700845718,-0.4854898154735565,-0.3054920434951782,0.6638752818107605,-0.6826010346412659,-0.2584117352962494,-0.18522238731384277,-0.01400846242904663,-0.2388310693313359,-0.06655472043244563,0.39277214900359947,-0.8855846100015192,-0.7259888482731447,-0.42080728008760254,2.4528714930528364
1781551200678613504,3.152331590652466,0.15506000816822052,-0.006314401980489492,-0.529801070690155,-0.3090997338294983,0.6620625257492065,-0.6827375292778015,-0.3787054419517517,0.005540013313293457,0.0031415820121765137,-0.24097589907459377,-0.067761693233134,0.392478771692915,-0.8850419650587391,-0.7235674460589262,-0.42512670187709545,2.4469369890450117
1781551200688647424,3.162365674972534,0.22817176580429077,-0.03664487972855568,-0.6719323992729187,-0.31330007314682007,0.6586782336235046,-0.6840950846672058,-0.34179025888442993,0.07194310426712036,-0.04071265459060669,-0.24350144298472806,-0.06935367774123236,0.391334294110865,-0.8847341947808564,-0.7190607158109199,-0.42946808101634953,2.4408561664248962
1781551200698681600,3.1723997592926025,0.3236607313156128,0.11013603955507278,-0.7167288661003113,-0.3178023397922516,0.6547413468360901,-0.6857955455780029,-0.2897416055202484,0.029096543788909912,-0.19304966926574707,-0.2466326259206752,-0.07092619806461327,0.3899637125249531,-0.8843473606184542,-0.7138403482580217,-0.4339469412518863,2.433606907420367
1781551200708714496,3.1824326515197754,0.48513856530189514,0.3900585174560547,-0.5903086066246033,-0.3203454911708832,0.6496344804763794,-0.6894590854644775,-0.2888464033603668,-0.035147786140441895,-0.20685744285583496,-0.24988635887021857,-0.07162116703023495,0.38748016218344083,-0.8844695487146064,-0.7071035769458618,-0.43495595191679093,2.428148431625442
1781551200718748672,3.1924667358398438,0.3915782570838928,0.3182246685028076,-0.5182272791862488,-0.3213363289833069,0.6446850299835205,-0.6936311721801758,-0.21353000402450562,-0.154832124710083,0.010235786437988281,-0.25288829749400527,-0.07161160281688018,0.3847807108964019,-0.8847955621026593,-0.7006112257814745,-0.4338317158124293,2.4241079831316386
1781551200728782336,3.202500581741333,0.16671639680862427,0.18636943399906158,-0.5434263348579407,-0.32307472825050354,0.6410244703292847,-0.6962115168571472,-0.04742392897605896,-0.19641387462615967,0.11297476291656494,-0.25560725072765755,-0.07191773673596974,0.38304320028627437,-0.8847433455308512,-0.695832282187534,-0.43447365288362094,2.41934190447178
1781551200738816512,3.2125346660614014,0.132721945643425,0.1386551707983017,-0.5509034395217896,-0.32548171281814575,0.6382219195365906,-0.6976636052131653,0.04645949602127075,-0.15027636289596558,0.0010693073272705078,-0.25833677001804095,-0.07243311663394447,0.38199693062921325,-0.8843607688653334,-0.6921864156278776,-0.4365157883792957,2.413555531055359
1781551200748850688,3.2225687503814697,0.23095689713954926,0.0008589550852775574,-0.6314816474914551,-0.328744113445282,0.6349830627441406,-0.699087917804718,0.013436496257781982,-0.048007965087890625,0.028052091598510742,-0.2610135604771099,-0.07348833783840084,0.3808615327830059,-0.8839773649936161,-0.6879865696763315,-0.43956330618211414,2.4076535663521903
1781551200758884352,3.232602596282959,0.3803679347038269,0.05590769276022911,-0.706871747970581,-0.3329801559448242,0.6307146549224854,-0.7009446024894714,-0.08550739288330078,0.08173346519470215,-0.025266945362091064,-0.2639099378408492,-0.07512503025733505,0.37932035121165564,-0.8836424551611108,-0.6824737887919399,-0.4434849639048409,2.4013494849025
1781551200768918528,3.2426366806030273,0.5256889462471008,0.2341083288192749,-0.6824638843536377,-0.336397260427475,0.6248931884765625,-0.7045177817344666,-0.22932234406471252,0.1154632568359375,-0.18818235397338867,-0.26713861817805445,-0.07646471493536,0.3766885252348892,-0.8836830914217954,-0.6749947325586395,-0.4454745805568456,2.395827325245643
1781551200778952704,3.2526707649230957,0.44097191095352173,0.293389230966568,-0.6514676213264465,-0.33860209584236145,0.619253396987915,-0.7084305286407471,-0.29639238119125366,0.012490928173065186,0.0014145970344543457,-0.27040414216494285,-0.07715079901632223,0.37394183900774625,-0.8837967855587815,-0.6677914942395545,-0.4458614101561551,2.3908128957218002
1781551200788986368,3.262704610824585,0.633195161819458,0.36482614278793335,-0.6759841442108154,-0.3404875695705414,0.6132655739784241,-0.712722659111023,-0.23246470093727112,-0.006438791751861572,0.03491199016571045,-0.27375005415219966,-0.077714298554361,0.3709435938710556,-0.8839809520907936,-0.6601882481549294,-0.4456717834964705,2.3859993791926275
1781551200799020544,3.2727386951446533,0.8898698091506958,0.47047919034957886,-0.6593899726867676,-0.3415414094924927,0.6053935289382935,-0.7189215421676636,-0.12229526042938232,0.021315455436706543,-0.21355831623077393,-0.27725996963937793,-0.0781244224725357,0.36665487431246047,-0.8846399009011909,-0.6502601837880299,-0.443509236667164,2.3824432690708606
1781551200809053440,3.282771587371826,0.926686704158783,0.24564208090305328,-0.5569989085197449,-0.342552125453949,0.5964555144309998,-0.7258779406547546,-0.006218045949935913,-0.08997052907943726,0.036348581314086914,-0.28026663032182464,-0.0789264022950229,0.36170656550104696,-0.8856576963214465,-0.639077848149042,-0.44092758197423454,2.380600539993844
1781551200819087616,3.2928056716918945,0.5821729898452759,0.13630372285842896,-0.5480208396911621,-0.3446447253227234,0.5890088677406311,-0.7309504151344299,0.09755915403366089,-0.2011762261390686,0.2264338731765747,-0.2826900569622288,-0.08027857890718361,0.3578828460427191,-0.8863190718494288,-0.6298318400932217,-0.4405905529700151,2.3784601141429964
1781551200829121536,3.302839756011963,0.5445649027824402,0.07138678431510925,-0.6041756868362427,-0.3470979630947113,0.5830360651016235,-0.734569251537323,0.1042848527431488,-0.01144188642501831,-0.1023905873298645,-0.28530517611486567,-0.08149560849664308,0.35506879713526585,-0.8865018767713688,-0.6224606533245924,-0.44142215440298604,2.3747634334096457
1781551200839155456,3.312873601913452,0.7503883838653564,-0.1383734941482544,-0.4985262453556061,-0.3507480323314667,0.5762597918510437,-0.7381737232208252,0.07717323303222656,0.24167227745056152,0.05743342638015747,-0.28744533560070573,-0.08365655406560407,0.3520152421635144,-0.8868269055768919,-0.614144795834684,-0.44357603285107056,2.3719380446972345
1781551200849189632,3.3229076862335205,0.9291735887527466,0.05425133928656578,-0.3918866217136383,-0.35379740595817566,0.5683355927467346,-0.7428472638130188,0.03749799728393555,0.2346276044845581,0.2867315411567688,-0.2889485266355174,-0.08596881033376423,0.34811742711576504,-0.8876555434482366,-0.6044815890239704,-0.4444857461082052,2.371507769615308
1781551200859223552,3.332941770553589,0.609279453754425,0.1925709992647171,-0.25442197918891907,-0.35457637906074524,0.5610595941543579,-0.7479890584945679,-0.07581299543380737,-0.059335410594940186,0.0009950995445251465,-0.29031089497051404,-0.08708043312762509,0.3441256434764518,-0.8886585572870881,-0.5956653013966403,-0.4426643870200967,2.372157504369549
1781551200869257472,3.342975616455078,-0.19313551485538483,0.19401229918003082,-0.1127399280667305,-0.35421115159988403,0.5587685704231262,-0.7498747110366821,-0.08650842308998108,-0.3668588399887085,0.1099974513053894,-0.2913635866183928,-0.08688268633471226,0.34280320719761054,-0.8888445077712223,-0.592900223927996,-0.4412924776686609,2.3712569076921017
1781551200879291648,3.3530097007751465,-0.3203584551811218,0.2560558319091797,-0.005731718614697456,-0.3528923988342285,0.560629665851593,-0.7491070032119751,-0.016080349683761597,-0.2930821180343628,0.2800976634025574,-0.29211759220688777,-0.08560546152563747,0.34368328836175344,-0.8883809489136328,-0.5951459889799262,-0.4402484600737581,2.369202075782374
1781551200889325312,3.3630435466766357,-0.6033070683479309,0.2709522247314453,-0.0663902685046196,-0.3508647084236145,0.5641586184501648,-0.7474082708358765,0.05804857611656189,-0.17724144458770752,-0.059064507484436035,-0.2929641165976901,-0.08364255350792725,0.34539801566492595,-0.8876239806844006,-0.5994138301599066,-0.43890362808799843,2.3663695692238162
1781551200899359488,3.373077630996704,-0.22141003608703613,-0.06336770206689835,-0.02181161940097809,-0.3504939079284668,0.5670767426490784,-0.7453710436820984,0.13687089085578918,-0.046065449714660645,-0.02640324831008911,-0.29354831980143103,-0.0827179207158895,0.3470911099399492,-0.8868567431049053,-0.6029524479932671,-0.4395471730154857,2.3635967459635254
1781551200909393664,3.3831117153167725,-0.24610872566699982,0.08308112621307373,-0.03435004875063896,-0.35063835978507996,0.5686729550361633,-0.7440858483314514,0.10541439056396484,-0.0005730390548706055,0.1669985055923462,-0.293689821759183,-0.08245525859068782,0.34807786904570803,-0.8864475141815481,-0.6048916844032954,-0.44037093770544705,2.362292113850809
1781551200919426560,3.3931446075439453,0.4257623255252838,0.14615994691848755,-0.15729275345802307,-0.3502950966358185,0.5679577589035034,-0.7447934746742249,-0.02978608012199402,0.2889453172683716,-0.32579368352890015,-0.2944043259505252,-0.08212770801079035,0.3476468147360861,-0.8864100589055627,-0.6040224430913159,-0.43962718250033805,2.361269105671331
1781551200929460480,3.4031786918640137,1.077077031135559,0.158549502491951,-0.057708367705345154,-0.3500015139579773,0.5615053772926331,-0.7498071193695068,-0.0984390377998352,0.28381627798080444,-0.23142457008361816,-0.2947957977253618,-0.08296027935355331,0.34382267903848773,-0.8876931158045056,-0.5962039132630251,-0.43672737727490574,2.3641753556909406
1781551200939494656,3.413212776184082,0.8167367577552795,0.46757248044013977,-0.09530607610940933,-0.3479917347431183,0.5538641810417175,-0.7563968300819397,-0.15264910459518433,-0.1192328929901123,0.12527811527252197,-0.29524332919389146,-0.08311256412798732,0.3389600085112386,-0.8893985163155506,-0.5869981937043206,-0.43119242918247486,2.368384520454313
1781551200949528576,3.4232466220855713,0.944758415222168,0.4768317639827728,-0.03869233280420303,-0.3446481227874756,0.5471814870834351,-0.7627647519111633,-0.15844941139221191,-0.13575875759124756,-0.061118245124816895,-0.296112784145246,-0.08226789763154867,0.3344392383782378,-0.8908981894300924,-0.5789931556484826,-0.4243835325069361,2.3716508920641086
