time,seconds_elapsed,rotationRateX,rotationRateY,rotationRateZ,gravityX,gravityY,gravityZ,accelerationX,accelerationY,accelerationZ,quaternionW,quaternionX,quaternionY,quaternionZ,pitch,roll,yaw
1781551335800413440,0.3880593776702881,-0.04602756351232529,-0.007826944813132286,0.019183218479156494,0.0018607957754284143,-0.3864750862121582,-0.9222979545593262,0.007035082206130028,-0.02600046992301941,0.008830606937408447,-0.8696263132926443,-0.17439889141235346,-0.09184795229525429,-0.4526576839194859,0.3968066511271513,0.002017561895233471,0.9594509834497676
1781551335810447360,0.39809346199035645,-0.06780077517032623,-0.014682319946587086,0.015829233452677727,0.0017245399067178369,-0.3860031068325043,-0.9224958419799805,0.003936476539820433,-0.02488553524017334,0.013972342014312744,-0.8696365908438807,-0.1742014956975707,-0.09168373158564773,-0.4527473058107057,0.3962949655741608,0.001869426098064514,0.9596338109823195
1781551335820481280,0.4081273078918457,-0.07816579937934875,-0.00905559305101633,0.024783046916127205,0.0015259220963343978,-0.3853868544101715,-0.9227538108825684,-0.0004883274668827653,-0.021153032779693604,0.021066248416900635,-0.8696545361807533,-0.17394966902765127,-0.09145814678566265,-0.45285530930130297,0.39562702188989274,0.0016536595652551958,0.9598562406304181
1781551335830515456,0.41816139221191406,-0.09141795337200165,-0.009214584715664387,0.036516401916742325,0.0012801752891391516,-0.38464006781578064,-0.9230657815933228,-0.0005325007950887084,-0.02453961968421936,0.020111680030822754,-0.8696538271492408,-0.17364133690662684,-0.09119104082161174,-0.45302893542053746,0.394817858742224,0.0013868724537660828,0.9602251434331205
1781551335840549376,0.4281954765319824,-0.11090855300426483,-0.01960810273885727,0.045838262885808945,0.0009661798248998821,-0.3837391138076782,-0.9234410524368286,0.010340587235987186,-0.03438219428062439,0.03127491474151611,-0.8696536072600958,-0.17327393082765408,-0.0908604651177547,-0.45323633491878523,0.39384202745829616,0.0010462816870216228,0.9606690738159361
1781551335850583296,0.4382293224334717,-0.1272028386592865,-0.02139335311949253,0.03505405783653259,0.0006193762528710067,-0.38263005018234253,-0.9239014387130737,0.002020399086177349,-0.03303462266921997,0.06754767894744873,-0.869675615495592,-0.17281715015278126,-0.0904627804141436,-0.4534479710705838,0.39264130317084134,0.0006703920454954978,0.9611064222281405
1781551335860618240,0.44826436042785645,-0.12705238163471222,-0.0326278991997242,0.0613224133849144,0.00020607486658263952,-0.3814030885696411,-0.9244088530540466,-0.017448510974645615,-0.019231706857681274,0.042008280754089355,-0.8697043762551669,-0.17232013004167077,-0.09000755928768053,-0.4536726542513571,0.3913136343775747,0.0002229261062951241,0.9615747953176496
1781551335870652416,0.4582984447479248,-0.12109434604644775,-0.04971420764923096,0.043909069150686264,-0.0003751882177311927,-0.38034912943840027,-0.924842894077301,-0.01241167914122343,-0.022528648376464844,-0.047096192836761475,-0.869693814483494,-0.17194003758473345,-0.08952747023357462,-0.4539319770511307,0.3901737771324897,-0.00040567775142490636,0.9621777852640716
1781551335880686336,0.46833229064941406,-0.1836615949869156,-0.05724456161260605,0.04466300830245018,-0.00106248224619776,-0.3788359761238098,-0.9254632592201233,-0.025716697797179222,-0.019662559032440186,0.015505313873291016,-0.8697596841505645,-0.17137628984758052,-0.08887379555373527,-0.4541473358674752,0.3885381925218969,-0.0011480539984361894,0.9626505159975275
1781551335890720256,0.4783663749694824,-0.14386704564094543,-0.01912820339202881,0.05873009189963341,-0.0016240865224972367,-0.377316951751709,-0.9260827898979187,-0.028862975537776947,0.018140286207199097,0.007717311382293701,-0.8697993235474794,-0.1707756199625619,-0.08828533306578665,-0.45441244063984293,0.386897376003757,-0.0017537146321285257,0.9632097648348111
1781551335900754432,0.4884004592895508,-0.18090708553791046,0.006489277351647615,0.08053845912218094,-0.0019181161187589169,-0.37584778666496277,-0.9266794323921204,-0.023853978142142296,-0.02733519673347473,0.014386951923370361,-0.869783578692878,-0.17012613477459965,-0.08784863863197673,-0.45477058206583476,0.38531147138353133,-0.0020698779811360595,0.9639315955032803
1781551335910788352,0.49843430519104004,-0.2752764821052551,-0.03359143063426018,0.09276583045721054,-0.002341977786272764,-0.3737277090549469,-0.9275355339050293,-0.0008471126202493906,-0.1000271737575531,0.0567927360534668,-0.8697761508213511,-0.16919305774718704,-0.08721211595177089,-0.4552551296307473,0.3830246989413921,-0.002524941451979672,0.9648991580014974
1781551335920822272,0.5084683895111084,-0.33920779824256897,-0.08431239426136017,0.08994261175394058,-0.0032528007868677378,-0.37083330750465393,-0.9286937713623047,0.017168810591101646,-0.10777387022972107,0.05399894714355469,-0.8698611716731715,-0.16801832335811318,-0.08615665762443073,-0.4557284590100593,0.37990615027933416,-0.003502540629273189,0.9658568046659195
1781551335930857472,0.5185034275054932,-0.4026738405227661,-0.06707002222537994,0.123917356133461,-0.0043906718492507935,-0.3673657774925232,-0.9300661683082581,-0.019626658409833908,-0.0870562195777893,0.013501226902008057,-0.8699649747236168,-0.16662576958135078,-0.08486909145653353,-0.45628280128765686,0.376175169858704,-0.004720781478453664,0.9669834902791807
1781551335940891392,0.5285372734069824,-0.4610537886619568,-0.037900958210229874,0.13669626414775848,-0.005396666470915079,-0.36331915855407715,-0.9316490888595581,-0.04781073331832886,-0.05655694007873535,0.0066460371017456055,-0.8700484540666713,-0.16492204064801538,-0.08352344564316877,-0.4569903309045992,0.3718280278218398,-0.005792530606782893,0.9683706347077667
1781551335950925312,0.5385713577270508,-0.45215511322021484,-0.06062943488359451,0.13701771199703217,-0.0064058611169457436,-0.3588966727256775,-0.9333553314208984,-0.01755044236779213,-0.01471477746963501,0.021215438842773438,-0.8701308017692282,-0.16304268833576288,-0.08209400258887435,-0.45776631613129337,0.367085539216991,-0.0068631531519193325,0.9698747538295193
1781551335960959488,0.5486054420471191,-0.49437686800956726,-0.07990353554487228,0.15019983053207397,-0.007564301136881113,-0.35449862480163574,-0.9350259304046631,0.00606892816722393,-0.03777432441711426,0.025464773178100586,-0.870217553021392,-0.16121707020512835,-0.08059828177715121,-0.45851341886550423,0.3623778271262429,-0.008089760504638574,0.9713452196658835
1781551335970993408,0.5586392879486084,-0.5418540835380554,-0.0952257588505745,0.14798833429813385,-0.008923398330807686,-0.3496094048023224,-0.9368530511856079,0.000683661550283432,-0.08982846140861511,0.02454531192779541,-0.8703259359044896,-0.15921327551098072,-0.07889621680015049,-0.4593029227083511,0.3571541751721196,-0.009524576303826207,0.9728990028536608
1781551335981027328,0.5686733722686768,-0.5896517038345337,-0.10591116547584534,0.14994576573371887,-0.01039217971265316,-0.34423211216926575,-0.9388270378112793,-0.01740933209657669,-0.09239813685417175,0.0395808219909668,-0.8704747271996798,-0.15701593874296296,-0.0770224837292423,-0.46009479108274237,0.3514207769397133,-0.0110688709555105,0.9744265634865279
1781551335991061504,0.5787074565887451,-0.5552497506141663,-0.08566395193338394,0.14763014018535614,-0.011811910197138786,-0.3387930691242218,-0.9407867789268494,-0.025083841755986214,-0.026471823453903198,0.017645299434661865,-0.8706139592241399,-0.15478360404529976,-0.07515747975860552,-0.46089575405099276,0.34563379616419604,-0.012554692979628647,0.9759587326813406
1781551336001096192,0.5887422561645508,-0.548458993434906,-0.07991684973239899,0.15681485831737518,-0.013078782707452774,-0.3335746228694916,-0.9426329731941223,-0.024961380288004875,0.009950965642929077,0.0076506733894348145,-0.8707155972223927,-0.15262129719832343,-0.07341835712186853,-0.46170424049854797,0.34009284578999605,-0.013873845013283785,0.9775027644270043
1781551336011130368,0.5987763404846191,-0.5753393173217773,-0.09311281144618988,0.1608159840106964,-0.014427665621042252,-0.3282262682914734,-0.9444889426231384,-0.011176584288477898,0.007761180400848389,0.005798757076263428,-0.8708045053025695,-0.1504222083041255,-0.07161488067633617,-0.4625407010795077,0.33442519900818796,-0.015274444507050036,0.9791131343544223
1781551336021164544,0.6088104248046875,-0.6255766749382019,-0.09934460371732712,0.16904649138450623,-0.015885747969150543,-0.32252058386802673,-0.9464291334152222,-0.000807369127869606,-0.009953171014785767,0.03612029552459717,-0.8709053740140917,-0.1480898293064546,-0.06967663955079673,-0.4633986934957945,0.32839116519045003,-0.016783354368576187,0.9807560650910759
1781551336031198208,0.6188442707061768,-0.6898629665374756,-0.12036040425300598,0.19221146404743195,-0.01751895248889923,-0.3162239193916321,-0.9485228061676025,0.01478763110935688,-0.03189009428024292,0.04411911964416504,-0.8710042287005426,-0.1455293056345842,-0.06752642916324744,-0.464341399300229,0.3217464944703566,-0.01846762182612182,0.9825643072172959
1781551336041232384,0.6288783550262451,-0.7751443386077881,-0.16133446991443634,0.20373335480690002,-0.019460074603557587,-0.3092081844806671,-0.9507952332496643,0.034795165061950684,-0.0534016489982605,0.04018127918243408,-0.8711134029523816,-0.14271684639534007,-0.06507134602739333,-0.4653589330813066,0.3143602961435575,-0.020464299660156653,0.9845251209003287
1781551336051266304,0.6389124393463135,-0.8750250935554504,-0.23305979371070862,0.21074919402599335,-0.02198127470910549,-0.3012794256210327,-0.9532824754714966,0.04624275118112564,-0.0595146119594574,0.04318732023239136,-0.8297563354936867,-0.13402459478530787,-0.07345854118196013,-0.5367919806460207,0.30603413911449895,-0.023054426078179643,1.1519797824085023
1781551336061300224,0.6489462852478027,-0.9484545588493347,-0.27957987785339355,0.21955333650112152,-0.02510024420917034,-0.2924673855304718,-0.9559460282325745,0.04179336130619049,-0.0526864230632782,0.03280454874038696,-0.8298766934929596,-0.13099131311900766,-0.06977294400624644,-0.5378452994209099,0.29680601655000277,-0.02625093613057978,1.154005204419805
1781551336071335424,0.6589813232421875,-0.9997841119766235,-0.2818056344985962,0.2401350438594818,-0.028481725603342056,-0.2830372452735901,-0.9586859345436096,0.020776035264134407,-0.0312633216381073,0.003943502902984619,-0.8299874117723325,-0.1277731554111471,-0.0658107517950614,-0.53894699585459,0.2869593620890588,-0.029700394353914895,1.156118450842981
1781551336081369344,0.6690154075622559,-1.025895595550537,-0.271323025226593,0.2615377902984619,-0.03186105936765671,-0.27317166328430176,-0.9614375233650208,0.004532564431428909,-0.013342618942260742,-0.000690162181854248,-0.8300368197915771,-0.12437416140448031,-0.061743851343693194,-0.5401459475382505,0.27668854671120213,-0.033126856413296296,1.158416482833365
1781551336091403264,0.6790492534637451,-1.0635372400283813,-0.2712092995643616,0.28836193680763245,-0.03520249202847481,-0.2630343437194824,-0.9641440510749817,0.007690895348787308,-0.030361652374267578,0.00805884599685669,-0.8300178762537159,-0.12085812860021847,-0.05763069120240766,-0.5414261337039068,0.26616594961359746,-0.03649543973636741,1.160876292714633
1781551336101437440,0.6890833377838135,-1.1604957580566406,-0.2942690849304199,0.31268593668937683,-0.03871249035000801,-0.25220078229904175,-0.9669002294540405,0.014695163816213608,-0.06991222500801086,0.013256490230560303,-0.8299386557197327,-0.11710052137927514,-0.05326668134431513,-0.542818449829726,0.254953873437935,-0.040016356514906724,1.16355873321636
1781551336111471360,0.6991174221038818,-1.2725807428359985,-0.30595502257347107,0.34180787205696106,-0.04245693236589432,-0.2402258813381195,-0.9697880744934082,0.021491356194019318,-0.0780419409275055,-0.005568981170654297,-0.82982980328231,-0.11293420637729658,-0.048495583850187,-0.5443129159218135,0.24259854432476013,-0.04375166018890298,1.1664038416644316
1781551336121505280,0.7091512680053711,-1.349152684211731,-0.30156588554382324,0.3554248809814453,-0.04624159634113312,-0.22726567089557648,-0.9727343320846558,0.03139479458332062,-0.04254023730754852,0.009370684623718262,-0.8296713558287993,-0.1083771674833965,-0.043442344769126236,-0.5459052708146522,0.2292689593287607,-0.047501984738996576,1.1693964017334535
1781551336131540224,0.7191863059997559,-1.4020359516143799,-0.2982744872570038,0.3746885657310486,-0.04999789968132973,-0.21360714733600616,-0.9756394028663635,0.049570657312870026,-0.04370182752609253,-0.007133424282073975,-0.8294646650007879,-0.10353903736430661,-0.03820966594602211,-0.5475472715277884,0.2152658424460675,-0.051201500638921926,1.1724484582338284
1781551336141574400,0.7292203903198242,-1.4464441537857056,-0.324411541223526,0.3793752193450928,-0.05382174998521805,-0.19945397973060608,-0.9784280061721802,0.07036227732896805,-0.06246313452720642,0.019687771797180176,-0.8292010500103225,-0.09853645063375448,-0.03281116684139386,-0.5492173521055334,0.2008006741498425,-0.054953007335674334,1.1755470992209136
1781551336151608576,0.7392544746398926,-1.4976847171783447,-0.3435366451740265,0.37502095103263855,-0.05784539505839348,-0.18472351133823395,-0.9810867309570312,0.07612542062997818,-0.05055175721645355,0.04645538330078125,-0.8289213222008831,-0.09337563653505083,-0.027159431083322156,-0.5508474169312951,0.18579053055693323,-0.05889235064324726,1.1785393336745802
1781551336161642240,0.7492883205413818,-1.5143598318099976,-0.33888304233551025,0.37006905674934387,-0.061863236129283905,-0.16962800920009613,-0.983564555644989,0.065326988697052,-0.048725247383117676,0.06809830665588379,-0.8286146280746174,-0.0880895981886039,-0.021399361210042635,-0.5524311941065208,0.17045219536031786,-0.06281423011566004,1.181409325841823
1781551336171676416,0.7593224048614502,-1.505147099494934,-0.3385925889015198,0.37096333503723145,-0.06582053005695343,-0.1544630229473114,-0.9858036637306213,0.03051169216632843,-0.0732896625995636,0.07598310708999634,-0.8282716863672599,-0.08278716880708294,-0.015635238318511897,-0.5539565018854551,0.1550839270950215,-0.06666944441667969,1.1841521014418468
1781551336181710336,0.7693562507629395,-1.5291672945022583,-0.30781763792037964,0.3718312680721283,-0.0695752426981926,-0.13919499516487122,-0.9878178238868713,-0.0037127211689949036,-0.06960627436637878,0.005014479160308838,-0.8278629730682674,-0.07741235181564082,-0.009920672176525674,-0.5554743748033175,0.13964845222902145,-0.07031714811633656,1.1868769269302828
1781551336191744256,0.7793903350830078,-1.5241644382476807,-0.2975064218044281,0.32824116945266724,-0.07303325086832047,-0.12377424538135529,-0.9896191358566284,-0.026103094220161438,-0.019368447363376617,-0.018590033054351807,-0.8274647820129329,-0.07191795414070123,-0.004269436969944155,-0.5568767362938015,0.12409248584665493,-0.07366581023132075,1.1893157783704853
1781551336201779456,0.7894253730773926,-1.4598294496536255,-0.2389160841703415,0.32844117283821106,-0.0761185884475708,-0.10864221304655075,-0.9911623597145081,-0.0426558256149292,0.05142175406217575,-0.013506829738616943,-0.8270785061570054,-0.0664639989282247,0.001164285750938628,-0.5581418206678755,0.10885707967281362,-0.07664684586113796,1.1914510111508996
1781551336211813376,0.7994594573974609,-1.317374587059021,-0.1785997450351715,0.3128065764904022,-0.07852296531200409,-0.09456493705511093,-0.99241703748703,-0.04247923195362091,0.06743481010198593,-0.01669245958328247,-0.8266152561355613,-0.061279181739214574,0.006027719444978497,-0.5593886164771347,0.09470644953432356,-0.07895845050530331,1.1936068128531592
1781551336221847296,0.8094933032989502,-1.258599877357483,-0.1416766196489334,0.3039214611053467,-0.08034614473581314,-0.08153986185789108,-0.9934262633323669,-0.03176017850637436,0.015835516154766083,0.028384149074554443,-0.8261206581237651,-0.05638600001758635,0.010367511418734683,-0.560569245341635,0.0816304905480119,-0.08070215713849105,1.1956749224860472
1781551336231881472,0.8195273876190186,-1.1880074739456177,-0.14712119102478027,0.28425800800323486,-0.08200348168611526,-0.06907589733600616,-0.9942353367805481,-0.0004702731966972351,0.00039608776569366455,0.027148544788360596,-0.8256172465003407,-0.05169359128015283,0.01449456620900563,-0.5616706967671214,0.06913094543627459,-0.0822926710455818,1.1976163250443455
1781551336241915392,0.8295614719390869,-1.11445152759552,-0.14681118726730347,0.25749483704566956,-0.083656907081604,-0.057354167103767395,-0.9948427081108093,0.013558030128479004,0.009716223925352097,0.024627864360809326,-0.8251251952629751,-0.04731953367762916,0.01842569066302059,-0.5626630453592926,0.05738565955518201,-0.08389321733870553,1.19937546974954
1781551336251949312,0.8395953178405762,-1.0503764152526855,-0.10897792875766754,0.23334184288978577,-0.08505024760961533,-0.04631411284208298,-0.9952996969223022,0.00042500346899032593,0.028812281787395477,0.001632094383239746,-0.824669662314728,-0.04316268462403256,0.02207128145924046,-0.5635332412341919,0.04633068482264917,-0.0852448144898016,1.2008960073839041
1781551336261984256,0.8496303558349609,-0.9922180771827698,-0.07185240089893341,0.22260186076164246,-0.08601997792720795,-0.03593296557664871,-0.9956452250480652,-0.004464641213417053,0.056776467710733414,0.0050751566886901855,-0.824226736924967,-0.03916573399063233,0.025366117844150653,-0.5643340137726748,0.03594070119700195,-0.08618220915506578,1.2022937229302633
1781551336272018432,0.8596644401550293,-0.9216338992118835,-0.07551238685846329,0.20451313257217407,-0.0868212878704071,-0.026135863736271858,-0.9958810210227966,-0.0002453625202178955,0.04084533452987671,0.002274453639984131,-0.8237819199389201,-0.035368778851292915,0.028434939014158563,-0.565087497917466,0.026138840424890925,-0.08696051478192818,1.2036290524509847
1781551336282052352,0.8696982860565186,-0.9059734344482422,-0.0874209776520729,0.18850460648536682,-0.08768049627542496,-0.01689423993229866,-0.9960053563117981,0.0037571564316749573,0.011279003694653511,-0.038723647594451904,-0.8233742767929928,-0.0318207155812943,0.03138076449989811,-0.5657363418181064,0.016895043283370756,-0.08780579921434756,1.2047668967574416
1781551336292086272,0.8797323703765869,-0.8896005749702454,-0.08329760283231735,0.1733831763267517,-0.08857428282499313,-0.007684413343667984,-0.9960399270057678,0.0048950836062431335,0.027032559737563133,-0.009682118892669678,-0.8229803430654433,-0.02829898149995199,0.03433950204761834,-0.5663244273631494,0.007684488970071151,-0.0886931325474922,1.2057825619567242
1781551336302120448,0.8897664546966553,-0.8083763122558594,-0.05419004708528519,0.17157861590385437,-0.08927759528160095,0.0009142722701653838,-0.9960063695907593,0.0011580884456634521,0.011704747565090656,0.005771994590759277,-0.8225949849471813,-0.024978197618811697,0.037052774638684075,-0.5668691865612029,-0.0009142723773970195,-0.08939665687038785,1.2067364149305673
1781551336312154368,0.8998003005981445,-0.8394873738288879,-0.04411331191658974,0.19692657887935638,-0.08974791318178177,0.009265984408557415,-0.9959214329719543,0.005504138767719269,-0.03915795311331749,0.030177414417266846,-0.8221561801025088,-0.021699743326495026,0.03960324047309009,-0.5674679604381846,-0.00926611662995919,-0.08987270539313694,1.2078461905460698
1781551336322188288,0.9098343849182129,-0.9007922410964966,-0.05292624235153198,0.1879192441701889,-0.0901728942990303,0.018155790865421295,-0.9957606196403503,0.029214031994342804,-0.0720193162560463,0.06299084424972534,-0.8216788657547595,-0.018192521621648295,0.04229327951493302,-0.5680880411212743,-0.01815678916716476,-0.09031047322628867,1.2090068966503078
1781551336332223488,0.9198694229125977,-0.9613336324691772,-0.11432169377803802,0.16448262333869934,-0.09093214571475983,0.027569876983761787,-0.9954754114151001,0.057774804532527924,-0.08746062219142914,0.0387951135635376,-0.8212338683203766,-0.014564569958398296,0.045278909375536185,-0.5686059276046269,-0.027573370108259814,-0.09109265471806399,1.2099303747174994
1781551336342257152,0.9299032688140869,-1.0739542245864868,-0.16886696219444275,0.17774543166160583,-0.09231701493263245,0.03794350475072861,-0.9950064420700073,0.05076733976602554,-0.07644142955541611,0.0351981520652771,-0.820782232589674,-0.010721671194293528,0.0488038363628403,-0.5690517733987006,-0.03795261533005998,-0.09251546070418094,1.2106790718645382
1781551336352291328,0.9399373531341553,-1.0978736877441406,-0.1620844155550003,0.1764008104801178,-0.0939117893576622,0.04894520714879036,-0.9943766593933105,0.009256027638912201,-0.04081226885318756,0.021201610565185547,-0.820272877242303,-0.006686401687195139,0.05260191822989152,-0.5695092046950359,-0.048964768889115724,-0.09416357276705709,1.2114626111514974
1781551336362325504,0.9499714374542236,-1.1464760303497314,-0.15249811112880707,0.20484256744384766,-0.09537580609321594,0.06031559780240059,-0.9936123490333557,-0.028678148984909058,-0.01972721889615059,-0.026452958583831787,-0.8197211017803583,-0.0024674720404660373,0.05646008486136032,-0.5699679278992602,-0.060352228424167306,-0.09569575947095016,1.2122644743235444
1781551336372359168,0.9600052833557129,-1.0957601070404053,-0.14679323136806488,0.22897931933403015,-0.09672079235315323,0.07177263498306274,-0.992720365524292,-0.032170191407203674,0.003605775535106659,-0.010941684246063232,-0.8190488987776628,0.0018075506178362784,0.06030370182257202,-0.5705428240548316,-0.07183439716987731,-0.09712349901799869,1.213377330430883
1781551336382393344,0.9700393676757812,-1.046373724937439,-0.16089892387390137,0.22690366208553314,-0.09805978089570999,0.0826726108789444,-0.9917406439781189,-0.02095876634120941,-0.002228282392024994,-0.025578022003173828,-0.8183332760079536,0.005848091647604314,0.06399589264403234,-0.5711400432370439,-0.08276707518737371,-0.09855608689126065,1.2145875977870733
1781551336392428288,0.980074405670166,-1.071635365486145,-0.152075856924057,0.26404622197151184,-0.09939511865377426,0.09340986609458923,-0.990653932094574,-0.02607790380716324,-0.020716995000839233,-0.032585203647613525,-0.8175350952473239,0.009811354506839386,0.06765184789621252,-0.5718071012855119,-0.09354624331362887,-0.09999817943108362,1.21599969804987
1781551336402462208,0.9901082515716553,-1.078438401222229,-0.13022275269031525,0.2712263762950897,-0.10055067390203476,0.10439681261777878,-0.9894396662712097,-0.034092873334884644,-0.028209678828716278,-0.002320587635040283,-0.8166429736866726,0.013915762900617386,0.07131980307600587,-0.5725506283409374,-0.1045873837443569,-0.10127617042048649,1.2176260174298603
1781551336412496384,1.0001423358917236,-1.0939263105392456,-0.09323558211326599,0.26232340931892395,-0.10140205919742584,0.11541197448968887,-0.9881283640861511,-0.02240774780511856,-0.03164122253656387,0.001784980297088623,-0.8157449525189855,0.018116145942436643,0.07488400749711675,-0.5732576938564095,-0.11566973726216741,-0.10226236152082409,1.219200769343108
1781551336422530304,1.010176420211792,-1.0536606311798096,-0.0755615159869194,0.25658297538757324,-0.10191826522350311,0.12638066709041595,-0.9867323040962219,0.013295218348503113,-0.005790457129478455,-0.013649165630340576,-0.8148665479597043,0.022394924980720182,0.07830917547573535,-0.5738976958161385,-0.1267195292682736,-0.10292368839627163,1.2206552768453163
1781551336432565248,1.0202112197875977,-1.0015199184417725,-0.1071866825222969,0.22382904589176178,-0.10248541086912155,0.13677804172039032,-0.9852859973907471,0.04437994956970215,-0.00832955539226532,-6.556510925292969e-05,-0.8140101275482858,0.026425705862474235,0.08160073215967974,-0.5744829555219613,-0.13720815412820891,-0.10364318882395332,1.2220137960588309
1781551336442599168,1.030245065689087,-0.923915445804596,-0.14137661457061768,0.19843313097953796,-0.10346554964780807,0.14656522870063782,-0.9837751388549805,0.026225559413433075,-0.022511273622512817,-0.015248298645019531,-0.8132245139662673,0.030096236745143105,0.0848919823667547,-0.5749378571396411,-0.14709509895110998,-0.1047867306128588,1.223069876319103
1781551336452634112,1.0402801036834717,-0.8262906074523926,-0.025297412648797035,0.2224404662847519,-0.10404978692531586,0.15538525581359863,-0.9823589324951172,-0.036407358944416046,0.017374753952026367,-0.03930854797363281,-0.8124378240748688,0.033478829948734155,0.08774795042080495,-0.5754340748194976,-0.1560174351247656,-0.1055248577718148,1.2242677585046924
1781551336462668288,1.05031418800354,-0.7225911021232605,0.08167910575866699,0.18809661269187927,-0.10337523370981216,0.1633092612028122,-0.9811440706253052,-0.05198976397514343,0.0691583901643753,-0.058574557304382324,-0.8117106132510511,0.03685887674856621,0.08982983288664444,-0.5759321783097652,-0.16404402577959565,-0.10497462795618477,1.225547787686316
1781551336472701952,1.0603480339050293,-0.6333176493644714,0.0768623799085617,0.15660898387432098,-0.10225250571966171,0.17009064555168152,-0.9801089763641357,-0.0006680265069007874,0.03158476948738098,-0.030099153518676758,-0.8111231935794698,0.03991460941738531,0.09139112131203098,-0.5763104032429465,-0.17092164755510666,-0.10395163458811153,1.226575134930401
1781551336482736128,1.0703821182250977,-0.5669705867767334,0.05546973645687103,0.13789735734462738,-0.10132518410682678,0.17621684074401855,-0.9791224598884583,0.040946148335933685,-0.018303632736206055,-0.03354233503341675,-0.8106096400947876,0.0426544968751034,0.0928404742018568,-0.5766049196023166,-0.1771418173801744,-0.1031186423219502,1.2274039376700239
1781551336492770304,1.080416202545166,-0.517540454864502,0.07679353654384613,0.09688014537096024,-0.10046601295471191,0.18165354430675507,-0.9782170057296753,0.04980684071779251,-0.018766000866889954,-0.03203684091567993,-0.8101780046820513,0.045101737614589105,0.09411331857214499,-0.5768188845648194,-0.18266771766401216,-0.102344359291562,1.2280412449854112
1781551336502803968,1.0904500484466553,-0.4958703815937042,0.09210910648107529,0.07361024618148804,-0.09950405359268188,0.18667897582054138,-0.9773688912391663,0.047654688358306885,-0.023577779531478882,0.0013404488563537598,-0.8098643683609171,0.04742747258175939,0.09521660834974295,-0.576891655954196,-0.1877806025948788,-0.1014585112185047,1.2283458219655974
1781551336512839168,1.10048508644104,-0.4844166338443756,0.056221410632133484,0.055286627262830734,-0.09861340373754501,0.19157257676124573,-0.9765118360519409,0.05891004204750061,-0.027983099222183228,0.013071894645690918,-0.8095902083426709,0.04968584861320345,0.09630888941648451,-0.5769053314007541,-0.19276414954751922,-0.10064416829709184,1.2285121469463907
1781551336522873088,1.1105191707611084,-0.5257592797279358,0.013609770685434341,0.038204845041036606,-0.09814102947711945,0.19653794169425964,-0.9755722284317017,0.060024574398994446,-0.034138649702072144,0.01474153995513916,-0.8093467705613282,0.051861290640558375,0.09759247976417859,-0.576839539293727,-0.19782573490486977,-0.10026111829196499,1.2284691419599656
1781551336532907008,1.1205530166625977,-0.5759840607643127,0.023083699867129326,0.05503762140870094,-0.0979166105389595,0.20196515321731567,-0.9744856953620911,0.028260238468647003,-0.049773991107940674,0.009687721729278564,-0.8090810677964525,0.054157703190316875,0.09911651865780922,-0.5767414782493242,-0.20336401552715544,-0.10014416691691776,1.2283502126364025
1781551336542941184,1.130587100982666,-0.6707601547241211,0.03187559172511101,0.06462473422288895,-0.09746492654085159,0.20814864337444305,-0.9732290506362915,0.022239096462726593,-0.042270347476005554,-0.055335402488708496,-0.8087449004161762,0.056827778328935645,0.10077743665485547,-0.5766682445320505,-0.20968176621862486,-0.09981313546801235,1.2283379764259423
1781551336552975104,1.1406211853027344,-0.7376880049705505,-0.027647387236356735,0.03653770685195923,-0.09731760621070862,0.21512120962142944,-0.9717263579368591,0.07555857300758362,-0.04880040884017944,0.007508218288421631,-0.8083935860970829,0.05974365053135517,0.10279839941064718,-0.5765092129217578,-0.2168159506483502,-0.09981635776134322,1.228127043867671
1781551336563009024,1.1506550312042236,-0.7458370327949524,-0.09391136467456818,0.05056031420826912,-0.09778421372175217,0.22244612872600555,-0.970028817653656,0.12326639890670776,-0.04112595319747925,0.03942584991455078,-0.8080087719708118,0.06263063561513157,0.10518070183272903,-0.5763125466657183,-0.2243227402574057,-0.10046608724696997,1.2278017463614554
1781551336573043200,1.160689115524292,-0.736676037311554,-0.12843193113803864,0.049618352204561234,-0.09878761321306229,0.2296450436115265,-0.9682480096817017,0.12213356047868729,-0.03942897915840149,0.00497591495513916,-0.807562703289833,0.06530416837521644,0.10775608771722546,-0.576165235115007,-0.23171296502382313,-0.10167535671612102,1.2275646756712413
1781551336583078144,1.1707241535186768,-0.756330132484436,-0.12483078986406326,0.05479740351438522,-0.0999215766787529,0.2369868904352188,-0.9663606286048889,0.0723336935043335,-0.053499966859817505,0.02196371555328369,-0.8070992742077844,0.06800257142020842,0.11043247708144559,-0.5759956129607872,-0.2392632170650679,-0.10303372969146224,1.2272757832289576
1781551336593112320,1.1807582378387451,-0.7709069848060608,-0.10866221785545349,0.04213939979672432,-0.10088387131690979,0.24441345036029816,-0.9644088745117188,0.04183235764503479,-0.05099305510520935,0.005485594272613525,-0.8066283770618666,0.07079029413338057,0.11306763530941086,-0.5758081372740033,-0.24691474961390003,-0.10422787706657663,1.226970917399376
1781551336603145984,1.1907920837402344,-0.7970051169395447,-0.17111679911613464,0.0031680327374488115,-0.10216914117336273,0.252025842666626,-0.9623120427131653,0.05207454413175583,-0.04543709754943848,-0.002928435802459717,-0.8061925097608942,0.07357758704594561,0.11588927974918536,-0.5755081070404213,-0.25477309980747326,-0.1057742460269676,1.2263742062114114
1781551336613180160,1.2008261680603027,-0.766558825969696,-0.20474772155284882,-0.022686999291181564,-0.1040254756808281,0.2596856653690338,-0.9600740075111389,0.05814228951931,0.011813968420028687,0.001165926456451416,-0.8058143448680888,0.07624046714919323,0.118955439777706,-0.5750655071338215,-0.26269668649883093,-0.1079304621272629,1.2253783197762453
1781551336623214080,1.210860013961792,-0.6279585957527161,-0.16132807731628418,-0.028036491945385933,-0.1059090793132782,0.26641109585762024,-0.958023190498352,0.0339333713054657,0.08498355746269226,-0.02682483196258545,-0.8055066601499998,0.07851798046590948,0.12175113440120339,-0.5746048174905375,-0.2696676255474389,-0.11010252436303926,1.22430280053569
1781551336633248000,1.2208940982818604,-0.5339772701263428,-0.09583736211061478,-0.021175123751163483,-0.10719134658575058,0.27190712094306946,-0.9563349485397339,0.0032484829425811768,0.07994532585144043,-0.04032337665557861,-0.8052687260619,0.08046097021708581,0.1239296345179166,-0.5742036659042122,-0.2753742513680209,-0.11161969426806458,1.2233905965222032
1781551336643283200,1.2309291362762451,-0.5216529369354248,-0.08339693397283554,-0.03574155271053314,-0.10809751600027084,0.27689844369888306,-0.9547995328903198,0.01823851466178894,0.033358484506607056,-0.0139809250831604,-0.805078989993502,0.08230954343498113,0.12579890877311614,-0.5738010057056708,-0.28056484200657206,-0.11273485479874197,1.222496512148121
1781551336653317120,1.2409632205963135,-0.5558146238327026,-0.0969119444489479,-0.021172726526856422,-0.1090165451169014,0.2819344699382782,-0.953220009803772,0.0457841232419014,-0.022748678922653198,0.022678017616271973,-0.8048883864487573,0.08417786721380666,0.127687484504382,-0.573379945901522,-0.28580976697964694,-0.11387186585423707,1.2215602835964952
1781551336663351040,1.2509970664978027,-0.6255239248275757,-0.11128582805395126,-0.005857952870428562,-0.1100100576877594,0.28760069608688354,-0.9514113664627075,0.0473727285861969,-0.06474608182907104,-0.0056656599044799805,-0.8046042332342048,0.08628117055541752,0.12980703126161644,-0.5729901302578383,-0.2917207359734061,-0.11511705464158893,1.2207238192439076
1781551336673385216,1.261031150817871,-0.7124420404434204,-0.14823678135871887,-0.03367573767900467,-0.11135126650333405,0.2939206063747406,-0.9493216276168823,0.04859187453985214,-0.0603848397731781,-0.031452298164367676,-0.8042699118477394,0.08856290313723054,0.13227165636870922,-0.5725476167840188,-0.2983260416196617,-0.11676208729838326,1.2197495387099917
1781551336683419136,1.2710652351379395,-0.7295203804969788,-0.1767568439245224,-0.004517850466072559,-0.1129886731505394,0.30079394578933716,-0.9469723105430603,0.0389682874083519,-0.011304199695587158,-0.008441507816314697,-0.8039062574529888,0.09100127580360949,0.13502818150199256,-0.5720322409746746,-0.30552503478690096,-0.1187542937300023,1.2185876959589574
1781551336693453056,1.2810990810394287,-0.7475079298019409,-0.1531095802783966,0.03703917935490608,-0.11447916179895401,0.30781471729278564,-0.9445340633392334,0.00794229656457901,0.0007179975509643555,-0.0315248966217041,-0.8034063391164734,0.09352169968301546,0.13779206985159517,-0.5716688222129094,-0.3128953714126337,-0.12061342898924422,1.217831903853035
1781551336703488000,1.2911341190338135,-0.7496823668479919,-0.1469494104385376,0.06499997526407242,-0.11571560055017471,0.3148784637451172,-0.9420517086982727,-0.01341952383518219,-0.04493522644042969,-0.056025683879852295,-0.8028000968187975,0.09611510390816573,0.14048495671566702,-0.5714350038630814,-0.32032861119731904,-0.12222135716077966,1.2174378461325976
1781551336713522176,1.3011682033538818,-0.8517296314239502,-0.18752147257328033,0.0945376306772232,-0.11699558049440384,0.32255247235298157,-0.9392933249473572,-0.009515032172203064,-0.07539060711860657,-0.06293445825576782,-0.8020674062363484,0.09894031487155955,0.14340207639703567,-0.5712569212954586,-0.3284248419283874,-0.12391881332121611,1.2172150696926458
1781551336723556096,1.311202049255371,-1.0151784420013428,-0.20998257398605347,0.11558272689580917,-0.11860024929046631,0.3314063549041748,-0.9360041618347168,-0.007605195045471191,-0.0724341869354248,-0.0552830696105957,-0.8011525584043526,0.1021559257583833,0.14684032352509271,-0.5711012347353701,-0.3377937637640935,-0.12603745023393817,1.2170759267565419
1781551336733590016,1.3212361335754395,-1.1924080848693848,-0.2491440773010254,0.1655910313129425,-0.12018941342830658,0.3419243395328522,-0.9320098161697388,-0.012058503925800323,-0.09232106804847717,-0.04311835765838623,-0.7999976589931539,0.10606256839046406,0.1508172263268526,-0.5709716619769871,-0.34896389794480265,-0.1282494413846199,1.21710799498368
1781551336743624192,1.3312702178955078,-1.4386906623840332,-0.35164570808410645,0.16370604932308197,-0.12243043631315231,0.35436126589775085,-0.9270592927932739,0.0013519451022148132,-0.15383023023605347,-0.037677645683288574,-0.798584003151126,0.11058613217484307,0.15569545384244796,-0.5707829558124791,-0.3622309083453316,-0.131303404750972,1.2170274330506
1781551336753658112,1.341304063796997,-1.6319282054901123,-0.41273197531700134,0.20470593869686127,-0.12533029913902283,0.3689182698726654,-0.9209731817245483,0.004068702459335327,-0.1479862630367279,-0.00265657901763916,-0.7968736426475159,0.11581594638655969,0.1615551478520477,-0.5705077297642799,-0.3778449290152538,-0.13525378619026543,1.2167792777598427
1781551336763693056,1.3513391017913818,-1.7396453619003296,-0.43038180470466614,0.23943543434143066,-0.12838402390480042,0.3847268223762512,-0.9140584468841553,-3.4123659133911133e-06,-0.11141136288642883,-0.013569116592407227,-0.7948748926378612,0.12152012549185061,0.1679393852566928,-0.5702659161730647,-0.39491183161610666,-0.13954211498481858,1.2166942255197812
1781551336773727232,1.3613731861114502,-1.8943915367126465,-0.4682497978210449,0.2940203547477722,-0.13139067590236664,0.40161678194999695,-0.9063335061073303,-0.00015531480312347412,-0.13159728050231934,-0.0356372594833374,-0.7925978551983588,0.12769094458154634,0.17472339045939905,-0.5700486099835093,-0.41328158836881423,-0.14396650754381388,1.2167822466414009
1781551336783761152,1.3714070320129395,-1.933514952659607,-0.5224320888519287,0.34437835216522217,-0.13460613787174225,0.4194556176662445,-0.8977406024932861,0.019707471132278442,-0.169867604970932,-0.04670214653015137,-0.7899567467501817,0.13417720711616102,0.1820059829735612,-0.569946167629496,-0.43284553492005146,-0.14883008330053235,1.2172274459323589
1781551336793795072,1.3814411163330078,-2.032393455505371,-0.52921062707901,0.38896286487579346,-0.13774961233139038,0.4377445876598358,-0.8884844779968262,0.01299375295639038,-0.14904829859733582,-0.07925844192504883,-0.7870605821030626,0.14086903402036777,0.18950900472062424,-0.5698928911719789,-0.4530886234611974,-0.15381423526602112,1.217885894754791
1781551336803829248,1.3914752006530762,-2.097597360610962,-0.511810839176178,0.43966996669769287,-0.1404702067375183,0.4566451609134674,-0.8784892559051514,-0.012026116251945496,-0.12414088845252991,-0.06099438667297363,-0.7838720178332202,0.14793642533600268,0.19715526823843754,-0.5699028808095624,-0.4742205612842412,-0.15855751067848525,1.2188902546469784
1781551336813862912,1.4015090465545654,-2.116659164428711,-0.47670572996139526,0.4744125008583069,-0.1426600217819214,0.4758157432079315,-0.8678982853889465,-0.026086926460266113,-0.11320587992668152,-0.04556906223297119,-0.7804602330592159,0.1552802569909188,0.2047898599706051,-0.5699393718965703,-0.4958912554931515,-0.16291726385848046,1.2201665360906366
1781551336823898112,1.4115440845489502,-2.0902628898620605,-0.417768657207489,0.4807244539260864,-0.14424079656600952,0.49474310874938965,-0.856985330581665,-0.035477206110954285,-0.11057260632514954,-0.01673293113708496,-0.776947529336286,0.16272561324583104,0.21219732754957676,-0.5699520271615889,-0.5175392163490499,-0.16674897348763898,1.2215821075375488
1781551336833932288,1.4215781688690186,-1.9378303289413452,-0.39091959595680237,0.46058112382888794,-0.14529818296432495,0.5127488970756531,-0.8461542725563049,-0.03400784730911255,-0.06905382871627808,0.006875097751617432,-0.7734598471329726,0.16996342815613352,0.21916956548690789,-0.5699447769597284,-0.538383544399691,-0.17005743111487553,1.2230772017831189
1781551336843965952,1.4316120147705078,-1.6711912155151367,-0.33594104647636414,0.4065335988998413,-0.14610303938388824,0.5286020636558533,-0.8362020254135132,-0.04756149649620056,0.009041368961334229,-0.030405640602111816,-0.7702429562835976,0.1763872438323108,0.22535867302590387,-0.5699358480651675,-0.5569528673148503,-0.17297608319951646,1.224498682301512
1781551336854000128,1.4416460990905762,-1.4179978370666504,-0.23420828580856323,0.4052603244781494,-0.14634542167186737,0.542123556137085,-0.8274570107460022,-0.08021709322929382,0.07776474952697754,-0.0664944052696228,-0.7673810803776385,0.182003889250498,0.2305343546913521,-0.5699603169274025,-0.5729621921876813,-0.17505143271379897,1.225981722418679
1781551336864034048,1.4516801834106445,-1.3014060258865356,-0.20695136487483978,0.412833571434021,-0.14577986299991608,0.5538687705993652,-0.8197424411773682,-0.09526322782039642,0.044962406158447266,-0.08746886253356934,-0.7647023000759858,0.18707285953184266,0.2348031916265595,-0.5701768447921957,-0.5870036954343817,-0.17599623375129927,1.2280667335921853
1781551336874069248,1.4617152214050293,-1.2506581544876099,-0.22834067046642303,0.3533920645713806,-0.14552204310894012,0.5647967457771301,-0.8122979402542114,-0.10377603769302368,0.00037354230880737305,-0.10776126384735107,-0.7621445299902021,0.19172348921471735,0.23894167756394824,-0.5703373639132794,-0.6001869380673411,-0.1772681409462568,1.2298820059963296
1781551336884103168,1.4717490673065186,-1.1316417455673218,-0.14076341688632965,0.39421114325523376,-0.14487388730049133,0.5753491520881653,-0.8049750924110413,-0.10195228457450867,0.06487911939620972,-0.06642377376556396,-0.7596684725770384,0.1963650531430061,0.24280281838869092,-0.5704309380783374,-0.6130309766663528,-0.17806690955037113,1.2316561951826093
1781551336894137088,1.481783151626587,-0.5256394147872925,-0.11972925066947937,0.4149891138076782,-0.14372438192367554,0.5827174782752991,-0.7998647689819336,-0.15049557387828827,-0.028838694095611572,0.1694936752319336,-0.7575094811054005,0.1996474712481388,0.2453741950357708,-0.5710620324489114,-0.6220685662800782,-0.17778862265685508,1.2346551944747126
1781551336904171264,1.4918172359466553,-0.47915345430374146,-0.12915684282779694,0.4506374001502991,-0.1419702172279358,0.5865989327430725,-0.7973369359970093,-0.4909796118736267,-0.21414709091186523,0.22630727291107178,-0.7556600405239566,0.20141185306909684,0.2465051425630363,-0.5724041430714503,-0.626852908188336,-0.17620880513336212,1.2393102623105312
1781551336914205184,1.5018510818481445,-1.2003546953201294,0.26632845401763916,0.33283647894859314,-0.1393539309501648,0.5941733717918396,-0.7921733260154724,-0.7717178463935852,0.0449867844581604,-0.3829365372657776,-0.7537522165973035,0.20536875308225566,0.24846934412732888,-0.5726643063134323,-0.6362375233393626,-0.17413181960943913,1.2419542884414787
1781551336924239104,1.511885166168213,-0.34655171632766724,0.2859135866165161,0.37202727794647217,-0.1346057653427124,0.6014658212661743,-0.7874771356582642,-0.2873607873916626,0.6297963857650757,-0.32874906063079834,-0.7522319934643356,0.209996966957328,0.24932452093575141,-0.5726130230206736,-0.6453346323033723,-0.16929673810663928,1.2445599334098851
1781551336934274304,1.5219202041625977,0.4486173093318939,0.028608161956071854,0.2420242875814438,-0.13181039690971375,0.6009789109230042,-0.7883212566375732,0.20300792157649994,0.4874000549316406,-0.05538296699523926,-0.751653095018317,0.2103104425409639,0.24821137002769955,-0.5737406255239926,-0.6447252754490848,-0.1656713564199032,1.2484751183865073
1781551336944307968,1.531954050064087,0.18066364526748657,0.10287919640541077,0.39902588725090027,-0.129490464925766,0.598599910736084,-0.79051274061203,-0.0411485880613327,-0.17208623886108398,0.23622196912765503,-0.7511937392795893,0.20953173162075625,0.2466578069213861,-0.5752950513884438,-0.6417521067346728,-0.16236370998482255,1.2530560137470497
1781551336954342144,1.5419881343841553,-0.24847440421581268,0.25078222155570984,0.49320510029792786,-0.12540203332901,0.5994325876235962,-0.7905409336090088,-0.4591163992881775,-0.6613680124282837,0.1976301670074463,-0.7500707283837703,0.21071207078356732,0.245621587803717,-0.5767706825825264,-0.6427920154549557,-0.1573173613592778,1.2585714542098672
1781551336964376320,1.5520222187042236,-0.12493756413459778,0.278482049703598,0.48502227663993835,-0.12009331583976746,0.6017847061157227,-0.7895775437355042,-0.29045966267585754,-0.051140785217285156,-0.2849768400192261,-0.7487493464778942,0.21299091301411782,0.24463459560836556,-0.5780684888486711,-0.6457338749356081,-0.1509413295022479,1.2643366244348448
1781551336974409984,1.562056064605713,0.48498889803886414,0.0024904077872633934,0.2772775888442993,-0.11670077592134476,0.6009127497673035,-0.7907495498657227,0.18058931827545166,0.45343905687332153,-0.12969112396240234,-0.7479545443724934,0.2132153846247162,0.24323740246573172,-0.5796023213987814,-0.644642545070714,-0.14652479093314963,1.2695034620676307
1781551336984444160,1.5720901489257812,0.46263113617897034,0.02824743650853634,0.4532952308654785,-0.11445198208093643,0.5973222255706787,-0.793792724609375,0.19665108621120453,0.2022230625152588,-0.0695343017578125,-0.7475426725307295,0.21182852945080347,0.24131369364942265,-0.5814433589109862,-0.6401580675608235,-0.1431968480426165,1.2745830786589278
1781551336994479104,1.582125186920166,0.1423141211271286,0.02496948465704918,0.47605034708976746,-0.11149943619966507,0.5954002141952515,-0.7956547737121582,-0.07525287568569183,-0.28280866146087646,-0.0352778434753418,-0.7464830491321995,0.2112794459559274,0.2398616759573419,-0.5836012963344036,-0.6377636966584427,-0.13922878245155174,1.2810578526091267
1781551337004513024,1.5921590328216553,-0.24265673756599426,-0.002055741846561432,0.6708488464355469,-0.10802364349365234,0.596432626247406,-0.7953609228134155,-0.18093204498291016,-0.584622323513031,-0.04455912113189697,-0.7447964097322909,0.2121909356085304,0.23936277896884156,-0.5856268795582179,-0.6390493368015071,-0.1349911532019564,1.2879278704701906
1781551337014547200,1.6021931171417236,-0.17604973912239075,-0.026026589795947075,0.7393698692321777,-0.10375730693340302,0.5990880727767944,-0.7939319610595703,-0.06212100386619568,-0.39071404933929443,-0.09365653991699219,-0.7424288942191758,0.21392623118213286,0.23931067125880043,-0.5880181426133292,-0.6423616746184536,-0.12995141934028798,1.2964225372697256
1781551337024581120,1.612227201461792,0.12252123653888702,-0.14432553946971893,0.7159572243690491,-0.10004648566246033,0.6001807451248169,-0.7935828566551208,-0.038869522511959076,-0.28871840238571167,-0.06283187866210938,-0.7401306059392911,0.21471471359223,0.23896894625517687,-0.5907605763440352,-0.6437270366693172,-0.12540776599373143,1.3053983784741474
1781551337034615040,1.6222610473632812,0.34981217980384827,-0.13285410404205322,0.7652949690818787,-0.09686081856489182,0.5988258123397827,-0.7950003743171692,-0.09723097831010818,-0.19870984554290771,0.02667456865310669,-0.7380603920366117,0.21417263326389946,0.23797036715745795,-0.5939418695431867,-0.6420341713207175,-0.12123989436867427,1.3148824201455327
1781551337044649216,1.6322951316833496,0.5743720531463623,0.16995397210121155,0.7747305035591125,-0.09208652377128601,0.5959759950637817,-0.7977046370506287,-0.1834719479084015,-0.010694622993469238,0.06133073568344116,-0.7362209857439218,0.21347326351282786,0.23574744301599487,-0.5973532772094895,-0.6384805503665484,-0.11493064540854407,1.3252530559503264
1781551337054684160,1.6423301696777344,0.590819239616394,0.5637317895889282,0.7300160527229309,-0.08477707207202911,0.5917583107948303,-0.8016451597213745,-0.2537239193916321,-0.015067636966705322,0.03103053569793701,-0.7350807061320646,0.21318853346885408,0.23179318870533866,-0.6003989153208922,-0.6332383171253051,-0.10536224573910292,1.3352283074148392
1781551337064718080,1.6523640155792236,0.6535012722015381,0.552012026309967,0.7184842824935913,-0.07550982385873795,0.5873090028762817,-0.8058327436447144,-0.20563337206840515,-0.23751652240753174,0.18882834911346436,-0.7341865949342277,0.21355501578230174,0.22688739716523504,-0.6032299053883622,-0.6277299589997933,-0.09343127670025907,1.345236186092025
1781551337074752000,1.662398099899292,0.6035565733909607,0.4637415111064911,0.5920933485031128,-0.06749944388866425,0.5828246474266052,-0.8097896575927734,-0.07333918660879135,-0.2767180800437927,0.16545677185058594,-0.7334643504974007,0.21361252578365011,0.22242945318621668,-0.6057432785978066,-0.6222004329697902,-0.08316204852884349,1.3538764560896903
1781551337084786176,1.6724321842193604,0.9813270568847656,0.3918079435825348,0.41145724058151245,-0.06107747554779053,0.5768988132476807,-0.8145288825035095,0.03742634877562523,0.037145376205444336,0.23959296941757202,-0.733185409386549,0.21263739752119978,0.2179928712142916,-0.6080325272637901,-0.6149268668466346,-0.07484496551211244,1.3609336819253226
1781551337094820096,1.6824660301208496,1.423786997795105,0.4713301956653595,0.1895858496427536,-0.05596058443188667,0.5672940611839294,-0.821611762046814,0.04558461159467697,0.30207544565200806,0.22659528255462646,-0.7340071570907664,0.20984974445521629,0.21250226957577636,-0.6099502006549788,-0.6032162482213145,-0.0680057115746595,1.3655395525679954
1781551337104855040,1.6925010681152344,2.208240032196045,0.48462122678756714,0.08673243969678879,-0.051158931106328964,0.5526133179664612,-0.8318661451339722,0.03974534571170807,0.4838094115257263,0.19549834728240967,-0.7359464925423865,0.2049244028245378,0.20511681181044633,-0.6118135841162425,-0.585496550730488,-0.06142163402188157,1.3685900660752186
1781551337114889216,1.7025351524353027,3.053640604019165,0.45440980792045593,-0.08755574375391006,-0.047163140028715134,0.5300318598747253,-0.8466651439666748,0.02659429982304573,0.47956591844558716,0.1314857006072998,-0.739132562897235,0.19646487608408056,0.19511270622761137,-0.6140160344974719,-0.5586381072491262,-0.055647085623925945,1.370429868702233
1781551337124923136,1.712569236755371,2.7982518672943115,0.46340808272361755,-0.22984257340431213,-0.0441557951271534,0.5043374300003052,-0.8623769879341125,0.023480135947465897,0.3678702116012573,0.03753262758255005,-0.7428923086640492,0.18657555380723956,0.18439380750991305,-0.6158729836406693,-0.52861447617918,-0.05115775480565283,1.3705271886406492
1781551337134957056,1.7226030826568604,2.6119751930236816,0.15367819368839264,-0.5114902257919312,-0.04287689924240112,0.48098474740982056,-0.8756799101829529,0.10861177742481232,0.26899999380111694,0.15960019826889038,-0.7467597238066926,0.17739823862710152,0.17518538734892458,-0.6165954183946364,-0.5017775574490646,-0.048925052085525465,1.3678850944781713
1781551337144991232,1.7326371669769287,2.7039928436279297,0.024052824825048447,-0.6688268780708313,-0.0452217236161232,0.4571380019187927,-0.8882453441619873,0.2185615748167038,0.3080749809741974,0.18864518404006958,-0.7510276135427373,0.16705656277466624,0.16724060095602275,-0.6165064455524265,-0.47477461264442283,-0.0508673779631463,1.362381996188684
1781551337155024896,1.742671012878418,2.7194995880126953,0.07362450659275055,-0.8068010210990906,-0.048125170171260834,0.4323371946811676,-0.9004268646240234,0.24232378602027893,0.4964958131313324,0.05998802185058594,-0.7554923347953897,0.15627162168586092,0.15926630565565544,-0.6159908380747916,-0.4470831239332068,-0.05339625942396197,1.3559200491623824
1781551337165060096,1.7527060508728027,2.7066328525543213,0.23483656346797943,-0.8328019976615906,-0.050269920378923416,0.4074254333972931,-0.9118538498878479,0.18337233364582062,0.4948572814464569,0.0204659104347229,-0.7602535853269329,0.14584915170212664,0.15100033819300493,-0.614769356372635,-0.41963313192306306,-0.05507361087334496,1.3482399616909053
1781551337175094016,1.762740135192871,2.758491277694702,0.3631700575351715,-0.8016869425773621,-0.0505715012550354,0.38171836733818054,-0.9228941798210144,0.1781197190284729,0.19346165657043457,-0.0710480809211731,-0.7649305158513086,0.13571450751693193,0.14189607704282728,-0.6134560765387617,-0.3916547183089278,-0.05474189490500889,1.3410278170326329
1781551337185128192,1.7727742195129395,2.159219264984131,0.6581958532333374,-0.7132459878921509,-0.04878956079483032,0.35812413692474365,-0.9323983192443848,0.21582752466201782,-0.15524330735206604,-0.13567107915878296,-0.7692842115499606,0.12711961447705636,0.13282104375254986,-0.6118831639395956,-0.36625800680985465,-0.05227926751381315,1.334166345305803
1781551337195162112,1.7828080654144287,1.3603630065917969,0.4161026179790497,-0.5441296696662903,-0.04542740434408188,0.34142014384269714,-0.9388123750686646,0.2905751168727875,-0.38057419657707214,0.14302074909210205,-0.7727054430867532,0.12177446441193085,0.12555797024205184,-0.6101905321927792,-0.34842742744440647,-0.04835044874642134,1.328322633406245
1781551337205196032,1.792842149734497,0.653958261013031,0.19166046380996704,-0.45031556487083435,-0.04475397989153862,0.33158883452415466,-0.9423618912696838,0.3363799452781677,-0.5381776094436646,0.29175764322280884,-0.7749910012865291,0.11827591272872023,0.12177793541839185,-0.6087445161563759,-0.33798719525580395,-0.04745563400367762,1.323557636620783
1781551337215230208,1.8028762340545654,-0.28444546461105347,0.2061316817998886,-0.17517107725143433,-0.043648116290569305,0.329803466796875,-0.9430400133132935,0.2312244027853012,-0.609375,0.36517441272735596,-0.7761566175017058,0.11809398014139473,0.12055619339712281,-0.607536710880106,-0.33609539501952984,-0.04625147194818665,1.3204198848916306
1781551337225265152,1.812911033630371,-0.8468230366706848,0.10433421283960342,-0.24037964642047882,-0.04289402812719345,0.33521488308906555,-0.9411647319793701,0.13073888421058655,-0.5723211765289307,0.3630549907684326,-0.7765042580104045,0.12069467661132598,0.12186228551380837,-0.6063197772567044,-0.3418333056841773,-0.04554395627364145,1.3180253152485615
1781551337235299072,1.8229451179504395,-1.2255892753601074,0.13164173066616058,-0.1250637024641037,-0.042564284056425095,0.34510543942451477,-0.9375982880592346,0.0660017877817154,-0.30714157223701477,0.2698736786842346,-0.7765472724379088,0.1250249516267038,0.12477830551618524,-0.6047921682323787,-0.35235113977842186,-0.045365994785793645,1.3153097025655984
1781551337245333248,1.8329792022705078,-1.1791613101959229,0.11467260867357254,0.0041105253621935844,-0.041467905044555664,0.35656580328941345,-0.9333494901657104,0.06646180152893066,0.07698217034339905,0.13957202434539795,-0.7759731659283936,0.13016184855814325,0.1279966977890793,-0.6037717798570441,-0.3645894838253074,-0.04439992929852199,1.3142809772827015
1781551337255367168,1.843013048171997,-1.1713560819625854,0.12773820757865906,0.05646027997136116,-0.04029536247253418,0.367294043302536,-0.929231584072113,0.06174922361969948,0.254104882478714,0.021074235439300537,-0.7752422154955884,0.13499859351892615,0.1309945830382951,-0.6030051613586852,-0.3760980337179395,-0.04333702698735196,1.3139007599493935
1781551337265401088,1.8530471324920654,-1.5317273139953613,-0.014906825497746468,0.12948070466518402,-0.03930676355957985,0.37973302602767944,-0.924260675907135,0.028473027050495148,0.09820276498794556,-0.01854938268661499,-0.7740372123739544,0.1404412193238077,0.1347068276060603,-0.6024920312804721,-0.38950770417119474,-0.04250217902343288,1.3144466395735068
1781551337275436288,1.8630821704864502,-2.196404218673706,-0.1988084763288498,0.11174537986516953,-0.039813946932554245,0.3968227803707123,-0.9170313477516174,0.0021552518010139465,-0.14927944540977478,-0.06232351064682007,-0.7722766555398409,0.14736268101337593,0.1406007024433203,-0.6017511766465065,-0.4080528407324571,-0.0433888752004178,1.3148677692298387
1781551337285469952,1.8731160163879395,-2.6063804626464844,-0.3973862826824188,0.16382695734500885,-0.04195450618863106,0.4194636344909668,-0.9068021178245544,-0.012168418616056442,-0.1607813835144043,0.04484838247299194,-0.769767120551732,0.1561182287525848,0.14908400069464714,-0.6007159423478143,-0.43285437605422694,-0.046233470211366465,1.3151661025352468
1781551337295504128,1.8831501007080078,-1.9926515817642212,-0.6273626089096069,0.08456356078386307,-0.045959919691085815,0.44067269563674927,-0.8964905142784119,-0.057128455489873886,-0.006453335285186768,-0.07050472497940063,-0.7671140808154683,0.16371219800238956,0.1579653412529369,-0.5998177272224349,-0.4563479091951939,-0.05122164141559151,1.315334181275183
1781551337305538304,1.8931841850280762,-0.9838522672653198,-0.7230808734893799,0.013336780481040478,-0.052063439041376114,0.4541790187358856,-0.8893879055976868,-0.09004166722297668,0.3686816990375519,-0.48233145475387573,-0.7651502708983349,0.1674141040692609,0.1651622697416736,-0.5993654830820634,-0.47145049218809965,-0.05847177977770943,1.314939014566554
1781551337315571968,1.9032180309295654,0.09261101484298706,-0.5677233934402466,0.008165987208485603,-0.05782046541571617,0.4580182135105133,-0.8870603442192078,-0.07807432115077972,0.6938678026199341,-0.49534016847610474,-0.7642095890976922,0.16711339977236886,0.16894652297992832,-0.5995947695991805,-0.4757645567377786,-0.06509002965067742,1.314765368969418
1781551337325607168,1.9132530689239502,0.482084184885025,-0.28245651721954346,-0.047996886074543,-0.061761852353811264,0.4549137055873871,-0.8883911967277527,-0.13123132288455963,0.606380820274353,-0.20099472999572754,-0.7641909423635116,0.16446442038494713,0.16957547896087502,-0.6001730851278962,-0.47227532344318496,-0.06940932902739184,1.3148052168920936
1781551337335641088,1.9232871532440186,0.39899834990501404,-0.02102264203131199,-0.012351804412901402,-0.06322672963142395,0.4509580433368683,-0.8903028964996338,-0.18955036997795105,0.2736665904521942,-0.09320235252380371,-0.7645395381537268,0.16230520773330817,0.16883594939801552,-0.6005253539178268,-0.4678384211122865,-0.07089807458167743,1.314739973925807
1781551337345675264,1.933321237564087,0.41786497831344604,0.13588814437389374,0.042420893907547,-0.06259645521640778,0.4473235607147217,-0.8921789526939392,-0.08220944553613663,0.017382830381393433,-0.18622064590454102,-0.7648693116909305,0.16094182263797308,0.16735665262314622,-0.6008863225909059,-0.4637705672477706,-0.070046535333437,1.3152584843110786
1781551337355709184,1.9433550834655762,0.30876272916793823,0.19003860652446747,0.15473918616771698,-0.06066204234957695,0.4441033899784088,-0.8939196467399597,0.05214763432741165,-0.1505395770072937,-0.12472659349441528,-0.7650179525842195,0.16012487768280037,0.16553010226063541,-0.6014210883414025,-0.46017331616010365,-0.06775685513702716,1.3166039867139596
1781551337365743104,1.9533891677856445,0.13114188611507416,0.2586469352245331,0.21588057279586792,-0.057737674564123154,0.44219648838043213,-0.8950579166412354,0.08549340069293976,-0.34595930576324463,-0.0057599544525146484,-0.7647806563887448,0.1601080121977522,0.16381843219431222,-0.6021955445491897,-0.4580461196443112,-0.06441794139992975,1.3190114234728592
1781551337375777024,1.9634230136871338,-0.022956866770982742,0.27189311385154724,0.10887608677148819,-0.05460340529680252,0.44197413325309753,-0.8953643441200256,0.053932029753923416,-0.4428133964538574,-0.02556455135345459,-0.7645465821528387,0.16092139809240735,0.1625488205158867,-0.6026199353792426,-0.4577982280774948,-0.060909128906140565,1.3208207314372735
1781551337385811968,1.9734580516815186,0.1938265860080719,0.2453097105026245,0.05804432928562164,-0.05194474384188652,0.4414476752281189,-0.8957821726799011,0.07297135889530182,-0.2023577094078064,0.04502838850021362,-0.7645563117687771,0.1615166004102533,0.1613111866939796,-0.6027808542604666,-0.45721141154213885,-0.05792327428845197,1.3217820665040165
1781551337395846144,1.983492136001587,0.9351968169212341,0.3973289132118225,-0.01210466306656599,-0.049121636897325516,0.4366758465766907,-0.8982768654823303,0.1301000416278839,0.22328200936317444,0.07990223169326782,-0.7651643101477258,0.16041192783144886,0.15852316744284278,-0.6030440119959165,-0.4519002895798319,-0.05462988321440371,1.322353329270513
1781551337405880320,1.9935262203216553,1.6589534282684326,0.6215630769729614,-0.03821403160691261,-0.04457484930753708,0.4247317314147949,-0.90422123670578,0.13124477863311768,0.4288907051086426,0.04429692029953003,-0.7667063284412845,0.15688375471577706,0.15256759383041546,-0.6035495217474881,-0.4386655405020842,-0.049256523095928144,1.322789316251589
1781551337415913984,2.0035600662231445,2.0878548622131348,0.6912761330604553,-0.02253413386642933,-0.03862239420413971,0.4075300991535187,-0.9123746752738953,0.15985345840454102,0.3486802279949188,0.12131327390670776,-0.7687826349632751,0.15162465926884186,0.1443005022685137,-0.6042851039256448,-0.4197477333244376,-0.04230646825881391,1.3233139208472284
1781551337425948160,2.013594150543213,2.2081029415130615,0.5903380513191223,0.0021914513781666756,-0.032753750681877136,0.3875983655452728,-0.9212462902069092,0.21659162640571594,0.10283437371253967,0.21757197380065918,-0.7708461569222563,0.14519328591360167,0.1352618878685226,-0.6053257205190308,-0.3980248739890115,-0.03553877268770242,1.3242259751493721
1781551337435982592,2.0236287117004395,2.0479846000671387,0.5817728042602539,-0.020747153088450432,-0.027429290115833282,0.3677203059196472,-0.9295318126678467,0.19461984932422638,-0.16506832838058472,0.23522639274597168,-0.7728078742522653,0.13865967261118625,0.12652107107234695,-0.6062457312079326,-0.3765563626026925,-0.029500155461931462,1.3247794723284994
1781551337446016512,2.0336625576019287,1.7279932498931885,0.4430524706840515,0.036340899765491486,-0.022435326129198074,0.350037157535553,-0.9364671111106873,0.12082399427890778,-0.30908259749412537,0.27362531423568726,-0.7743781661890452,0.13294344224629862,0.1187117791790961,-0.6071013789053794,-0.35761078123120893,-0.023952827035475344,1.325469821989794
1781551337456050688,2.043696641921997,1.44618558883667,0.358993798494339,-0.02122572436928749,-0.01880338042974472,0.3350573480129242,-0.9420101046562195,0.07149197161197662,-0.2824145257472992,0.15897482633590698,-0.7756129970937714,0.127932386473564,0.11237551902187412,-0.6078071817535129,-0.34166608548598815,-0.01995826057835407,1.3259369725138952
1781551337466084608,2.0537307262420654,1.0088247060775757,0.3689873218536377,-0.054650261998176575,-0.015435537323355675,0.32328489422798157,-0.946175754070282,-0.00948206428438425,-0.16148072481155396,-0.030310392379760742,-0.776713046257149,0.12419897053665217,0.10717614234860752,-0.6081156621694493,-0.3291987447279675,-0.016312157670761482,1.3257870992220369
1781551337476118528,2.0637645721435547,1.037947177886963,0.4196349084377289,-0.1056138426065445,-0.01202564686536789,0.314231812953949,-0.9492701292037964,0.007310675457119942,0.036613523960113525,-0.07103931903839111,-0.7777484974384153,0.12162550377393262,0.10282110645670953,-0.6080643878513926,-0.3196473697394084,-0.012667631346907548,1.3250797182473084
1781551337486153728,2.0737996101379395,1.1006011962890625,0.2645159065723419,-0.07890819013118744,-0.009345722384750843,0.3037749230861664,-0.9526979923248291,-0.01651792973279953,0.08170786499977112,0.4004976749420166,-0.7788136044964792,0.11824706422573743,0.09832923688057801,-0.6081105395702311,-0.3086523371242598,-0.009809428716167062,1.3243415930558464
1781551337496187648,2.083833694458008,1.3071067333221436,0.6471514105796814,-0.019640076905488968,-0.005070704501122236,0.2923460304737091,-0.9562991857528687,-0.11336801946163177,0.041241616010665894,0.06864964962005615,-0.7799355984135744,0.11497591292549336,0.09290293534591205,-0.6081530674188872,-0.2966791199868304,-0.00530237539120669,1.3237466807447464
1781551337506221568,2.093867540359497,0.8228545784950256,0.536971390247345,0.2715848386287689,0.0013085417449474335,0.2817237377166748,-0.9594946503639221,-0.062435247004032135,-0.1737983524799347,0.060614705085754395,-0.7805122778531104,0.11262361532064055,0.0869976155082873,-0.6087264889126517,-0.2855901380205796,0.001363781348365996,1.3249322366474603
1781551337516255744,2.1039016246795654,0.6595668792724609,0.2657957971096039,0.2697901129722595,0.005812828429043293,0.2743808627128601,-0.9616035223007202,0.08781511336565018,-0.43238565325737,-0.14432299137115479,-0.7801828948295159,0.1109363471183229,0.08301420912297072,-0.6100135982852015,-0.2779458071834621,0.006044859012186854,1.3280405576619412
1781551337526289664,2.113935708999634,0.13781684637069702,0.26452332735061646,0.3442004323005676,0.008946413174271584,0.2708757817745209,-0.9625727534294128,-0.05191516503691673,-0.4275225102901459,-0.28136950731277466,-0.7796113060340055,0.11038843117374761,0.08079619714713294,-0.6111404480845049,-0.2743027149067367,0.009294004574863797,1.330980776054842
1781551337536323584,2.123969554901123,0.06811818480491638,0.363810271024704,0.4892577528953552,0.01311258040368557,0.26975584030151367,-0.9628394842147827,-0.23677590489387512,-0.07903623580932617,-0.14024889469146729,-0.778485711073812,0.11108137502016885,0.07900121630662092,-0.6126824446550488,-0.2731394659160495,0.013617815347969332,1.3354214030968716
1781551337546358528,2.134004592895508,-0.0323178768157959,0.5313089489936829,0.5085790157318115,0.018853863701224327,0.2696040868759155,-0.9627866744995117,-0.3194520175457001,0.017032265663146973,-0.15235614776611328,-0.7771323626155779,0.11264670133476219,0.07692456110245433,-0.614376605819802,-0.27298188005327295,0.01958009540631797,1.3406167025731914
1781551337556392704,2.144038677215576,-0.022621573880314827,0.5781330466270447,0.5265856981277466,0.025663001462817192,0.26985546946525574,-0.9625588059425354,-0.22823868691921234,-0.004566162824630737,-0.0957908034324646,-0.7757101863072862,0.11471761328997988,0.07456856203821198,-0.6160788338921356,-0.2732429275441104,0.02665491458783303,1.3460688734486785
1781551337566426624,2.1540725231170654,0.21493585407733917,0.5331024527549744,0.42422205209732056,0.03249155357480049,0.26888954639434814,-0.9626228213310242,-0.04228769615292549,0.021378368139266968,0.02680128812789917,-0.7744978385421047,0.11633518592176384,0.07179632750707678,-0.6176280783839695,-0.2722399409827262,0.0337403419131573,1.3509974734864332
1781551337576460544,2.164106607437134,0.4605250954627991,0.31125038862228394,0.3035922944545746,0.037462975829839706,0.26541730761528015,-0.9634054899215698,0.06690713763237,0.03061842918395996,0.1153373122215271,-0.7736910331543592,0.1163992296432381,0.06890910946589544,-0.6189546733687522,-0.2686367319501417,0.038866404751590915,1.3547374881699499
1781551337586494720,2.174140691757202,0.6007434725761414,0.3308749496936798,0.16757455468177795,0.04110926389694214,0.2601795494556427,-0.9646847248077393,0.03362828493118286,-0.0406818687915802,-0.07791781425476074,-0.7734184698566638,0.11539137485403789,0.0658973955593897,-0.6198114508730117,-0.26320816473916864,0.04258842993291582,1.356816645870945
1781551337596529664,2.184175729751587,0.7560819387435913,0.4429157078266144,0.13455241918563843,0.04515784978866577,0.2534775733947754,-0.9662866592407227,-0.11778968572616577,-0.08776712417602539,-0.16145992279052734,-0.7734482621972889,0.11395521294061652,0.06221642487046853,-0.6204201596885045,-0.2562735500123068,0.04669941294441659,1.3581169583963253
1781551337606563584,2.194209575653076,0.7327859401702881,0.429641991853714,0.22600750625133514,0.049929410219192505,0.24621303379535675,-0.9679288268089294,-0.13707235455513,0.02754490077495575,-0.17489343881607056,-0.7734750228098483,0.1125285525684561,0.05807680104240297,-0.6210482483456199,-0.24877106324660142,0.051538083140394764,1.3594984049632148
1781551337616597760,2.2042436599731445,0.9125295877456665,0.20747032761573792,0.12670381367206573,0.053411491215229034,0.23805342614650726,-0.9697823524475098,-0.0029659345746040344,0.11353959143161774,0.008265018463134766,-0.7734031864399735,0.11033045479050219,0.054185075055460344,-0.621883187871127,-0.2403611658417301,0.055020164309938,1.361101742284701
1781551337626631424,2.214277505874634,0.6129990816116333,0.11594093590974808,0.04948705807328224,0.05528784543275833,0.2303931713104248,-0.9715257287025452,0.02021264284849167,-0.022217512130737305,-0.011140286922454834,-0.7736418200236617,0.1078589482070147,0.05102530624499713,-0.6222871177606627,-0.23248170061224852,0.056846953418330404,1.3614282588242268
1781551337636665600,2.224311590194702,0.33749690651893616,0.003052467480301857,-0.010099835693836212,0.05585077404975891,0.22609856724739075,-0.9725019931793213,-0.1263921558856964,-0.19396355748176575,-0.02627730369567871,-0.773821252145792,0.10632410668886856,0.049438699813623144,-0.6224562308728419,-0.22807065318470668,0.0573669680129164,1.3613997044423933
1781551337646700544,2.234346628189087,0.33805590867996216,0.10146479308605194,0.05401176959276199,0.05623246729373932,0.22277213633060455,-0.9732474088668823,-0.17900468409061432,-0.03705741465091705,-0.08475124835968018,-0.7739999824855864,0.10512224665925518,0.04822464746954609,-0.6225333947892764,-0.22465715029095418,0.0577140170479503,1.3612351970018033
1781551337656734720,2.2443807125091553,0.21154086291790009,0.27074968814849854,0.13879643380641937,0.05834153667092323,0.21987995505332947,-0.9737808108329773,-0.22594407200813293,0.15717998147010803,-0.05310511589050293,-0.7738339379593636,0.10461882935473722,0.046524111348762165,-0.6229538632594814,-0.22169140833093262,0.0598408581783821,1.3622545399965134
1781551337666768640,2.2544145584106445,-0.16425859928131104,0.32002750039100647,0.15030182898044586,0.06159241497516632,0.21956728398799896,-0.9736511707305908,-0.23305542767047882,0.012122184038162231,0.00839543342590332,-0.7735063524072696,0.10550382591407517,0.045203548163421,-0.6233085708181298,-0.22137090173282278,0.06317504137677087,1.3635855901381297
1781551337676802560,2.264448642730713,-0.2139023095369339,0.20578734576702118,0.22921474277973175,0.06464075297117233,0.2215772569179535,-0.9729979634284973,-0.02621912956237793,0.030452147126197815,-0.03061830997467041,-0.7728196640932741,0.1072319903572414,0.04474711503960761,-0.6238980267387544,-0.2234316346749192,0.06633714204467706,1.3657983661061268
1781551337686836736,2.2744827270507812,-0.32437852025032043,0.038504067808389664,0.15700367093086243,0.06629572808742523,0.223793163895607,-0.9723792672157288,0.07034672796726227,-0.1494370847940445,-0.17764508724212646,-0.7721178655892127,0.10859859558613547,0.04490764542012799,-0.624518765974259,-0.2257046201512495,0.06807353341482655,1.3679323557873833
1781551337696871424,2.284517526626587,-0.2443787306547165,-0.029688701033592224,0.17213255167007446,0.06658290326595306,0.22702151536941528,-0.9716110229492188,0.08711888641119003,-0.15786868333816528,0.15045928955078125,-0.7714249907916034,0.10993489355196175,0.045921831563492894,-0.6250672358616284,-0.22901824619553446,0.0684213823491567,1.3698234402196512
1781551337706905600,2.2945516109466553,0.22434747219085693,0.01128935907036066,0.1586359143257141,0.06684917956590652,0.22691354155540466,-0.9716179370880127,0.08607440441846848,0.05700674653053284,0.2404930591583252,-0.7709141497574248,0.10993934090128052,0.04587338868816694,-0.6256999057871002,-0.2289073766154854,0.06869366604028689,1.3714888791038986
1781551337716939776,2.3045856952667236,0.0891084223985672,0.05043170228600502,0.20133891701698303,0.06753332912921906,0.224761962890625,-0.9720706343650818,0.052705928683280945,0.1946258544921875,-0.10513883829116821,-0.7704181425530676,0.10926065251853175,0.04501993383529556,-0.6264912152742242,-0.22669874296500084,0.06936223543704362,1.3733552631979242
1781551337726973440,2.314619541168213,-0.10285995900630951,-0.236766517162323,0.15108665823936462,0.0672156810760498,0.22449544072151184,-0.9721542596817017,0.1502068042755127,0.03325603902339935,-0.24476468563079834,-0.7698607040981729,0.10901201655577535,0.045158200287045626,-0.6272094336696793,-0.2264252230484548,0.06903110515219237,1.375138619145891
1781551337737007616,2.3246536254882812,-0.35406848788261414,-0.32021892070770264,0.2111326903104782,0.06471583992242813,0.22688013315200806,-0.971770167350769,0.17614415287971497,-0.20153528451919556,0.05212295055389404,-0.7691141686771852,0.10910826869506177,0.04701381868294353,-0.6279717810663681,-0.22887307874613338,0.06649763842153467,1.377073012286892
1781551337747042560,2.334688663482666,-0.43560728430747986,-0.2298794388771057,0.30467379093170166,0.06265326589345932,0.23053333163261414,-0.9710453152656555,0.02046135812997818,0.0010798275470733643,-0.13227194547653198,-0.7680185042809115,0.10982203929132792,0.04915764855777265,-0.6290232554838412,-0.23262573533586348,0.0644321544955857,1.3799947931765264
1781551337757076480,2.3447225093841553,-0.2579483389854431,-0.22136692702770233,0.2893877923488617,0.061155665665864944,0.23379869759082794,-0.9703598022460938,-0.05911099165678024,0.011089593172073364,-0.025443971157073975,-0.7668103769087615,0.1105488453494616,0.05098086689581359,-0.6302235892559553,-0.23598283432453415,0.06294045443582975,1.3833411078625382
1781551337767110656,2.3547565937042236,-0.09111088514328003,-0.21567149460315704,0.2115766406059265,0.05960357189178467,0.23548544943332672,-0.9700484871864319,-0.05639922618865967,0.03175698220729828,-0.020277440547943115,-0.7658518150438666,0.11064325925304515,0.05228611394778143,-0.6312648554235756,-0.23771803909430447,0.0613667616654005,1.3860560066655216
1781551337777144576,2.364790678024292,0.18661554157733917,-0.228789284825325,0.15843512117862701,0.05793042853474617,0.2348451465368271,-0.9703050255775452,0.013557005673646927,0.2977476418018341,-0.016816556453704834,-0.7652487338525593,0.10979649263266257,0.052841455210992705,-0.6320973384798312,-0.23705924976307244,0.05963253096137711,1.3878962100463232
1781551337787178496,2.3748245239257812,0.35417336225509644,-0.3102702796459198,0.10473567247390747,0.055588241666555405,0.23199760913848877,-0.9711266756057739,0.07923842966556549,0.24830329418182373,0.057186245918273926,-0.7648978751277759,0.10787398114983614,0.05291366141178673,-0.6328464668369455,-0.23413081755285173,0.057178582746473416,1.3891324357405503
1781551337797213440,2.384859561920166,0.4326907992362976,-0.3147622346878052,0.07478469610214233,0.05268508940935135,0.22810764610767365,-0.9722094535827637,0.030551601201295853,-0.04137057065963745,0.16814756393432617,-0.7647594736744051,0.10537440259578776,0.05283482248745632,-0.6334410793979742,-0.23013363695193884,0.05413813572410316,1.3897651735249112
1781551337807247616,2.3948936462402344,0.37534281611442566,-0.18600906431674957,0.03530066832900047,0.050295352935791016,0.22410333156585693,-0.9732667207717896,-0.023684024810791016,-0.17484796047210693,0.27694714069366455,-0.7647149685706135,0.10300584251206278,0.052501857815755566,-0.6339119267380947,-0.22602286388119003,0.05163091613749899,1.3901549689903347
1781551337817281792,2.4049277305603027,0.39402276277542114,-0.11145293712615967,-0.06170976907014847,0.04891175031661987,0.22052548825740814,-0.9741540551185608,0.012977898120880127,-0.16701294481754303,0.38316595554351807,-0.764884107246474,0.10115183839998582,0.05187745986505676,-0.6340578660804651,-0.22235319139881854,0.05016732983612701,1.3899044790819528
1781551337827315456,2.414961576461792,0.5484379529953003,-0.05717478692531586,-0.1823086142539978,0.04776319861412048,0.21597136557102203,-0.9752307534217834,0.12505784630775452,-0.041685476899147034,0.22669565677642822,-0.7655116947237487,0.09902505114842751,0.0507804660815928,-0.6337248990904126,-0.21768656001976133,0.04893720210407558,1.3883295019065152
1781551337837349632,2.4249956607818604,0.6955054402351379,0.011980848386883736,-0.2741413414478302,0.04708745703101158,0.20997995138168335,-0.9765711426734924,0.12712213397026062,-0.01129525899887085,0.04544931650161743,-0.7665186045748825,0.09651136901075952,0.04898963274125059,-0.633036239242677,-0.2115544479619243,0.04817981606631676,1.3857382991888343
1781551337847384576,2.435030698776245,0.7699783444404602,0.08085604757070541,-0.41409045457839966,0.04682108014822006,0.20284633338451385,-0.9780905842781067,0.061974089592695236,-0.034160420298576355,-0.04894798994064331,-0.768006498840554,0.09371175028598532,0.04661356961838353,-0.6318318027999287,-0.20426381819956493,0.047833366633965174,1.3817522468636765
1781551337857418496,2.4450645446777344,0.7439195513725281,0.032223936170339584,-0.46859365701675415,0.04656146094202995,0.1956104189157486,-0.9795756936073303,0.00020673125982284546,0.01074942946434021,-0.13057750463485718,-0.7697681541854489,0.09088873322705404,0.04417439792349697,-0.6302736634682602,-0.19687986027655774,0.047496524213152654,1.376871577450929
1781551337867452672,2.4550986289978027,0.5436264276504517,0.03604770079255104,-0.42588934302330017,0.046035945415496826,0.18926572799682617,-0.9808461666107178,-0.08470171689987183,-0.08118772506713867,-0.21207070350646973,-0.7715189090091007,0.08832684582453092,0.04213421968195211,-0.6286346917186372,-0.19041430483078822,0.046900510458729595,1.371882051916775
1781551337877486592,2.465132713317871,0.2376808524131775,0.07148119807243347,-0.3579201400279999,0.045878902077674866,0.18570971488952637,-0.9815329909324646,-0.18273498117923737,-0.18694569170475006,-0.0392037034034729,-0.7729250890668139,0.08695993192042185,0.04088362684755176,-0.6271788669625933,-0.18679409726294532,0.04670809099261775,1.367725989141436
1781551337887520512,2.4751665592193604,0.028012307360768318,0.138724684715271,-0.2801837921142578,0.04626571759581566,0.1845516562461853,-0.9817332625389099,-0.19896042346954346,-0.1755794882774353,0.03297227621078491,-0.7740112932554873,0.08669360153090433,0.04021933427486505,-0.6259179093060063,-0.1856156634199908,0.047091725433965,1.3643915734246157
1781551337897554688,2.4852006435394287,-0.1914827674627304,0.14450694620609283,-0.19764123857021332,0.04731133580207825,0.18547606468200684,-0.9815091490745544,-0.10912469029426575,-0.15321899950504303,0.04527568817138672,-0.7747449366356303,0.08743963672894704,0.03999651344515149,-0.6249198469745378,-0.18655630806553014,0.04816536185810471,1.3620279997122942
1781551337907589632,2.4952356815338135,-0.35109639167785645,0.10745277255773544,-0.1854466199874878,0.04819786176085472,0.1883171796798706,-0.9809248447418213,0.01790320873260498,-0.1576927900314331,0.07287430763244629,-0.7752271205872604,0.08888185962282946,0.04046701895064172,-0.6240875412014341,-0.18944838797737054,0.04909563558952945,1.3602764437908796
1781551337917623552,2.5052695274353027,-0.32891225814819336,0.02987169846892357,-0.20002183318138123,0.0485115721821785,0.19184544682502747,-0.9802254438400269,0.0650901049375534,-0.21455055475234985,0.06219571828842163,-0.7756813879396479,0.09041668003521099,0.04137746139071856,-0.6232424434942241,-0.193042181965316,0.049449872278668365,1.3585042239164724
1781551337927657728,2.515303611755371,-0.35561659932136536,-0.043024614453315735,-0.21421115100383759,0.0480683334171772,0.1952231079339981,-0.9795802235603333,0.0719573050737381,-0.2286703735589981,-0.09213608503341675,-0.7761849851919774,0.09165824724013434,0.04252838480820146,-0.6223560102974078,-0.19648492431775996,0.049031012333953954,1.3565256338148735
1781551337937691648,2.5253376960754395,-0.4367114305496216,-0.06199044734239578,-0.20214757323265076,0.04708024859428406,0.19926048815250397,-0.978814959526062,0.01682356372475624,-0.16181540489196777,-0.09685337543487549,-0.7766404736259847,0.09299159156980338,0.04410313060610945,-0.6214798513341988,-0.20060321098927617,0.048062191210731096,1.3545828481304798
1781551337947726848,2.535372734069824,-0.5105222463607788,-0.001900212373584509,-0.17153505980968475,0.04636148363351822,0.20394299924373627,-0.9778844118118286,-0.04260782152414322,-0.09942029416561127,0.012933850288391113,-0.7769884023314988,0.09466504202603274,0.04578577360077848,-0.6206700531131057,-0.2053838899685906,0.047374510680128525,1.352919181441831
1781551337957760512,2.5454065799713135,-0.5728708505630493,-0.06434108316898346,-0.18900273740291595,0.04570171236991882,0.2093186229467392,-0.9767789244651794,-0.014604296535253525,-0.1191696971654892,0.10206884145736694,-0.7772651124566866,0.09663474606211372,0.04766826064584486,-0.6198777773784944,-0.2108780960497117,0.046754086059772104,1.351392301755464
1781551337967794688,2.555440664291382,-0.5635883808135986,-0.19680166244506836,-0.2445134073495865,0.04397754371166229,0.21506869792938232,-0.975608229637146,0.08842296898365021,-0.08790194988250732,0.077018141746521,-0.7776289112098228,0.0984321922938688,0.05006978204109066,-0.6189487483530827,-0.21676217024330227,0.0450465587337007,1.349427621894037
1781551337977828608,2.565474510192871,-0.4715469181537628,-0.29240208864212036,-0.31523391604423523,0.04089199751615524,0.22029660642147064,-0.974575400352478,0.12263643741607666,-0.020681142807006836,0.0610164999961853,-0.7781662571687785,0.09961266402196069,0.052816732143521804,-0.6178551518479248,-0.22211853834742093,0.04193418480583566,1.3468065063766954
1781551337987862528,2.5755085945129395,-0.41292062401771545,-0.34362080693244934,-0.3631199598312378,0.037030670791864395,0.2246861457824707,-0.973727285861969,0.0932030975818634,0.016829967498779297,0.071963369846344,-0.7789269436931815,0.10023949292160482,0.05557329526769146,-0.6165521163531043,-0.22662093819156434,0.03801149676770516,1.3434487836531692
1781551337997897728,2.585543632507324,-0.30731216073036194,-0.4230632781982422,-0.4009853005409241,0.03252062574028969,0.22834467887878418,-0.97303706407547,0.09557690471410751,0.05281376838684082,0.06544429063796997,-0.779813923979562,0.10038909447366351,0.058339528292624405,-0.6151493896212339,-0.23037710092255756,0.03340934096171222,1.339665223911583
1781551338007931648,2.5955777168273926,-0.34753069281578064,-0.47484952211380005,-0.4092240631580353,0.027073953300714493,0.23153020441532135,-0.9724509119987488,0.062098413705825806,-0.01773931086063385,0.07810276746749878,-0.7807832795644607,0.10007327765553604,0.06131789302821197,-0.6136799336350506,-0.23365033461774157,0.027833756282378466,1.3355337411912733
1781551338017965568,2.605611562728882,-0.48675382137298584,-0.4854474365711212,-0.298960417509079,0.021644357591867447,0.23587778210639954,-0.9715416431427002,0.005272142589092255,-0.00241832435131073,0.0037530064582824707,-0.7814880458812439,0.10022151759497289,0.06469016315761444,-0.6124110842529431,-0.23812173882313376,0.022274678678184952,1.3320448502581226
1781551338027999744,2.61564564704895,-0.45541802048683167,-0.4677736461162567,-0.27839043736457825,0.016221970319747925,0.24037466943264008,-0.9705446362495422,-0.031282391399145126,0.07664191722869873,-0.13551920652389526,-0.7820022154821539,0.10042440091796036,0.0681368296095088,-0.6113468067104383,-0.2427518242216763,0.01671273986627346,1.3290917899534067
1781551338038033664,2.6256797313690186,-0.6334505677223206,-0.2700199484825134,-0.1922595202922821,0.011817720718681812,0.2456130087375641,-0.9692959189414978,-0.07254770398139954,0.1269913613796234,-0.2493930459022522,-0.7822964087002422,0.10123230993644713,0.07144265983530287,-0.6104592166386097,-0.24815201822563981,0.012191462817004468,1.3267991925067086
1781551338048068608,2.635714530944824,-0.31392478942871094,-0.4002663791179657,-0.32613611221313477,0.009142809547483921,0.2508014738559723,-0.9679953455924988,0.043133802711963654,0.12534290552139282,-0.12950825691223145,-0.7827093503387008,0.10257962633641304,0.0740252369667043,-0.6093963482243838,-0.2535081123588829,0.00944481507214173,1.324280677245107
1781551338058102528,2.6457486152648926,-0.40777114033699036,-0.5132763981819153,-0.31067806482315063,0.002898911479860544,0.2541416585445404,-0.9671626687049866,0.001480362843722105,-0.0884922444820404,0.4696651101112366,-0.7833678410785544,0.10210113473086595,0.07742110085798827,-0.6082073090369063,-0.25696011046266065,0.0029973271017730073,1.3207562956004768
1781551338068136704,2.655782699584961,-0.3282230496406555,-0.09155499935150146,-0.20068229734897614,-0.00033367553260177374,0.2579990029335022,-0.9661450982093811,-0.14222918450832367,-0.032596200704574585,-0.21169602870941162,-0.7838134582966261,0.10274952189833124,0.07981211017279478,-0.6072141959421506,-0.26095052019016085,-0.00034536790486889614,1.3181902521591726
1781551338078170624,2.66581654548645,-0.16804055869579315,-0.2466227412223816,-0.23122581839561462,-0.002270687138661742,0.2599109411239624,-0.9656299352645874,-0.09953596442937851,0.015922188758850098,0.0681384801864624,-0.7842900703664335,0.10300448012505063,0.0810871105116937,-0.6063859747886714,-0.2629299876344814,-0.0023515042570883076,1.3160147640941608
1781551338088204544,2.6758506298065186,-0.13600857555866241,-0.2542060911655426,-0.2979060709476471,-0.005513123702257872,0.26137328147888184,-0.9652220606803894,0.03308575972914696,0.005121469497680664,-0.023913681507110596,-0.784926295002074,0.10269636202740937,0.08271898410827379,-0.6053938292824317,-0.2644446617396308,-0.005711705144132199,1.3131972866096113
1781551338098239744,2.6858856678009033,0.08009015023708344,-0.27479231357574463,-0.2897821068763733,-0.00875281635671854,0.2618856430053711,-0.965059220790863,0.041009895503520966,0.1609659194946289,-0.08393675088882446,-0.7856758902640942,0.10201597246313777,0.08404243569022161,-0.604353475336031,-0.26497553402531776,-0.00906947033733773,1.310162546503404
1781551338108273408,2.6959195137023926,0.18822860717773438,-0.2412482053041458,-0.3315231502056122,-0.012208529748022556,0.2602402865886688,-0.9654666781425476,-0.02465669810771942,0.1350386142730713,-0.015383541584014893,-0.7865958449733638,0.10040272150157699,0.08476994656581487,-0.6033245115818607,-0.263271070184035,-0.012644536597946336,1.3069200245757473
1781551338118307584,2.705953598022461,0.10740752518177032,-0.10535936057567596,-0.2942735254764557,-0.014611680060625076,0.25883007049560547,-0.9658123254776001,-0.12985852360725403,-0.051814109086990356,-0.08130675554275513,-0.7875499022687429,0.09921706815647194,0.08514575758994938,-0.6022219178749816,-0.2618107990727145,-0.01512774754456355,1.3036659899409462
1781551338128341760,2.7159876823425293,0.06976614892482758,-0.08436007052659988,-0.3104724586009979,-0.016201399266719818,0.2579420506954193,-0.9660245180130005,-0.10226784646511078,-0.0393599271774292,-0.04897487163543701,-0.7884571743767648,0.09849177928139774,0.08536451712619492,-0.6011219127128882,-0.26089158003352153,-0.01676963582016731,1.300583378152913
1781551338138375424,2.7260215282440186,0.06938691437244415,-0.13465240597724915,-0.37056589126586914,-0.018135804682970047,0.2572334110736847,-0.9661791324615479,-0.0074074044823646545,0.04072496294975281,-0.012000799179077148,-0.7894709003186048,0.09775276633398,0.08576038175790762,-0.5998543658562673,-0.2601581753231621,-0.01876844015703699,1.2970551068826617
1781551338148410624,2.7360565662384033,0.14244647324085236,-0.14018672704696655,-0.3872181177139282,-0.020577503368258476,0.2561400532722473,-0.9664206504821777,-0.0008000601083040237,0.0020081400871276855,0.026845455169677734,-0.7906209144693631,0.09672157340510301,0.08622424133993689,-0.5984387400679095,-0.2590269145819063,-0.021289275480758638,1.2930607517424193
1781551338158444544,2.7460906505584717,0.14959973096847534,-0.04543011635541916,-0.2685801386833191,-0.022311285138130188,0.2546205222606659,-0.9667836427688599,-0.03196422755718231,-0.043805092573165894,0.07180988788604736,-0.7916384435771466,0.09571063150693959,0.08629981147860882,-0.5972440595373387,-0.2574552799413553,-0.02307375117927842,1.2896870818447062
1781551338168478720,2.75612473487854,0.12757165729999542,-0.03657936677336693,-0.23627305030822754,-0.023217998445034027,0.25312331318855286,-0.967155396938324,0.007333600893616676,-0.045649558305740356,0.019432008266448975,-0.7924346577382765,0.09492782871630565,0.08608729074143734,-0.59634308123468,-0.2559073596943356,-0.02400187164269539,1.2871683178364517
1781551338178512640,2.7661585807800293,-0.04121603071689606,-0.10802491754293442,-0.22043736279010773,-0.024528268724679947,0.25262561440467834,-0.9672531485557556,0.04970527067780495,-0.056718021631240845,-0.10623317956924438,-0.7931082292596534,0.09442259678194892,0.08635853034015012,-0.5954880357667462,-0.2553929374297869,-0.02535325208581321,1.2848065921372134
1781551338188546560,2.7761926651000977,-0.22522234916687012,-0.1275719851255417,-0.18295229971408844,-0.026255816221237183,0.253826767206192,-0.9668932557106018,-0.0037277042865753174,-0.0911375880241394,-0.1099347472190857,-0.7935939331645028,0.09447455122367597,0.08733799293723564,-0.5946891793004836,-0.2566345655709393,-0.027148151885965276,1.2826822776927829
1781551338198581760,2.7862277030944824,-0.3854181468486786,-0.04433062672615051,-0.12171903997659683,-0.027551084756851196,0.2568286061286926,-0.9660641551017761,-0.0846315324306488,-0.08907350897789001,-0.0465548038482666,-0.7938645955684337,0.09537958423044451,0.08871665872793504,-0.5939790244080052,-0.25973931410259693,-0.02851116822361074,1.2809876712411823
1781551338208615424,2.7962615489959717,-0.3454552888870239,0.07056773453950882,-0.08753390610218048,-0.027641987428069115,0.26047930121421814,-0.965083658695221,-0.052314069122076035,-0.04552873969078064,8.732080459594727e-05,-0.7939831125843699,0.09689827105533595,0.08982705994402577,-0.5934076417264993,-0.2635186166410693,-0.028634236169038655,1.2798501962294395
1781551338218649600,2.80629563331604,-0.24721740186214447,0.053034938871860504,-0.15458030998706818,-0.027220452204346657,0.2632225751876831,-0.9643510580062866,0.0736987292766571,-0.038720011711120605,0.03593003749847412,-0.7942232434986595,0.09821149069907023,0.09043774946548461,-0.5927772444319656,-0.26636106339307103,-0.028219211701252456,1.2785551703941533
1781551338228683776,2.8163297176361084,-0.2810680568218231,-0.17489250004291534,-0.22589923441410065,-0.028240231797099113,0.26571935415267944,-0.9636366963386536,0.18287280201911926,-0.05937477946281433,0.12560880184173584,-0.7946341065209817,0.09901709319071106,0.09152738258901924,-0.5919247084476774,-0.26895002786770805,-0.029297505092401723,1.2764969620493816
1781551338238718464,2.826364517211914,-0.2333708256483078,-0.4491228759288788,-0.32308757305145264,-0.03205442801117897,0.26816317439079285,-0.9628400802612305,0.20620298385620117,-0.09195467829704285,0.11043834686279297,-0.7951706479434896,0.098986956545224,0.09370986469727673,-0.590866929602363,-0.27148585424775257,-0.03327924908830933,1.2735556801952916
1781551338248752640,2.8363986015319824,-0.23857569694519043,-0.39788469672203064,-0.39438652992248535,-0.03730637580156326,0.2701495587825775,-0.9620953798294067,0.09489305317401886,-0.11762270331382751,0.0016461610794067383,-0.7959342488108844,0.09837866035278985,0.09630142029215945,-0.5895222699192726,-0.2735483575123815,-0.03875675510222932,1.2696677017694087
1781551338258786560,2.846432685852051,-0.4098263084888458,-0.3501591384410858,-0.3692931532859802,-0.041819389909505844,0.2731994390487671,-0.9610479474067688,-0.022160708904266357,-0.025411993265151978,-0.006099820137023926,-0.7967331797485597,0.09845623802114449,0.09890593831856889,-0.5879967526218339,-0.2767174411064831,-0.043486928115328095,1.2655095314723803
1781551338268820480,2.85646653175354,-0.4962107241153717,-0.47277215123176575,-0.377971351146698,-0.04680920019745827,0.2773476243019104,-0.9596286416053772,-0.04420948028564453,0.0790976881980896,0.06535685062408447,-0.7974131157433483,0.09884958281187978,0.10205108866403653,-0.5864696098870281,-0.28103233464511046,-0.04873981989064799,1.261371972718985
1781551338278854656,2.8665006160736084,-0.7076829671859741,-0.32507655024528503,-0.24411365389823914,-0.05176982656121254,0.28289559483528137,-0.9577525854110718,-0.04194965958595276,0.06950613856315613,-0.09612619876861572,-0.7978384012196695,0.09981596648627701,0.10564323287303416,-0.5850899119836737,-0.286811693678755,-0.05400089371346866,1.2577120054834627
1781551338288889600,2.876535654067993,-0.8870673775672913,-0.18234308063983917,-0.1727936714887619,-0.05458316579461098,0.2905910909175873,-0.9552892446517944,0.019564244896173477,0.01141086220741272,-0.08655035495758057,-0.7978885602653717,0.10227873694462546,0.10906168815271992,-0.5839678112607086,-0.2948445366859663,-0.05707578574617409,1.2551430585274057
1781551338298923776,2.8865697383880615,-0.8694844245910645,-0.36931562423706055,-0.11743214726448059,-0.05745146423578262,0.29900380969047546,-0.9525209069252014,0.21415922045707703,0.02918219566345215,0.12827163934707642,-0.7977163965803008,0.10500532442644353,0.11275388974049874,-0.583017056957231,-0.3036485448158644,-0.060242192579089825,1.2530539413071746
1781551338308957696,2.896603584289551,-0.7095032334327698,-0.6321251392364502,-0.06421473622322083,-0.06264898926019669,0.30643749237060547,-0.9498268961906433,0.3497430980205536,0.04144763946533203,0.08518761396408081,-0.7972537009964755,0.10658163049987321,0.11716184886301344,-0.5824945983693048,-0.31144820147466235,-0.06586291790034088,1.2516286936895935
1781551338318991616,2.906637668609619,-0.6663709878921509,-0.5742324590682983,-0.05683405324816704,-0.06876595318317413,0.3129304051399231,-0.9472833871841431,0.24894171953201294,-0.0820191502571106,-0.09106194972991943,-0.7966846298226098,0.10746898673096122,0.12169110109701003,-0.5821814877632199,-0.3182768215600935,-0.07246568421634265,1.2505051766410098
1781551338329025536,2.9166715145111084,-0.6558226943016052,-0.3722841143608093,-0.0031338054686784744,-0.0733238011598587,0.319227397441864,-0.9448372721672058,0.0898795872926712,-0.0606214702129364,-0.08525305986404419,-0.7961075464009509,0.10873441785856329,0.12553162808529372,-0.5819203917182575,-0.3249141296689758,-0.07744945847785276,1.2497032387662665
1781551338339060480,2.926706552505493,-0.42628276348114014,-0.25985947251319885,-0.04320426285266876,-0.07619145512580872,0.32427576184272766,-0.9428892135620117,0.15369084477424622,0.12442415952682495,-0.104245126247406,-0.7956690807065085,0.10998924228444962,0.1282877747842331,-0.5816831484186565,-0.3302460074720124,-0.08063117458688454,1.2490964353878111
1781551338349094656,2.9367406368255615,-0.3672197163105011,-0.3270251750946045,-0.11545369029045105,-0.07919201254844666,0.327898234128952,-0.9413880109786987,0.31489452719688416,0.15157869458198547,-0.04553520679473877,-0.7954975880820282,0.11064771846192951,0.13062573923709736,-0.5812722881056693,-0.3340779439396736,-0.08392501463442535,1.2479133225795096
1781551338359128832,2.94677472114563,-0.3965645432472229,-0.4376916289329529,-0.19924552738666534,-0.08327260613441467,0.33129656314849854,-0.9398448467254639,0.3881889879703522,0.056673407554626465,0.06429553031921387,-0.7954857806775804,0.11093234692559119,0.13331018150878962,-0.580624611432836,-0.3376774013138213,-0.08837173650537179,1.2459509363751076
1781551338369162496,2.956808567047119,-0.4843151867389679,-0.5667415261268616,-0.25459879636764526,-0.088876873254776,0.33527785539627075,-0.9379177093505859,0.3475591242313385,-0.008800804615020752,0.04179954528808594,-0.7955700358187291,0.11105577810871625,0.13677626575758728,-0.5796786231084842,-0.34190013859034457,-0.0944776671183684,1.2430490617119685
1781551338379197696,2.966843605041504,-0.48447468876838684,-0.45600777864456177,-0.2677878439426422,-0.09468704462051392,0.3396584987640381,-0.9357705116271973,0.24437576532363892,-0.061551809310913086,-0.08829259872436523,-0.7956950903022625,0.11131514745333833,0.14044100835763593,-0.5785798402968096,-0.34655379313016144,-0.10084294616968782,1.2397506106095517
1781551338389231616,2.9768776893615723,-0.37364938855171204,-0.29632410407066345,-0.28703558444976807,-0.09907011687755585,0.34346404671669006,-0.9339258670806885,0.17298369109630585,-0.062061458826065063,-0.11149954795837402,-0.7959891031281703,0.11178961589052186,0.14331831804739356,-0.5773770844458549,-0.35060286221883846,-0.10568397274241695,1.2363500781564516
1781551338399265536,2.9869115352630615,-0.30615848302841187,-0.37799474596977234,-0.32984188199043274,-0.10320784151554108,0.34615054726600647,-0.9324848055839539,0.25758102536201477,0.02476009726524353,-0.03132134675979614,-0.7964790091996657,0.11190053735227458,0.14572529573846002,-0.5760760256403106,-0.3534648803073287,-0.11023179792413335,1.2326513017712337
1781551338409299712,2.99694561958313,-0.2888346314430237,-0.5060917735099792,-0.36055105924606323,-0.10859113186597824,0.34866443276405334,-0.9309356212615967,0.39029890298843384,0.08590587973594666,-0.03930974006652832,-0.7969637766101824,0.11158432583336932,0.14859724045101835,-0.5747317358622247,-0.35614573509883807,-0.11612252605518808,1.2286398231352853
1781551338419333632,3.0069797039031982,-0.3671795129776001,-0.5311046838760376,-0.39851683378219604,-0.11470279842615128,0.3511732816696167,-0.9292581081390381,0.37527716159820557,0.0134812593460083,-0.024355173110961914,-0.7975075369826992,0.11108436443494774,0.15176039151962467,-0.5732459023190183,-0.35882389921159563,-0.12281359106224447,1.224159687510976
1781551338429368576,3.017014503479004,-0.45458072423934937,-0.5556198358535767,-0.38331496715545654,-0.12125253677368164,0.35461539030075073,-0.927116870880127,0.30341196060180664,0.0009296238422393799,0.04612022638320923,-0.7979691504804624,0.11086822278209199,0.15540202308108433,-0.5716674156403919,-0.3625026918316348,-0.1300464101395112,1.2194348010105553
1781551338439403520,3.0270495414733887,-0.5001628398895264,-0.44668060541152954,-0.40442371368408203,-0.12728025019168854,0.35852277278900146,-0.9248033165931702,0.25702571868896484,-0.008882880210876465,-0.041062772274017334,-0.798424338899736,0.11102501484986116,0.1589710443543063,-0.5700177111278295,-0.36668498318458925,-0.13677029518318623,1.2146266388200677
1781551338449437696,3.037083625793457,-0.4740694761276245,-0.3512480854988098,-0.4395465552806854,-0.13241423666477203,0.3624841570854187,-0.9225354790687561,0.22793425619602203,-0.0859491229057312,-0.013026654720306396,-0.7990425639496078,0.11152388169874396,0.1621563630636277,-0.5681537909280179,-0.37093195458362177,-0.1425592845532248,1.2094071975482288
1781551338459471616,3.0471177101135254,-0.49492147564888,-0.36077022552490234,-0.5034595131874084,-0.13735613226890564,0.36635342240333557,-0.920281708240509,0.2765315771102905,-0.05827850103378296,0.08027017116546631,-0.7998235698249133,0.1121014696899627,0.16520410993017323,-0.5660592609056477,-0.37508694218924715,-0.1481607120605564,1.203623622460101
1781551338469505536,3.0571515560150146,-0.43368130922317505,-0.47007009387016296,-0.5544396042823792,-0.1431000828742981,0.369974821805954,-0.9179548025131226,0.3631013035774231,0.03400164842605591,0.014161467552185059,-0.800714621010417,0.11239528592148557,0.16849302409790423,-0.5637672911644749,-0.37898190561366757,-0.15464541940102902,1.1972014286820776
1781551338479540480,3.0671865940093994,-0.36797231435775757,-0.5136485695838928,-0.5606713891029358,-0.1497332900762558,0.37274301052093506,-0.9157742857933044,0.355238676071167,0.052809327840805054,-0.04021930694580078,-0.8016464395700531,0.1120889677168485,0.1718979584984748,-0.5614713492834552,-0.38196330054878674,-0.162070474203921,1.1905850621794731
1781551338489574656,3.0772206783294678,-0.44594836235046387,-0.5447998642921448,-0.5641569495201111,-0.15680183470249176,0.375686913728714,-0.9133852124214172,0.25805914402008057,0.08839389681816101,-0.058874309062957764,-0.8025285995541563,0.11175213726962314,0.17555299913069386,-0.5591426721120887,-0.38513787822785217,-0.17001385242760833,1.1838236424007034
1781551338499608576,3.087254524230957,-0.29332366585731506,-0.37652257084846497,-0.5566497445106506,-0.16312867403030396,0.378187358379364,-0.9112427830696106,0.15055543184280396,0.059968769550323486,-0.1471526026725769,-0.8034784623718433,0.11146296653031611,0.17875857770542736,-0.5568156925267166,-0.3878374314226178,-0.1771414033883065,1.1771576920328268
1781551338509642496,3.0972886085510254,-0.2650874853134155,-0.3806065320968628,-0.5526033639907837,-0.16852769255638123,0.37968868017196655,-0.9096344709396362,0.09833724796772003,0.0022235512733459473,-0.0068541765213012695,-0.8045473018534385,0.11102713261537933,0.18126150056153234,-0.5545455724638805,-0.38945975821573586,-0.1831925116127113,1.1707401017971517
1781551338519677696,3.10732364654541,-0.24520671367645264,-0.3432331681251526,-0.5870134830474854,-0.17409685254096985,0.3811385929584503,-0.9079777598381042,0.15824295580387115,0.04101106524467468,0.11020255088806152,-0.8056362295894945,0.11054662449843058,0.18382205904854124,-0.5522130240929688,-0.39102754697809666,-0.18944204611748258,1.1641445968177655
1781551338529711616,3.1173577308654785,-0.26829394698143005,-0.344545841217041,-0.5918822884559631,-0.17942218482494354,0.38222649693489075,-0.9064825773239136,0.26285725831985474,-0.01149892807006836,0.031375765800476074,-0.8068437468337717,0.11002276139896774,0.1861550815555143,-0.5497677709800077,-0.39220453344364153,-0.1954066126881998,1.1573029250108753
1781551338539745536,3.1273915767669678,-0.41308361291885376,-0.45043471455574036,-0.5869482755661011,-0.18526890873908997,0.38427186012268066,-0.904439389705658,0.32792332768440247,-0.03156498074531555,0.10243743658065796,-0.8078858897569218,0.10976966995633106,0.18902628736933472,-0.5473025323747388,-0.3944190039003151,-0.20204880616680315,1.1503591214179332
1781551338549779712,3.137425661087036,-0.5252562165260315,-0.5527251362800598,-0.605040431022644,-0.19213439524173737,0.3874026834964752,-0.9016671180725098,0.33092835545539856,-0.03994479775428772,0.07735681533813477,-0.8087900332894987,0.10973153006593181,0.1926796470356144,-0.5446946618375943,-0.39781260283237846,-0.2099478807548708,1.1429244355660484
1781551338559813376,3.1474595069885254,-0.5727608799934387,-0.5719062685966492,-0.5584236979484558,-0.19947460293769836,0.3913079798221588,-0.8983807563781738,0.25970107316970825,0.036823123693466187,0.04428529739379883,-0.8095226987511527,0.10990374489808345,0.19680141589834488,-0.5420917272277669,-0.4020524922482963,-0.21849332485460382,1.1354267684598207
1781551338569848576,3.15749454498291,-0.4517172873020172,-0.5892791748046875,-0.4950505495071411,-0.20681342482566833,0.3948606848716736,-0.8951610326766968,0.16852913796901703,0.11675125360488892,0.025043845176696777,-0.8100885471309829,0.10988153698241401,0.20086198194159752,-0.5397565347361477,-0.4059162081329761,-0.22705105853754584,1.128569797578557
1781551338579882496,3.1675286293029785,-0.4293544590473175,-0.4850427508354187,-0.43868234753608704,-0.21346436440944672,0.39785006642341614,-0.8922713994979858,0.11422121524810791,0.042869508266448975,-0.040330469608306885,-0.8105523626353777,0.10975945708018157,0.20449242308610316,-0.5377179716041268,-0.4091722845129633,-0.2348234430982544,1.1225324561285082
1781551338589916672,3.177562713623047,-0.41045746207237244,-0.45506301522254944,-0.44793206453323364,-0.21940051019191742,0.4005894064903259,-0.8896019458770752,0.09607899188995361,-0.10150188207626343,0.0676109790802002,-0.8110260274488307,0.10972817555332871,0.20774687905091,-0.5357591423575525,-0.4121600159192969,-0.24180225499814445,1.1167887681545958
1781551338599950592,3.187596559524536,-0.4981175363063812,-0.5525261759757996,-0.4680785834789276,-0.22565168142318726,0.40359094738960266,-0.8866767287254333,0.17131514847278595,-0.10145166516304016,0.11195749044418335,-0.8114851768850092,0.10975858409377179,0.21122187797152797,-0.533694748339052,-0.4154382507542558,-0.24920146072429852,1.1107227853328763
1781551338609985536,3.197631597518921,-0.5650131702423096,-0.6330950856208801,-0.4969925284385681,-0.23294557631015778,0.407231867313385,-0.8831186294555664,0.21539795398712158,0.00048294663429260254,0.0627603530883789,-0.8118306341366012,0.1098142241918032,0.21536368870921754,-0.5314980832843257,-0.41942118810177526,-0.2579017835810317,1.1041473095329892
1781551338620019712,3.2076656818389893,-0.4550829827785492,-0.6333193182945251,-0.5240766406059265,-0.24066901206970215,0.4105277359485626,-0.8795142769813538,0.17598699033260345,0.021326512098312378,0.05035167932510376,-0.8122192079659508,0.10964294901891303,0.21959343642255616,-0.5292041296860792,-0.42303272931597496,-0.26710003676241967,1.0972513859777298
1781551338630053632,3.2176995277404785,-0.5307066440582275,-0.589687705039978,-0.527999997138977,-0.24821926653385162,0.4134008586406708,-0.8760632872581482,0.11764979362487793,0.05684453248977661,0.03747081756591797,-0.8126719664920983,0.1093668205164871,0.22362298892054602,-0.5268737125557168,-0.42618585011674276,-0.27609841798556894,1.0902844616949974
1781551338640087552,3.227733612060547,-0.5236825346946716,-0.528036892414093,-0.5026586651802063,-0.25526973605155945,0.4168882369995117,-0.8723769783973694,0.08189937472343445,0.06293967366218567,0.043870508670806885,-0.8131166515280309,0.10954359368001355,0.22762186376974652,-0.5244328929123551,-0.43001916776291765,-0.28466696107243256,1.0830871723408844
1781551338650121728,3.2377676963806152,-0.5615968704223633,-0.510850191116333,-0.43835505843162537,-0.26168763637542725,0.4203088581562042,-0.8688268065452576,0.09970033168792725,-0.018071919679641724,0.018424034118652344,-0.8134620656698159,0.10982933190381002,0.23135276467508517,-0.5222000846859152,-0.43378567615064645,-0.29255416217564456,1.0764794824831263
1781551338660156672,3.247802734375,-0.7142785787582397,-0.6195185780525208,-0.40391266345977783,-0.26829808950424194,0.424855500459671,-0.8645888566970825,0.13669106364250183,-0.09242755174636841,0.1224319338798523,-0.8135545617002375,0.11054559965961026,0.23555303764160843,-0.5200225034484829,-0.43880227311314485,-0.300896404406148,1.0699059130840658
1781551338670190592,3.2578365802764893,-0.6659030318260193,-0.6403615474700928,-0.35466015338897705,-0.2755238711833954,0.42977938055992126,-0.8598698973655701,0.16169330477714539,-0.11221346259117126,0.10373586416244507,-0.813387507844278,0.11121891380044083,0.2401986599060347,-0.518011281332636,-0.44424842749026705,-0.3100884800625362,1.0635890400854175
1781551338680224768,3.2678706645965576,-0.8311628699302673,-0.7068474888801575,-0.3333798944950104,-0.28265145421028137,0.4352297782897949,-0.8548001050949097,0.17133858799934387,-0.09529447555541992,0.15741240978240967,-0.8130579835933938,0.11213973824070753,0.24499925762211403,-0.5160782003083242,-0.45029347135775594,-0.31934606557763895,1.0574071620346426
1781551338690258432,3.277904510498047,-0.8294560313224792,-0.8018645644187927,-0.3103787302970886,-0.29060420393943787,0.44150111079216003,-0.8488969206809998,0.17067012190818787,-0.057177990674972534,0.09009259939193726,-0.8124648484798276,0.11319737341488802,0.25047535416929395,-0.5141490354096662,-0.45727096384817467,-0.32982697971835095,1.0509976214407553
1781551338700293632,3.2879395484924316,-0.8401986956596375,-0.736368715763092,-0.3045671582221985,-0.2986340820789337,0.4475170075893402,-0.842939019203186,0.07857182621955872,-0.06586417555809021,0.07327044010162354,-0.8117902621205765,0.11410869620158434,0.2559485973275275,-0.5123144818271244,-0.46398685748477825,-0.34048014828017775,1.0447574618171152
1781551338710327552,3.2979736328125,-0.8693184852600098,-0.5341868996620178,-0.28444379568099976,-0.305286705493927,0.4540863633155823,-0.8370218873023987,-0.0024373233318328857,-0.020721465349197388,0.005982458591461182,-0.8112210451160491,0.1157139216120498,0.26095850787579195,-0.5103248330952084,-0.47134647714961536,-0.349736257260352,1.0382592381757407
1781551338720361728,3.3080077171325684,-0.8168241381645203,-0.5003924369812012,-0.267545223236084,-0.31077805161476135,0.4600963592529297,-0.8317021131515503,-0.0071235597133636475,-0.0041179656982421875,-0.06362259387969971,-0.8107801711526526,0.11739488259840691,0.26526851873105056,-0.5084159078587449,-0.4781037199980811,-0.3575998407090957,1.0321378752448447
1781551338730395648,3.3180415630340576,-0.7564436197280884,-0.4733855724334717,-0.25641241669654846,-0.31613969802856445,0.465974360704422,-0.8263919353485107,-0.026313334703445435,0.0714554488658905,-0.10971951484680176,-0.8102914705714042,0.11904610053004488,0.26950335936746656,-0.5065804700446132,-0.4847355113508074,-0.3653770097226504,1.0261755028801074
1781551338740430592,3.3280766010284424,-0.5335724353790283,-0.2095201164484024,-0.18868662416934967,-0.3200542628765106,0.47058165073394775,-0.8222640752792358,-0.06309390068054199,0.08615052700042725,-0.11241304874420166,-0.8100132184304741,0.1204844675607802,0.2726746574345304,-0.5049857513500768,-0.48994986995846634,-0.37119224352383096,1.0211295408583791
1781551338750464768,3.3381106853485107,-0.43314599990844727,-0.11620587855577469,-0.11517591774463654,-0.3219641149044037,0.4740591049194336,-0.8195163607597351,-0.036281734704971313,0.034562110900878906,0.05329626798629761,-0.809894132142642,0.12186055193639808,0.2745757009114928,-0.5038151797785184,-0.4938951227826236,-0.37434550010564505,1.0175718029049226
1781551338760498432,3.34814453125,-0.26651254296302795,-0.0681600570678711,-0.12055204063653946,-0.3232778012752533,0.47660866379737854,-0.8175179958343506,0.016225159168243408,-0.01026955246925354,-0.015764474868774414,-0.8098385167339975,0.12291252647110688,0.2759230262392089,-0.5029121278386117,-0.49679299772163094,-0.3765675584956175,1.014859527932759
1781551338770532608,3.3581786155700684,-0.16894948482513428,0.029204310849308968,-0.08952834457159042,-0.32396018505096436,0.4779491126537323,-0.8164646029472351,0.04666218161582947,-0.0538463294506073,-0.04230004549026489,-0.8099444173493198,0.12354426552325931,0.276594499972354,-0.5022173928761141,-0.4983183943339102,-0.37773099503289326,1.0128888457959853
1781551338780566784,3.3682126998901367,-0.22268888354301453,0.07755999267101288,-0.11372662335634232,-0.32388004660606384,0.4791663587093353,-0.8157826662063599,0.05021366477012634,-0.016504615545272827,0.04687702655792236,-0.8101632961217148,0.12433713846490536,0.2768554707037122,-0.5015244477031302,-0.4997046753461134,-0.37793268317699574,1.0110759051683043
1781551338790601728,3.3782477378845215,-0.18555669486522675,0.003579240757972002,-0.14197637140750885,-0.324198454618454,0.48044440150260925,-0.814903974533081,0.007197141647338867,-0.06026315689086914,-0.04057997465133667,-0.8104200516057625,0.12510032377716454,0.27730472639038695,-0.5006708281636516,-0.5011613501815726,-0.3786397973713161,1.0087849949385304
1781551338800635648,3.3882815837860107,-0.4605666995048523,0.1440250426530838,-0.07780271768569946,-0.3242112398147583,0.4825577735900879,-0.8136492371559143,-0.0838698148727417,-0.10348367691040039,-0.06157964468002319,-0.8105945945861895,0.12633678550684055,0.277874802468687,-0.4997609394800273,-0.5035726590341945,-0.37918293939773,1.0063308368801178
1781551338810669568,3.398315668106079,-0.43170204758644104,0.24950087070465088,-0.09463362395763397,-0.3229452073574066,0.48615512251853943,-0.8120096325874329,-0.18244114518165588,-0.08588653802871704,-0.09202790260314941,-0.8107744040696792,0.1286561634463776,0.2782854468322486,-0.498647817214866,-0.5076845110502656,-0.3785316015406984,1.0034767648480762
1781551338820703488,3.4083495140075684,-0.4857082664966583,0.37948134541511536,0.030997533351182938,-0.3206641674041748,0.48952028155326843,-0.8108910918235779,-0.2088768482208252,-0.21293947100639343,-0.08071047067642212,-0.8110438619975413,0.13112035328195493,0.2781400982940191,-0.4976477065276379,-0.5115395245716396,-0.3765749150328483,1.0011317977529044
1781551338830738432,3.418384552001953,-0.7182091474533081,0.5197519063949585,0.1815529614686966,-0.3163162171840668,0.49491292238235474,-0.8093239068984985,-0.16430509090423584,-0.16912254691123962,0.04899376630783081,-0.8109665161541961,0.13494160715108985,0.2777207204278759,-0.4969860845671745,-0.5177346115264804,-0.3725850171578183,0.9998638531934885
1781551338840772608,3.4284186363220215,-0.5569235682487488,0.4824841618537903,0.15971264243125916,-0.3113338351249695,0.5008450150489807,-0.8076047897338867,-0.05484658479690552,-0.08687406778335571,0.06711101531982422,-0.8107915626782123,0.13915252467835953,0.2771897823997216,-0.49640649523119745,-0.5245747757636754,-0.367946584281331,0.9989249543818117
1781551338850806784,3.43845272064209,-0.5604514479637146,0.42316094040870667,0.25872042775154114,-0.30664780735969543,0.5057212114334106,-0.8063579797744751,0.04236561059951782,-0.035445332527160645,0.1136242151260376,-0.8105400677493343,0.1426914622019945,0.2765142748740285,-0.4961893837320369,-0.5302177322748926,-0.3633981562603122,0.998961981110582
1781551338860840448,3.448486566543579,-0.7220590114593506,0.2468721866607666,0.293843537569046,-0.30237817764282227,0.5119295120239258,-0.804049551486969,0.06537866592407227,0.05348491668701172,0.1020689606666565,-0.8098298497178891,0.14663674860281267,0.2765373298206954,-0.49618599850466516,-0.5374294756266648,-0.3597076111673422,0.999363948528577
1781551338870874624,3.4585206508636475,-0.7160990834236145,0.13823704421520233,0.28479862213134766,-0.29948604106903076,0.5183541774749756,-0.801010012626648,-0.012861371040344238,-0.054349660873413086,0.02032458782196045,-0.8088548600674261,0.15027955380184724,0.2773284278081683,-0.49624466836871556,-0.5449252897645547,-0.35779323315796435,0.9996297321303913
1781551338880909568,3.4685556888580322,-0.7364858984947205,0.17500464618206024,0.3988032341003418,-0.2965122163295746,0.52541184425354,-0.7975103855133057,-0.16469991207122803,-0.19443351030349731,0.02587348222732544,-0.8076401746588145,0.15417841235744342,0.27834117612584813,-0.4964599479145225,-0.5531990888908416,-0.35595987207525087,1.0002821916602447
1781551338890943488,3.4785895347595215,-0.8550722002983093,0.30303052067756653,0.4820035696029663,-0.29218578338623047,0.532971203327179,-0.7940838932991028,-0.22809311747550964,-0.20322877168655396,0.09880191087722778,-0.8062754987020748,0.15858737646898305,0.27894101770872404,-0.4969526561601535,-0.5621081905838827,-0.35257846037683066,1.0019533862414007
1781551338900977664,3.48862361907959,-0.8133633732795715,0.2791571319103241,0.5851802825927734,-0.286957323551178,0.5413138270378113,-0.7903384566307068,-0.17889350652694702,-0.07190769910812378,0.12316316366195679,-0.8046747627211239,0.16352979331254036,0.2794436881261199,-0.4976623781335347,-0.5719988650841628,-0.3482808992654865,1.0043993383938061
1781551338911011584,3.498657703399658,-0.7417418956756592,0.21279305219650269,0.639909565448761,-0.28159239888191223,0.5491220355033875,-0.786873996257782,-0.09583371877670288,-0.03241372108459473,0.12955594062805176,-0.8028369056440365,0.16809925709949203,0.2798314404004572,-0.49888863873666905,-0.5813133446376685,-0.3436616878424045,1.0082934944167854
1781551338921046528,3.508692502975464,-0.8443569540977478,0.11866681277751923,0.6765224933624268,-0.2766181528568268,0.5572375059127808,-0.7829232215881348,-0.07813343405723572,-0.01942622661590576,0.08771753311157227,-0.8007472000963842,0.1726511948675839,0.2805885817246524,-0.5002655211765114,-0.5910551834972989,-0.3396245854877598,1.0125298168492955
1781551338931080704,3.5187265872955322,-0.6084030270576477,-0.05768025666475296,0.6962772607803345,-0.2725195586681366,0.5649814009666443,-0.7787997722625732,-0.1219811737537384,-0.04299354553222656,-0.03438681364059448,-0.7984004210782191,0.17668624471712838,0.28174826719227236,-0.5019528353554683,-0.6004107441240473,-0.3366057581277508,1.017410023718668
1781551338941114624,3.5287606716156006,-0.5672624707221985,0.06428986042737961,0.7527080178260803,-0.2685442864894867,0.5712833404541016,-0.7755767107009888,-0.2260846197605133,-0.07830244302749634,-0.001568615436553955,-0.7960698743580604,0.17989829729458634,0.28257432685771894,-0.5040446006925182,-0.6080686401156727,-0.3333311457269749,1.023432028109577
1781551338951148544,3.53879451751709,-0.7295169234275818,0.06832907348871231,0.7803577780723572,-0.2633804678916931,0.5784579515457153,-0.772021472454071,-0.305787593126297,0.020998835563659668,-0.010739147663116455,-0.7936298090772407,0.18384540591066875,0.2831786241145702,-0.5061250223707365,-0.6168370036096614,-0.32877518913547926,1.0298103472557982
1781551338961183488,3.5488295555114746,-0.964260995388031,0.08908775448799133,0.7470320463180542,-0.2584608793258667,0.5868419408798218,-0.7673425078392029,-0.3516465127468109,0.008327066898345947,-0.07181459665298462,-0.7910213256822679,0.18838099943817793,0.2843261406948077,-0.5078941377183257,-0.627153020785464,-0.3248906182322124,1.035375283886033
1781551338971217664,3.558863639831543,-0.8821336030960083,0.3157835006713867,0.8084051012992859,-0.25233080983161926,0.5961788296699524,-0.7621679306030273,-0.37793344259262085,-0.1671016812324524,-0.09963321685791016,-0.788387761219299,0.19377990914599444,0.2852461646791271,-0.509439685647542,-0.6387331786642584,-0.31971202758092865,1.040835597240873
1781551338981251840,3.5688977241516113,-0.7771685719490051,0.15344597399234772,0.7933412194252014,-0.2454732060432434,0.6042499542236328,-0.758040189743042,-0.3122660517692566,-0.4653491973876953,0.07350039482116699,-0.7859402055543904,0.19875548494113007,0.28544029203894766,-0.5111929283132587,-0.6488242233268687,-0.3131697892610124,1.047257483688562
1781551338991285504,3.5789315700531006,-1.014855980873108,0.011906413361430168,0.9344594478607178,-0.23975464701652527,0.613218367099762,-0.7526492476463318,-0.28821468353271484,-0.5009595155715942,-0.024709701538085938,-0.7829193241648749,0.20372662712468473,0.286654542946494,-0.5131879930659411,-0.6601285059862947,-0.308384931900427,1.0540393913258352
1781551339001319680,3.588965654373169,-0.9392427206039429,0.052179399877786636,0.9775896072387695,-0.2335323989391327,0.6229373216629028,-0.7466000914573669,-0.3147616386413574,-0.19144928455352783,-0.03349024057388306,-0.7794190740866869,0.20905095154384593,0.2880931267026717,-0.515563673745188,-0.6724919479972562,-0.3031531423580747,1.0621194501311213
1781551339011354624,3.5990006923675537,-0.9285546541213989,0.04670420661568642,0.8054229021072388,-0.22742487490177155,0.6321017742156982,-0.7407599091529846,-0.35419440269470215,0.1991206407546997,-0.20659726858139038,-0.7761873963155163,0.2142246314040656,0.2893576735923451,-0.5176031416374813,-0.6842626214443228,-0.29788067263855217,1.069487403248473
1781551339021388544,3.609034538269043,-0.5650014877319336,0.07735466212034225,0.7903643250465393,-0.2221219539642334,0.6393719911575317,-0.736115038394928,-0.3936159610748291,0.36128413677215576,-0.16845649480819702,-0.7733927590558601,0.21835219050052468,0.29028400950499483,-0.5195394450707794,-0.6936812244810786,-0.29306057865186347,1.0764591294345998
1781551339031422720,3.6190686225891113,-0.22904478013515472,0.2729811668395996,0.7474831938743591,-0.21574941277503967,0.6440799236297607,-0.7339027523994446,-0.44692450761795044,0.17261624336242676,-0.038756489753723145,-0.7711737691203129,0.22153851429932833,0.28977456251508193,-0.5217685715056509,-0.6998198640853753,-0.2859205799672434,1.084722407412252
1781551339041456640,3.6291027069091797,-0.49655720591545105,0.2761288583278656,0.6420816779136658,-0.2091779261827469,0.6480250358581543,-0.7323306202888489,-0.4959459900856018,-0.0879359245300293,-0.13609278202056885,-0.7694104592465072,0.2245925029525027,0.2887782610624031,-0.523615224572556,-0.7049884458467164,-0.2782246597929834,1.0921713278210845
1781551339051491584,3.6391375064849854,-0.15644727647304535,0.39760178327560425,0.6484588980674744,-0.20261557400226593,0.6511307954788208,-0.7314202785491943,-0.48958414793014526,-0.2966538667678833,-0.015848398208618164,-0.7678636823457043,0.2272791480058826,0.28746137814708755,-0.5254479762825897,-0.709073416667859,-0.2702400673003432,1.0996549343144861
1781551339061525504,3.6491715908050537,-0.8047019243240356,0.15402068197727203,0.4774940609931946,-0.19664272665977478,0.6567587852478027,-0.7280107140541077,-0.4378787577152252,-0.44058752059936523,0.10616928339004517,-0.766168816828966,0.2313036366210215,0.28721642422258076,-0.5262991282672808,-0.7165125393920598,-0.2638140492419261,1.1045204305408465
1781551339071559680,3.659205675125122,-0.06252051889896393,-0.1700439453125,0.5155932307243347,-0.1935623586177826,0.6598976254463196,-0.7259950637817383,-0.4028884172439575,-0.3096931576728821,-0.2851438522338867,-0.7643886843419566,0.23304310930745925,0.2875645501618156,-0.5279276885840242,-0.7206824763616656,-0.26055567041514954,1.1101967691564585
1781551339081593600,3.6692395210266113,-0.9419271945953369,0.05718294531106949,0.1869192272424698,-0.19167320430278778,0.6647930145263672,-0.7220191359519958,-0.465553343296051,0.06411933898925781,3.427267074584961e-05,-0.7626985197572652,0.2356184468457153,0.28891932200291576,-0.5284889024598188,-0.7272166749847853,-0.25948327003244503,1.112699649316498
1781551339091628544,3.679274559020996,-0.07494603097438812,-0.00585194444283843,0.12625667452812195,-0.19023342430591583,0.6687369346618652,-0.7187503576278687,-0.5830667018890381,0.419672429561615,-0.2842403054237366,-0.7617382443445667,0.23790365462632582,0.28987352501753894,-0.5283274624741081,-0.7325086443825798,-0.2587396581553841,1.1130932137511953
1781551339101662720,3.6893086433410645,0.0469958521425724,0.12138683348894119,-0.00698926392942667,-0.18962234258651733,0.6686039566993713,-0.7190355062484741,-0.5826249718666077,0.2515009641647339,-0.4997144341468811,-0.7617586599783892,0.23798940510088779,0.28955707909839057,-0.5284329266961044,-0.732329852797907,-0.25784714686505683,1.1136288335236555
1781551339111696640,3.699342727661133,0.28047409653663635,0.431841641664505,0.16079175472259521,-0.1875721961259842,0.6681133508682251,-0.7200285792350769,-0.5633280277252197,0.024650871753692627,0.2216002345085144,-0.7619618239216954,0.23832420556173384,0.28842207402656694,-0.5286097991200464,-0.7316702905330812,-0.2548425302218342,1.1149576034179076
