time,seconds_elapsed,rotationRateX,rotationRateY,rotationRateZ,gravityX,gravityY,gravityZ,accelerationX,accelerationY,accelerationZ,quaternionW,quaternionX,quaternionY,quaternionZ,pitch,roll,yaw
1781552373324526336,0.26105642318725586,-0.0069009349681437016,-0.00040591275319457054,-0.08570218086242676,0.0679568350315094,-0.5249982476234436,-0.8483859300613403,0.020513631403446198,-0.016917645931243896,0.03942596912384033,0.7307529192491962,0.18459048974767586,0.20428749640598964,0.6246544201183034,0.5527130612967436,0.07993066574834297,1.3918784992861628
1781552373334560512,0.2710905075073242,-0.026030154898762703,0.001856708899140358,-0.05671314522624016,0.06850873678922653,-0.5248342156410217,-0.8484430313110352,0.02162492275238037,-0.01801246404647827,0.038475990295410156,0.7310120742888221,0.18441738603821095,0.20437392409804223,0.6243740916622249,0.5525203635141952,0.08057161183993888,1.390911378216002
1781552373344595200,0.2811253070831299,8.240621536970139e-05,0.01522457879036665,-0.015905793756246567,0.06878264248371124,-0.5247056484222412,-0.8485004305839539,0.019550494849681854,-0.01608109474182129,0.03871649503707886,0.7311230065242252,0.18430376302408216,0.20440624602498658,0.6242671622500217,0.5523693125204592,0.08088690252677953,1.3905094265327398
1781552373354630144,0.29116034507751465,0.06642068922519684,0.02909858152270317,-0.020637432113289833,0.06908778846263885,-0.5249834060668945,-0.8483037948608398,0.021259494125843048,-0.02974987030029297,0.034735679626464844,0.731121320278286,0.18433258387821794,0.2046206395514407,0.6241903411986276,0.55269563003899,0.08126292044490684,1.3902690264551214
1781552373364665344,0.3011953830718994,0.13395632803440094,0.027176445350050926,-0.002537523629143834,0.0694463849067688,-0.5258402824401855,-0.847743570804596,0.020168490707874298,3.7670135498046875e-05,0.023616433143615723,0.7310525812210735,0.184592234711933,0.20507049969077462,0.6240464264027372,0.5537027035885015,0.08173658276161662,1.389955056976381
1781552373374700288,0.3112304210662842,0.15885767340660095,0.008355886675417423,0.044225987046957016,0.06946956366300583,-0.5271746516227722,-0.8469125628471375,0.03831852972507477,0.009810149669647217,0.02037447690963745,0.7308125345740872,0.18512905852668068,0.20559900841475495,0.6239947021798696,0.5552722393523762,0.08184360980798613,1.3900976822933102
1781552373384734464,0.32126450538635254,0.15322110056877136,0.020894315093755722,0.04109810292720795,0.06936686486005783,-0.5285306572914124,-0.8460754156112671,0.03942829370498657,-0.012393414974212646,0.02078855037689209,0.7305152530045138,0.18569895281666746,0.2061023903477327,0.6240073347039057,0.5568687628739287,0.08180365742298432,1.390460179246834
1781552373394769152,0.3312993049621582,0.1185573935508728,0.03092404641211033,0.029721345752477646,0.06944649666547775,-0.5297499299049377,-0.8453059792518616,0.02074822038412094,-0.024479806423187256,0.021621286869049072,0.7302513986993414,0.18615638084313196,0.20662240872924695,0.6240079188051347,0.5583057254983224,0.08197136133959777,1.3907061928716113
1781552373404804352,0.34133434295654297,0.0633937269449234,0.02072693593800068,0.056726861745119095,0.06944820284843445,-0.5305666327476501,-0.844793438911438,0.01731327921152115,-0.021725237369537354,0.01981174945831299,0.7299970616375998,0.18645419398623378,0.20697368919965478,0.6241001215395787,0.5592689104370933,0.08202287345742437,1.3911386064169726
1781552373414839296,0.35136938095092773,-0.02192595601081848,0.016862688586115837,0.04732963442802429,0.06932098418474197,-0.5307883620262146,-0.8446645736694336,0.027221381664276123,-0.035877227783203125,0.02053743600845337,0.7297896670695294,0.18653116471495723,0.20705996156882983,0.6242910093626077,0.5595305293656185,0.0818857273661024,1.3917492367938107
1781552373424874240,0.3614044189453125,-0.049388207495212555,0.0075698550790548325,0.017067603766918182,0.06929711252450943,-0.5304734706878662,-0.8448643684387207,0.021965712308883667,-0.03645157814025879,0.023758411407470703,0.7297156280784515,0.1863669070202573,0.20696664088587616,0.6244576326474056,0.559159021021829,0.08183838321732921,1.392143358184641
1781552373434908416,0.37143850326538086,0.0030369171872735023,-0.0013522668741643429,0.00312142726033926,0.06929578632116318,-0.530261218547821,-0.844997763633728,0.020273298025131226,-0.02343451976776123,0.021801352500915527,0.7297071479437917,0.1862650838575425,0.20689717929059862,0.6245209961830775,0.5589086043975634,0.08182397141470915,1.3922704136607333
1781552373444943104,0.3814733028411865,0.09031988680362701,-0.02117670513689518,0.01395330298691988,0.06916896998882294,-0.5306612253189087,-0.8447569608688354,0.028243139386177063,-0.012307524681091309,0.01370227336883545,0.729654541302053,0.18647675274291797,0.2069974314419701,0.6244860473108237,0.5593805153587582,0.08169806731037282,1.3923016249356068
1781552373454978304,0.3915083408355713,0.10250012576580048,-0.03032359667122364,-0.01006068754941225,0.06896113604307175,-0.5315702557563782,-0.8442022800445557,0.03322697430849075,-0.002838313579559326,0.015482187271118164,0.7295730228691722,0.18694412591715634,0.20724567031998392,0.6243591915119363,0.5604533665413283,0.08150695420527483,1.3922188889607554
1781552373465013248,0.40154337882995605,0.05093573406338692,-0.026597969233989716,-0.038827620446681976,0.06888587027788162,-0.5322233438491821,-0.8437967896461487,0.027137689292430878,-0.007708907127380371,0.02027994394302368,0.7296165042546467,0.1872896712992556,0.20742269430708732,0.6241459372855617,0.5612245839863352,0.0814573363189348,1.3918026795548535
1781552373475047424,0.4115774631500244,0.05376321077346802,-0.030080851167440414,-0.02897072769701481,0.06883396953344345,-0.5326665639877319,-0.8435213565826416,0.021848998963832855,-0.017077088356018066,0.0240175724029541,0.7297033441362608,0.1875436274308872,0.20752522146985003,0.6239340979456601,0.561748189469581,0.08142270080197761,1.3913367327861077
1781552373485082368,0.4216125011444092,-0.03240762650966644,-0.026951637119054794,-0.04582640901207924,0.06881049275398254,-0.5328164100646973,-0.8434286117553711,0.021307915449142456,-0.026494503021240234,0.019850730895996094,0.7298250352691789,0.1876622099238814,0.207529754832414,0.6237545941358495,0.5619253014919557,0.08140396268664588,1.3908854002853677
1781552373495117312,0.43164730072021484,-0.12516659498214722,-0.028699468821287155,-0.0617917962372303,0.06890171766281128,-0.532078742980957,-0.84388667345047,0.015937142074108124,-0.02884960174560547,0.02880793809890747,0.730113098696498,0.18738161359905647,0.2072312275933279,0.6236010650943081,0.5610538346419084,0.08146735868443637,1.3902725995797125
1781552373505152256,0.4416823387145996,-0.1434641033411026,-0.026036974042654037,-0.05311707779765129,0.0689883604645729,-0.5308962464332581,-0.8446240425109863,0.01713225245475769,-0.03628820180892944,0.03325319290161133,0.7304380901299232,0.1869060728382824,0.20677060936529879,0.6235161161195615,0.5596578096611713,0.08149845044672385,1.3897512186247438
1781552373515187200,0.4517173767089844,-0.20419056713581085,-0.031177673488855362,-0.14042454957962036,0.06923183798789978,-0.5295143723487854,-0.845471203327179,0.01804843544960022,-0.0291861891746521,0.019940197467803955,0.7308755000936181,0.1863230545858504,0.20627196962306493,0.623343209225013,0.5580279945111758,0.08170321860352298,1.3888993465978017
1781552373525221376,0.46175146102905273,-0.36070507764816284,-0.03563660383224487,-0.2496061772108078,0.07006055116653442,-0.5268679857254028,-0.8470547199249268,0.017326541244983673,-0.001238703727722168,0.023720979690551758,0.7318265487936968,0.18512602068430334,0.2054288314809103,0.6228621850535518,0.5549113745405974,0.08252293416287114,1.386757081278892
1781552373535256320,0.4717864990234375,-0.4669753313064575,-0.1358223259449005,-0.21043159067630768,0.07042403519153595,-0.5232758522033691,-0.8492484092712402,0.04281143844127655,-0.0033507347106933594,0.031117916107177734,0.7329867858939928,0.18370916285795383,0.20402631996099127,0.622378212379166,0.5506905912689043,0.08273582724858096,1.3845544510250858
1781552373545291264,0.48182129859924316,-0.7784168124198914,-0.14114731550216675,-0.3887515664100647,0.07083243131637573,-0.5178664326667786,-0.8525239825248718,0.05209237337112427,-0.031190574169158936,0.029876887798309326,0.7345933860563703,0.181578045934039,0.201909455984331,0.6217994925305836,0.5443550375539624,0.08289515860645728,1.3817151157816863
1781552373555326208,0.49185633659362793,-1.0164517164230347,-0.25899696350097656,-0.4675140082836151,0.07147886604070663,-0.5096448659896851,-0.8574106097221375,0.02994629740715027,-0.015562593936920166,0.04883211851119995,0.7370047840844813,0.17832821907381846,0.1987303566945554,0.6209100924262365,0.5347719820364547,0.08317364375812965,1.3774243566407316
1781552373565360384,0.5018904209136963,-0.7011057734489441,-0.4501010477542877,-0.0036778890062123537,0.06995479017496109,-0.5014796257019043,-0.8623366355895996,0.06745060533285141,-0.004288136959075928,0.060288965702056885,0.7391089617187387,0.17571941187710974,0.1948187991449948,0.6203920552873043,0.5253081778644602,0.08094511130440976,1.3748161325160466
1781552373575395328,0.511925458908081,0.07493135333061218,-0.3318878412246704,0.6984719634056091,0.06428970396518707,-0.4997302293777466,-0.8637919425964355,0.10474715381860733,0.004094243049621582,0.030372142791748047,0.7384605898865843,0.1765534805869422,0.19217930081891343,0.6217492159485026,0.5232873047144802,0.07429032614466335,1.3797057613859967
1781552373585430272,0.5219604969024658,-0.35061410069465637,0.09202654659748077,0.49830612540245056,0.06023342162370682,-0.4991513788700104,-0.8644188046455383,-0.045951202511787415,0.14223304390907288,-0.01929396390914917,0.7366902330133147,0.17706774315699528,0.19088639653405734,0.6240969240961152,0.5226191502579528,0.06956838203687334,1.3870786464352567
1781552373595465216,0.5319952964782715,-0.6199417114257812,0.12639117240905762,0.31418395042419434,0.05953832343220711,-0.49505355954170227,-0.8668201565742493,-0.12431187927722931,0.07825973629951477,0.06622201204299927,0.7357811122844604,0.1751494086733263,0.18950622928395172,0.626127960913455,0.517896464359269,0.06857819283333474,1.3919416505343678
1781552373605500160,0.5420303344726562,-1.1844385862350464,-0.2526383101940155,0.37662363052368164,0.05733843520283699,-0.4878043830394745,-0.8710678219795227,0.05446270853281021,-0.22984695434570312,0.09517371654510498,0.7354982906809143,0.17250149929095657,0.18630436417398621,0.6281529424941804,0.5095728217115167,0.06573062497952972,1.3965570510455052
1781552373615534336,0.5520644187927246,-2.1925315856933594,-0.5566136240959167,0.4025047719478607,0.05162663757801056,-0.4732133746147156,-0.879433810710907,0.22918085753917694,-0.44379404187202454,0.16245383024215698,0.7360598188514911,0.16800076491827323,0.179049860013929,0.6308190899491892,0.4929348414529488,0.05863710702248833,1.4023564675584332
1781552373625569280,0.5620994567871094,-2.924170732498169,-0.6034519672393799,0.5593798756599426,0.0441889725625515,-0.45055925846099854,-0.8916522264480591,0.2207798957824707,-0.42616498470306396,0.2507678270339966,0.737287466150288,0.1607939509094402,0.16828307638214252,0.634218619630603,0.46739167781125396,0.04951801399352768,1.4089882234494067
1781552373635604480,0.5721344947814941,-3.2733800411224365,-0.8779881596565247,0.7477812170982361,0.03464458882808685,-0.422598272562027,-0.9056547284126282,0.16109515726566315,-0.314187616109848,0.2700040936470032,0.7381766987751177,0.1520868962440024,0.1550555424348377,0.6386881251994544,0.43631025840904875,0.03823499523119299,1.4180553664846223
1781552373645639168,0.5821692943572998,-3.4335803985595703,-0.7690298557281494,0.7600328326225281,0.02388184331357479,-0.3921360969543457,-0.9195971488952637,0.13725097477436066,-0.2105860412120819,0.30916935205459595,0.7388664172249305,0.1429322000972619,0.1406122498726858,0.6433312249786206,0.4029525364005516,0.025964061249493367,1.4274758671119725
1781552373655674112,0.5922043323516846,-3.504323720932007,-0.8199548721313477,0.7257850766181946,0.01390697993338108,-0.3599988520145416,-0.932849109172821,0.07547900825738907,-0.13789546489715576,0.28666990995407104,0.739387980501852,0.13305174425758112,0.12598684342001198,0.647865746128798,0.3682666517948553,0.014906966429882457,1.436263600991337
1781552373665708288,0.6022384166717529,-3.5522537231445312,-1.0391864776611328,0.7730751037597656,0.002581387059763074,-0.32681703567504883,-0.9450840950012207,0.135907381772995,-0.04262876510620117,0.2726750373840332,0.7397686842252472,0.1234319676591573,0.11055539398186733,0.6521383913285864,0.3329337082499008,0.0027313765853618677,1.4445894995861899
1781552373675742464,0.6122725009918213,-3.5628139972686768,-1.1782737970352173,0.7376598715782166,-0.010363596491515636,-0.2928438186645508,-0.9561040997505188,0.1867246776819229,0.02782920002937317,0.2632025480270386,0.7399611917081111,0.11425411636029555,0.09430765779661036,0.6561322036821228,0.29719968344096054,-0.010838977123558005,1.4524721575308261
1781552373685777408,0.622307538986206,-3.4780266284942627,-1.3298661708831787,0.6864006519317627,-0.024375274777412415,-0.2587258815765381,-0.9656431674957275,0.18677456676959991,0.08628630638122559,0.22418808937072754,0.7401128502753059,0.10559593653633813,0.07763956691806606,0.6595867320146064,0.2617029328495783,-0.025237168404090755,1.4591825833666725
1781552373695812352,0.6323425769805908,-3.3564655780792236,-1.4532546997070312,0.7045743465423584,-0.03961736336350441,-0.22530724108219147,-0.9734819531440735,0.1809137463569641,0.13576868176460266,0.1756303906440735,0.7400374916474661,0.09779043087246587,0.06079518320690166,0.6626353442084184,0.22725837775971802,-0.0406741099218944,1.4651868549893792
1781552373705846528,0.6423766613006592,-3.2607650756835938,-1.5519280433654785,0.7434109449386597,-0.05583464726805687,-0.19255013763904572,-0.9796973466873169,0.17175567150115967,0.17083688080310822,0.1382514238357544,0.7395836974116675,0.0907026546405511,0.043867321139259015,0.665480848558409,0.1937602510615397,-0.05693014568905745,1.4709486438916015
1781552373715881472,0.652411699295044,-3.2281441688537598,-1.6694881916046143,0.7857930064201355,-0.07304511964321136,-0.16019387543201447,-0.9843791723251343,0.16104255616664886,0.14804787933826447,0.10449635982513428,0.7387247349230752,0.0842314116174502,0.026748622181796296,0.6681881255938001,0.1608870642779842,-0.07406850506889275,1.4765827017952333
1781552373725916416,0.6624464988708496,-3.3439629077911377,-1.7756478786468506,0.7760786414146423,-0.09120862931013107,-0.12709833681583405,-0.9876877069473267,0.14748305082321167,0.07642389833927155,0.07010042667388916,0.7375878739272604,0.07793867476895266,0.009039438439647827,0.6706772535909094,0.1274430368005255,-0.09208445500047518,1.4817219877539733
1781552373735951360,0.6724815368652344,-3.5493154525756836,-1.8792650699615479,0.7732831239700317,-0.1101764664053917,-0.0921713188290596,-0.9896290302276611,0.1354145109653473,0.0112844780087471,0.04593396186828613,0.736270291931207,0.07136742806145135,-0.009601106471043432,0.6728450986305569,0.09230232850157015,-0.11087450217513527,1.485961580442385
1781552373745986560,0.6825165748596191,-3.7308661937713623,-1.990652084350586,0.7926874160766602,-0.12995682656764984,-0.055020350962877274,-0.9899919033050537,0.13195574283599854,-0.03634927421808243,0.045366108417510986,0.7346765787636357,0.06437541504492719,-0.02932320250199838,0.6747193944712104,0.055048150336886356,-0.13052427435616765,1.4893640520918714
1781552373756020480,0.6925506591796875,-3.8663506507873535,-2.096503973007202,0.7686718106269836,-0.15051381289958954,-0.01622084528207779,-0.9884748458862305,0.13392750918865204,-0.07310410588979721,0.05631542205810547,0.7327728714835461,0.05716316840274186,-0.04994958833825026,0.6762257167692072,0.01622155716556614,-0.15110802236782547,1.4918015008461294
1781552373766055680,0.7025856971740723,-3.90834379196167,-2.2231078147888184,0.7578269243240356,-0.17182527482509613,0.023581579327583313,-0.9848451614379883,0.12658296525478363,-0.07794864475727081,0.08048725128173828,0.730580842405091,0.0499491143276642,-0.07129170649234551,0.6772548782715134,-0.023583766089524092,-0.1727307169162328,1.4930345437823331
1781552373776090624,0.712620735168457,-3.86409068107605,-2.333176851272583,0.7415997385978699,-0.19399352371692657,0.063215471804142,-0.9789639115333557,0.10776610672473907,-0.0460188165307045,0.11682707071304321,0.7279972998596675,0.04319475378025085,-0.09301755026918666,0.6778656191472052,-0.06325764982931673,-0.19562771177365038,1.4932990935629793
1781552373786125312,0.7226555347442627,-3.8482487201690674,-2.3717637062072754,0.7356715202331543,-0.21644443273544312,0.10245772451162338,-0.9709038138389587,0.09362643957138062,0.008748330175876617,0.09485095739364624,0.72503399018688,0.036774466019897915,-0.11487267307394908,0.6780690123129358,-0.10263783619506378,-0.21934414853582432,1.4925651623230498
1781552373796160512,0.7326905727386475,-3.809347152709961,-2.3937392234802246,0.7310490608215332,-0.23868384957313538,0.1412428617477417,-0.9607707858085632,0.07251563668251038,0.0578385591506958,0.07681387662887573,0.7216773558248296,0.03053661986704869,-0.136682584715866,0.6779138780913992,-0.14171675655948426,-0.24350004622465676,1.4909108096069452
1781552373806194432,0.7427246570587158,-3.8098456859588623,-2.4310317039489746,0.7087557911872864,-0.26061922311782837,0.17950306832790375,-0.9486075639724731,0.05222994089126587,0.06160105764865875,0.057006001472473145,0.7179633684613843,0.02445821271110853,-0.15842354800165287,0.6773717303651544,-0.18048128726403437,-0.26812327283562565,1.4882242029468236
1781552373816229632,0.7527596950531006,-3.8617091178894043,-2.478132724761963,0.6692618727684021,-0.28243497014045715,0.21756497025489807,-0.9342890381813049,0.04682400822639465,0.04436740279197693,0.02930551767349243,0.7139424409266639,0.018452329398436253,-0.180319163558528,0.6763362383203717,-0.2193189805413292,-0.29356495431044866,1.4841576082653194
1781552373826264576,0.7627947330474854,-4.014350414276123,-2.551018238067627,0.604562520980835,-0.304244726896286,0.2560235559940338,-0.9175440669059753,0.06495639681816101,0.032855838537216187,-0.021237671375274658,0.7096720772343005,0.012287878617703927,-0.20267457085250193,0.6746388332777001,-0.2589063886719783,-0.32017709684943074,1.478157797475669
1781552373836299520,0.772829532623291,-4.0263352394104,-2.7011020183563232,0.5174563527107239,-0.3265990912914276,0.2945443391799927,-0.8980961441993713,0.0937652587890625,0.031963229179382324,-0.03142350912094116,0.7051314030033193,0.006239834775825189,-0.22563908257400295,0.6721888595076344,-0.29897867980266146,-0.34878938060716347,1.4699109796203618
1781552373846334464,0.7828645706176758,-4.001783847808838,-2.8191733360290527,0.37726810574531555,-0.34976857900619507,0.3317244350910187,-0.876139760017395,0.13162893056869507,0.03408977389335632,-0.07158362865447998,0.7003999059917536,0.0008752412950013131,-0.2488560888846635,0.6689618648497998,-0.33813092211237283,-0.3798298966633251,1.459285814068474
1781552373856368640,0.7928986549377441,-4.030758380889893,-2.9595701694488525,0.2379501909017563,-0.37376701831817627,0.3676277697086334,-0.8515562415122986,0.16739186644554138,0.06907877326011658,-0.10690933465957642,0.6955752891423669,-0.00390705620057088,-0.2724088978966837,0.6647955879018701,-0.3764568719379341,-0.4136035961032168,1.4456673801211393
1781552373866403584,0.8029336929321289,-4.013500690460205,-3.09525728225708,0.1222723200917244,-0.3985319137573242,0.40218040347099304,-0.8242713212966919,0.18405437469482422,0.12148597836494446,-0.0858238935470581,0.6905250834890693,-0.00809743180322132,-0.2963085620700282,0.6597808838746072,-0.4138971064721836,-0.45035748365445233,1.429155866169856
1781552373876438528,0.8129687309265137,-4.034414768218994,-3.160733938217163,-0.01664029248058796,-0.42371296882629395,0.43507394194602966,-0.7944670915603638,0.18086934089660645,0.14826956391334534,-0.01478278636932373,0.6853074929710234,-0.011754390085325608,-0.3203564869431528,0.6539015551447862,-0.4501204093712514,-0.4899545640422509,1.4095588213857635
1781552373886473472,0.8230035305023193,-4.026349067687988,-3.2247042655944824,-0.1681017130613327,-0.44913333654403687,0.46613311767578125,-0.7622330188751221,0.14925235509872437,0.16181182861328125,0.05637669563293457,0.6800221036275027,-0.01496094263224933,-0.34447011326386784,0.6470598652411149,-0.484914946993497,-0.5324654382297388,1.386441151395784
1781552373896508416,0.8330385684967041,-4.062366485595703,-3.138523817062378,-0.2337465137243271,-0.47392913699150085,0.4953826367855072,-0.7280021905899048,0.10170623660087585,0.1706177294254303,0.07603991031646729,0.6746530755575176,-0.018042050917489578,-0.36833867150216254,0.6394093431715413,-0.5182752475776974,-0.5770775796909599,1.360117740981344
1781552373906542592,0.8430726528167725,-4.177565097808838,-2.999755859375,-0.3412865698337555,-0.497265100479126,0.5233031511306763,-0.6920124292373657,0.04719185829162598,0.12991034984588623,0.05804026126861572,0.6692863664268045,-0.021574575740700888,-0.3918269156114445,0.6309214751633948,-0.5507226509138343,-0.6230861037384522,1.3303277942064862
1781552373916577536,0.8531076908111572,-4.374813079833984,-2.792569160461426,-0.4721899926662445,-0.519068717956543,0.5500795841217041,-0.6542018055915833,-0.023350656032562256,0.04562348127365112,0.11520040035247803,0.6642029214017254,-0.025933848544788734,-0.41500183688498676,0.621236922346683,-0.5824595559126707,-0.6707270372858977,1.2957812770779482
1781552373926612736,0.863142728805542,-4.577516078948975,-2.556318759918213,-0.5197747945785522,-0.5389304161071777,0.5758939385414124,-0.6147357821464539,-0.06000751256942749,-0.03483259677886963,0.21391797065734863,0.6593983410418051,-0.03145534829981278,-0.43777010153683854,0.610378273675075,-0.6136971830577533,-0.7197842581849615,1.2562911526915648
1781552373936647424,0.8731775283813477,-4.805473804473877,-2.350672483444214,-0.531518280506134,-0.5566504597663879,0.6009543538093567,-0.5735801458358765,-0.03171318769454956,-0.10560828447341919,0.32275617122650146,0.6546617804451484,-0.03829727595056003,-0.46015566490974036,0.5985048743391957,-0.6446945713670478,-0.77042028346195,1.2120212055900939
1781552373946682368,0.8832125663757324,-4.877326965332031,-2.2238454818725586,-0.5201308727264404,-0.5725412964820862,0.6248754262924194,-0.5307799577713013,0.018403053283691406,-0.16994982957839966,0.4088316559791565,0.6498254678432174,-0.04617717055451751,-0.48215941811135166,0.5857618691276438,-0.6749719361762343,-0.823230692736384,1.1631731257326
1781552373956716544,0.8932466506958008,-4.680451393127441,-2.0969812870025635,-0.5498120784759521,-0.5869388580322266,0.6462942361831665,-0.4876541197299957,0.05986976623535156,-0.2351309061050415,0.4320663809776306,0.6448076610576243,-0.054153973126195735,-0.5032298609567569,0.5727566019060922,-0.7027181279244973,-0.8775294808906966,1.1118741216317147
1781552373966751488,0.9032816886901855,-4.389738082885742,-1.930596947669983,-0.610262930393219,-0.6002261638641357,0.664071261882782,-0.4458005130290985,0.06702303886413574,-0.257577121257782,0.4250637888908386,0.639968254583575,-0.061555284583206464,-0.5227912518117169,0.5597687458468547,-0.7262509552083763,-0.9319701491176565,1.0596548603952376
1781552373976786688,0.9133167266845703,-3.8195228576660156,-1.7507357597351074,-0.4929453432559967,-0.6118865609169006,0.6783367395401001,-0.40676072239875793,0.050180017948150635,-0.18939930200576782,0.44504493474960327,0.6352803270887434,-0.06817217881459033,-0.5403445173349164,0.5475394032144165,-0.745496526124189,-0.9841114922049218,1.0094840798880453
1781552373986821376,0.923351526260376,-2.9157626628875732,-1.512929916381836,-0.400612473487854,-0.6212926506996155,0.6887947916984558,-0.3735736906528473,0.0369267463684082,-0.11491167545318604,0.4056018888950348,0.6307726989486556,-0.07318457474606598,-0.5548487866307318,0.53750604742969,-0.7598253195417458,-1.0294328109154023,0.9672465820818206
1781552373996855552,0.9333856105804443,-2.210710048675537,-1.2124528884887695,-0.33938559889793396,-0.6288819313049316,0.6956447958946228,-0.3472547233104706,-0.01522207260131836,-0.08135652542114258,0.37272170186042786,0.6269941432266345,-0.07651991688123334,-0.5661425078482004,0.5296278925619289,-0.7693170873955785,-1.0662825194828227,0.9338105569465618
1781552374006890496,0.9434206485748291,-1.5295225381851196,-0.8841730952262878,-0.03871843218803406,-0.6338227391242981,0.7007163166999817,-0.32751384377479553,-0.07244551181793213,-0.0023520588874816895,0.43575966358184814,0.6237907299720126,-0.07904797865947553,-0.5744514721818784,0.5240629854561901,-0.7764010104535729,-1.0938562047680847,0.9093819455962944
1781552374016925696,0.9534556865692139,-1.0871824026107788,-0.9728015065193176,-0.1651514619588852,-0.6366495490074158,0.7048269510269165,-0.31288379430770874,-0.07302141189575195,0.012778639793395996,0.42430347204208374,0.6208703976343287,-0.0808941726469797,-0.5805292687532267,0.5205399636238929,-0.782179189150263,-1.114009087791792,0.8927241091509664
1781552374026960640,0.9634907245635986,-0.2025924026966095,-1.3413358926773071,-1.461667776107788,-0.6463501453399658,0.7014217376708984,-0.3003982603549957,-0.12357783317565918,-0.04288291931152344,0.40191495418548584,0.6190598982777761,-0.07710116561028246,-0.5863925967316472,0.5166856434425344,-0.7773902949361688,-1.1357352800615794,0.8798990626621072
1781552374036995328,0.9735255241394043,0.95447838306427,-1.63408625125885,-1.8108463287353516,-0.6625478863716125,0.6892873644828796,-0.2931097149848938,-0.3316843509674072,0.32533055543899536,0.1356847882270813,0.6193572328279683,-0.06741000306875553,-0.5906784580132023,0.5127879931870599,-0.760504984407871,-1.1542823718812438,0.8738950421502724
1781552374047030528,0.9835605621337891,4.51144552230835,-1.7814221382141113,-1.0019774436950684,-0.6775465607643127,0.6722654104232788,-0.29831212759017944,-0.09195423126220703,1.6131350994110107,-0.40499597787857056,0.6186325468102488,-0.05094606533206149,-0.5901257724218676,0.5161879234928856,-0.7372645970579131,-1.1560524746819745,0.8970222536824307
1781552374057064448,0.9935946464538574,8.01340389251709,-1.0820233821868896,-0.4785118103027344,-0.6868732571601868,0.646952211856842,-0.3311462998390198,0.22839248180389404,2.5357565879821777,-0.8541563749313354,0.6172363030312963,-0.02471154271901961,-0.5777682844867824,0.5334720653619401,-0.703580674653156,-1.1215654506455202,0.9723262120580659
1781552374067099648,1.0036296844482422,7.991159439086914,-0.7229311466217041,-0.4514916241168976,-0.6929271221160889,0.6147165894508362,-0.3767963647842407,-0.07574957609176636,1.930891990661621,-0.7921794652938843,0.6164951127842858,0.004210051195040156,-0.5581971752396211,0.5552764800030525,-0.6620265786888905,-1.0727450355755692,1.0633342110549948
1781552374077134592,1.013664722442627,6.263575553894043,-0.7890262603759766,-0.1527014523744583,-0.6976777911186218,0.583943784236908,-0.415036678314209,-0.4522550702095032,0.610361635684967,-0.039354801177978516,0.614780489956101,0.029344042766996578,-0.5400190574058515,0.5740761211863806,-0.6235783812419841,-1.0341477868838747,1.1397962461117226
1781552374087169536,1.0236995220184326,4.034080982208252,-1.1174209117889404,0.006843993440270424,-0.7019121646881104,0.5616260170936584,-0.4380588233470917,-0.28319525718688965,-0.42681461572647095,0.23046302795410156,0.6114096453042126,0.04799564231750955,-0.5278892012725099,0.5875437644625994,-0.5963497291602083,-1.0128491521679386,1.1932923955345864
1781552374097203456,1.033733606338501,2.1247377395629883,-1.3955837488174438,-0.18594276905059814,-0.707920491695404,0.5474966168403625,-0.44620177149772644,-0.03599125146865845,-1.0676381587982178,0.19424867630004883,0.6075062838299338,0.061272366869584614,-0.5226325754523266,0.5950101121394659,-0.579369739792704,-1.0083953732611326,1.2240031456800862
1781552374107238656,1.0437686443328857,0.10211902856826782,-1.7345656156539917,-0.1423870325088501,-0.7159905433654785,0.5408833622932434,-0.441364586353302,0.03654724359512329,-1.3457845449447632,0.02632555365562439,0.6036891633756737,0.06994802342917027,-0.5238558802076433,0.5968598367406049,-0.5714869814186256,-1.0183768630956085,1.2342798805871638
1781552374117273600,1.0538036823272705,-0.9378954172134399,-1.853654146194458,0.14419972896575928,-0.7238337397575378,0.5433542132377625,-0.42524224519729614,-0.05582934617996216,-1.2710001468658447,-0.34451788663864136,0.5990696117037702,0.07367077720874672,-0.5309910438682445,0.594757754182583,-0.5744274639041889,-1.039629039595767,1.22863735792272
1781552374127308544,1.0638387203216553,-0.6318215131759644,-1.6088131666183472,0.510344386100769,-0.7294989228248596,0.5490422248840332,-0.4079017639160156,-0.3033837080001831,-1.1275944709777832,-0.9401664733886719,0.5936733360355423,0.0756808151241908,-0.5388149308726112,0.5928766656335973,-0.5812178728121472,-1.0609527444067635,1.2221368821589371
1781552374137343488,1.073873519897461,-0.16275018453598022,-0.7323865294456482,0.3555236756801605,-0.7314822673797607,0.5541255474090576,-0.39733952283859253,-0.45255398750305176,-0.8708979487419128,-1.4659721851348877,0.5892860281815597,0.07663439082298519,-0.5435599407636736,0.5928000035361035,-0.5873120852017967,-1.0731905824525487,1.2208076742625966
1781552374147377408,1.0839076042175293,0.059589408338069916,-0.7399738430976868,0.23900745809078217,-0.7327299118041992,0.5562047362327576,-0.3921012580394745,-0.37843042612075806,-0.44322866201400757,-1.0225563049316406,0.5866740921429527,0.07781825031999645,-0.5457963791503018,0.5931815130471951,-0.5898119338770301,-1.079446006959743,1.2218255608721622
1781552374157412608,1.093942642211914,0.5144866108894348,-0.8647996783256531,0.24296943843364716,-0.7344786524772644,0.5569930672645569,-0.38768529891967773,-0.058383285999298096,-0.22194057703018188,-0.13924646377563477,0.5835387126051601,0.08038973813765253,-0.5474439193410167,0.5944116673594885,-0.5907608188540774,-1.0851276055945458,1.2263766614507354
1781552374167447552,1.1039776802062988,0.23790189623832703,-0.8268343210220337,0.2899015247821808,-0.7363890409469604,0.5572172403335571,-0.38371869921684265,0.07623285055160522,-0.2190825343132019,0.3031981289386749,0.5802665783826528,0.08347979938843471,-0.5487911910619668,0.595944643475509,-0.5910308065713561,-1.090426113942456,1.2322705495337938
1781552374177482496,1.1140127182006836,-0.04959486797451973,-0.5013121366500854,0.34414398670196533,-0.7371464371681213,0.5594258904457092,-0.37902212142944336,-0.13992875814437866,-0.202217698097229,0.5523467063903809,0.5773035076715122,0.08484881807062676,-0.5507173671405602,0.596851437715233,-0.5936929736301373,-1.0958732790780248,1.2349942455159444
1781552374187517440,1.1240475177764893,-0.11612755060195923,0.041729822754859924,0.16465972363948822,-0.7365403175354004,0.5616605281829834,-0.3768896758556366,-0.3892683982849121,-0.1351621150970459,0.547666072845459,0.5759708679299318,0.08453502397132726,-0.551732720068619,0.5972456624470475,-0.5963914340237668,-1.09783043708802,1.2354253151907957
1781552374197551616,1.1340816020965576,0.0011671117972582579,0.42113015055656433,0.09513550996780396,-0.7349233627319336,0.5627881288528442,-0.3783610761165619,-0.5226754546165466,0.024247944355010986,0.3676188886165619,0.5763550571911966,0.0832468673472331,-0.5512616661970307,0.597490905802828,-0.5977549818153899,-1.0953547323658963,1.2352990398501587
1781552374207586560,1.1441166400909424,0.35093894600868225,0.5113040804862976,0.18709498643875122,-0.7323386669158936,0.5631906986236572,-0.38274839520454407,-0.42829060554504395,0.29806119203567505,0.17524409294128418,0.577162154960185,0.08192850281415276,-0.5494665829747986,0.598546640728606,-0.5982420372623181,-1.089202381573637,1.2378606537886692
1781552374217621504,1.1541516780853271,0.7973896861076355,0.6223337054252625,0.16227592527866364,-0.7291004657745361,0.5622940063476562,-0.390176922082901,-0.26540637016296387,0.46469879150390625,-0.04561412334442139,0.5779223357660482,0.08140143621638865,-0.546155059090398,0.6009112272061541,-0.5971572803103498,-1.0794269992316767,1.2451446749756443
1781552374227656704,1.164186716079712,0.9889509081840515,0.7578021287918091,0.015568243339657784,-0.7258114814758301,0.5593604445457458,-0.40039169788360596,-0.19324058294296265,0.3621177673339844,-0.20945629477500916,0.5791550836853256,0.08169797956552696,-0.5414144356413674,0.603966225411551,-0.5936140761124787,-1.066689536649848,1.2554334044868913
1781552374237691392,1.1742215156555176,1.0188510417938232,0.8241348266601562,-0.2180168181657791,-0.7231317758560181,0.5544762015342712,-0.4118695557117462,-0.15530139207839966,0.09850835800170898,-0.22672602534294128,0.5812203850553054,0.08249393764950325,-0.5359663929387275,0.6067269802418166,-0.5877334487258726,-1.0530572322528642,1.2654808668214164
1781552374247725568,1.184255599975586,0.9222251176834106,0.7606986165046692,-0.33224913477897644,-0.7213631272315979,0.548285186290741,-0.42310598492622375,-0.0783347487449646,-0.10533779859542847,-0.17047619819641113,0.5838313368936389,0.08368547012375198,-0.5305127179496469,0.6088464842940838,-0.5803123827983868,-1.0403350720333637,1.2739685196936485
1781552374257760512,1.1942906379699707,0.7612476944923401,0.6799502372741699,-0.3336472809314728,-0.7201141119003296,0.5422202944755554,-0.43293508887290955,0.0013946294784545898,-0.18238753080368042,-0.052981019020080566,0.5864096026465874,0.08485823282408893,-0.5256724571017644,0.6104026002523489,-0.5730773390222001,-1.029492406824566,1.2806124646722437
1781552374267795456,1.2043256759643555,0.551674485206604,0.6805741190910339,-0.31625232100486755,-0.7188900709152222,0.5370048880577087,-0.44138726592063904,0.020159661769866943,-0.18036127090454102,0.019588559865951538,0.5889019805723378,0.08556484589839672,-0.5215218345589405,0.6114638269748391,-0.5668825649365266,-1.020157625868902,1.2852987955105202
1781552374277830656,1.2143607139587402,0.40871676802635193,0.6769082546234131,-0.3076103627681732,-0.7175105810165405,0.5326094031333923,-0.4488939046859741,-0.0026889443397521973,-0.1726393699645996,0.03982105851173401,0.5914351093651024,0.08570369119821707,-0.5178879472277979,0.6120877484945121,-0.5616806557489389,-1.0117463561424769,1.2882009951643385
1781552374287865344,1.224395513534546,0.26958978176116943,0.6036360263824463,-0.25785958766937256,-0.7161137461662292,0.5290041565895081,-0.4553413987159729,-0.00033217668533325195,-0.15481287240982056,0.0371742844581604,0.5938507941613915,0.08546844760791046,-0.5148052505323171,0.612382230310934,-0.5574266575675021,-1.0044323040604275,1.2897593955244515
1781552374297899520,1.2344295978546143,0.15928511321544647,0.5214231610298157,-0.16620367765426636,-0.7146616578102112,0.5264989733695984,-0.4604969024658203,0.03282278776168823,-0.09821534156799316,0.0541096031665802,0.5958393858089359,0.08494427826448335,-0.5123826849202655,0.6125551153419778,-0.5544772892540163,-0.9983986402809109,1.290587581367299
1781552374307934464,1.244464635848999,0.061637382954359055,0.4541695713996887,-0.10063239932060242,-0.7130833864212036,0.5250037908554077,-0.4646322429180145,0.05443775653839111,-0.049570441246032715,0.05855005979537964,0.5974764785439004,0.08411116770611402,-0.5104989626051584,0.6126483630612631,-0.5527196002191098,-0.9933098384240109,1.290835053612877
1781552374317969664,1.2544996738433838,-0.06713257730007172,0.3682014048099518,-0.029504425823688507,-0.711487889289856,0.5245413780212402,-0.4675910472869873,0.06245529651641846,-0.034230709075927734,0.042450666427612305,0.598735458935019,0.08300330808223483,-0.5092297374272766,0.6126266477063578,-0.5521763324206863,-0.9893750402917976,1.290413734289039
1781552374328004608,1.2645347118377686,-0.17291173338890076,0.260109007358551,0.03586072847247124,-0.7099711894989014,0.5251278281211853,-0.4692351222038269,0.07958489656448364,-0.04133272171020508,0.03907462954521179,0.5995827837803909,0.08165988141734011,-0.5086394671892245,0.6124687386980909,-0.5528653109396187,-0.9867818055438912,1.2892770395661992
1781552374338039296,1.2745695114135742,-0.26966068148612976,0.14409907162189484,0.09581674635410309,-0.7086707353591919,0.5266400575637817,-0.469506174325943,0.09390944242477417,-0.06435984373092651,0.014626413583755493,0.599998099879487,0.08019415884328697,-0.508739436783693,0.6121726560116337,-0.5546432428444832,-0.9856723129403334,1.287489476535701
1781552374348073472,1.2846035957336426,-0.30876651406288147,0.029411371797323227,0.1671934574842453,-0.707554817199707,0.5289222598075867,-0.4686230421066284,0.10063648223876953,-0.08646315336227417,-0.001820683479309082,0.5999315580656863,0.07872649461068526,-0.5094022176134041,0.6118772760094675,-0.5573301524626318,-0.9858135925779355,1.2855425647987495
1781552374358108416,1.2946386337280273,-0.3744179606437683,-0.05657757446169853,0.21401235461235046,-0.706588625907898,0.5318748354911804,-0.46673524379730225,0.09814441204071045,-0.08671492338180542,-0.01394718885421753,0.5994523797772688,0.07724543396044846,-0.5105541345188841,0.611575469092948,-0.5608130112195387,-0.9870421411766689,1.2834248200920484
1781552374368143616,1.304673671722412,-0.39952677488327026,-0.1046883761882782,0.21023812890052795,-0.7058040499687195,0.5352481007575989,-0.46405819058418274,0.08825039863586426,-0.07148778438568115,-0.006965339183807373,0.5987292454408847,0.07575599576742027,-0.5120858621053023,0.6111892812710731,-0.5648014585941941,-0.9891746452015162,1.2809507364249415
1781552374378178560,1.3147087097167969,-0.4218371510505676,-0.17770293354988098,0.21188369393348694,-0.7053480744361877,0.5385430455207825,-0.4609289765357971,0.07964617013931274,-0.06877070665359497,-0.004708230495452881,0.5979041672298837,0.07445321310279308,-0.5138017376686916,0.6107169066130054,-0.5687070272281342,-0.9919804570015208,1.2782931120485064
1781552374388213504,1.3247435092926025,-0.4308492839336395,-0.205053448677063,0.20400366187095642,-0.7050666213035583,0.5420457124710083,-0.4572390913963318,0.06325143575668335,-0.0628434419631958,-0.006017744541168213,0.5969188886264485,0.0731885108687325,-0.515775043290778,0.6101700128444215,-0.5728695735980884,-0.9954729132183682,1.2753621969669307
1781552374398248448,1.3347785472869873,-0.4177052676677704,-0.23035481572151184,0.17969806492328644,-0.7050282955169678,0.5452942252159119,-0.4534195363521576,0.03820395469665527,-0.04982614517211914,0.0021408796310424805,0.5959499077140795,0.07209430315424353,-0.5177766277624068,0.609551887402169,-0.5767401115324687,-0.999271123106487,1.272319978587759
1781552374408282624,1.3448126316070557,-0.38992103934288025,-0.21591728925704956,0.1154109537601471,-0.705193042755127,0.5481976866722107,-0.4496466815471649,0.003471851348876953,-0.028498589992523193,-0.016692399978637695,0.5950497852812486,0.0711728630708893,-0.5197221183118508,0.6088835240332833,-0.580207721274409,-1.0031718682925241,1.2692533024152508
1781552374418317568,1.3548476696014404,-0.3883329927921295,-0.26680445671081543,0.11435740441083908,-0.7056585550308228,0.5506619215011597,-0.44588935375213623,-0.01765376329421997,-0.007372796535491943,-0.04197987914085388,0.5942584470542215,0.07046506369875123,-0.5216224697673458,0.6081130242460483,-0.5831570030514448,-1.0072671000378144,1.2660434289474989
1781552374428352512,1.3648827075958252,-0.38187962770462036,-0.2644878923892975,0.07146906107664108,-0.7063094973564148,0.5531026721000671,-0.4418192505836487,-0.02806544303894043,-0.010835826396942139,-0.05245870351791382,0.5933660105625423,0.06988189549360317,-0.5236476811519314,0.607310764963168,-0.5860838354631369,-1.0118144972600327,1.262772035916442
1781552374438387456,1.3749175071716309,-0.38657450675964355,-0.2370498776435852,-0.013692439533770084,-0.7072879076004028,0.5549275279045105,-0.43794888257980347,-0.04947173595428467,-0.026912391185760498,-0.07114529609680176,0.5927750328537457,0.06945801289749194,-0.5255484174385656,0.6062938114341218,-0.5882758790225899,-1.0163825263677881,1.259042680481025
1781552374448422400,1.3849525451660156,-0.4070446193218231,-0.24304144084453583,-0.03761295601725578,-0.7084924578666687,0.5564658641815186,-0.43403249979019165,-0.0674780011177063,-0.034783124923706055,-0.06140512228012085,0.5923591754648857,0.06908486523011048,-0.5274571357929253,0.6050841991649496,-0.5901261595662558,-1.021153317940688,1.2548044842674966
1781552374458456576,1.394986629486084,-0.4072459638118744,-0.22714930772781372,-0.06614606082439423,-0.7098163366317749,0.5578715801239014,-0.43004652857780457,-0.05364185571670532,-0.03144341707229614,-0.033423930406570435,0.5920345707001367,0.0687214236406174,-0.5293903164309474,0.603753483060853,-0.5918189940474554,-1.0260820332878131,1.2502239939230229
1781552374468491520,1.4050216674804688,-0.3338974416255951,-0.1798034906387329,-0.1027783751487732,-0.7111644744873047,0.5588051676750183,-0.42659327387809753,-0.04983705282211304,-0.025327444076538086,-0.02418181300163269,0.5919054477918102,0.0684710612949023,-0.5310509158546385,0.6024487840139832,-0.5929443266703887,-1.0304858183774184,1.2458829575527723
1781552374478526720,1.4150567054748535,-0.30459070205688477,-0.1575586348772049,-0.12730741500854492,-0.712537407875061,0.5592817068099976,-0.42366787791252136,-0.044237494468688965,-0.0038160085678100586,-0.030510008335113525,0.5919336632365574,0.06836146832510814,-0.5324403889615321,0.601205886917123,-0.5935190379877535,-1.0343639914051432,1.2419029958214278
1781552374488561408,1.4250915050506592,-0.30049023032188416,-0.15571986138820648,-0.08905617147684097,-0.7138017416000366,0.5598246455192566,-0.4208129942417145,-0.02437269687652588,0.03265887498855591,-0.02424013614654541,0.5919272985861043,0.06821628608829425,-0.5337977516368279,0.6000238718485665,-0.594174133776949,-1.0381052425918074,1.2380777455260432
1781552374498596352,1.435126543045044,-0.25992733240127563,-0.1381605863571167,-0.08872780203819275,-0.7148951292037964,0.560391366481781,-0.4181942641735077,-0.008081555366516113,0.032427847385406494,-0.027850627899169922,0.591879027816251,0.06806090756433382,-0.5350425949398083,0.5989794224673008,-0.5948582531437088,-1.0414994675167617,1.234662209201295
1781552374508630528,1.4451606273651123,-0.23485898971557617,-0.12661299109458923,-0.11266083270311356,-0.7160141468048096,0.5606105923652649,-0.41598010063171387,-0.007694900035858154,-0.002184748649597168,-0.044865816831588745,0.5919599974236944,0.06800877986294812,-0.5360827851370188,0.5979743860195782,-0.5951229779817696,-1.044489755593843,1.2315019761671717
1781552374518665472,1.455195665359497,-0.2194978892803192,-0.1303158551454544,-0.10733770579099655,-0.7171357274055481,0.5608084201812744,-0.4137755036354065,0.006823837757110596,-0.02411109209060669,-0.047650277614593506,0.5920095361097117,0.06799391733710455,-0.5371117867037685,0.5970028563208382,-0.5953619265728439,-1.0474726394104612,1.2284640756820202
1781552374528700672,1.4652307033538818,-0.21456465125083923,-0.1406722068786621,-0.1455756425857544,-0.7184047698974609,0.5607312917709351,-0.411673367023468,0.023290693759918213,-0.038941800594329834,-0.05312463641166687,0.5921299811574335,0.06810718469492402,-0.5380750274663361,0.5960023061589073,-0.5952687540693428,-1.0504376786325216,1.2254636439540718
1781552374538735360,1.4752655029296875,-0.23487018048763275,-0.14600706100463867,-0.10391953587532043,-0.7197085022926331,0.5607025027275085,-0.4094291627407074,0.023541569709777832,-0.04588627815246582,-0.0581611692905426,0.5922330807592172,0.0682044917043515,-0.5391044150452774,0.5949574902311261,-0.5952339771843547,-1.0535720914086095,1.2223101746730982
1781552374548770304,1.4853005409240723,-0.2163470983505249,-0.11649656295776367,-0.11734479665756226,-0.7208362817764282,0.5608304142951965,-0.40726444125175476,0.029002785682678223,-0.04535800218582153,-0.03438591957092285,0.5922843741745787,0.0682195105472427,-0.5401054287628196,0.5939961546278859,-0.5953884365315893,-1.0565182420564387,1.2193382313582206
1781552374558804480,1.4953346252441406,-0.22070935368537903,-0.07819178700447083,-0.12120211869478226,-0.7219166159629822,0.560873806476593,-0.4052862226963043,0.012382984161376953,-0.03484237194061279,-0.02456912398338318,0.592443889725185,0.0681803570706724,-0.5410252608415805,0.5930036231285275,-0.5954408724532473,-1.0592405261455053,1.216278352232851
1781552374568839424,1.5053696632385254,-0.2067972719669342,-0.08776092529296875,-0.09826857596635818,-0.7228972315788269,0.560876727104187,-0.4035305380821228,0.007870376110076904,-0.004999041557312012,-0.006396830081939697,0.5926406592828275,0.06811722031442685,-0.5418438694749751,0.5920661208583118,-0.5954443985249452,-1.0616695209088833,1.2133918800625363
1781552374578874624,1.5154047012329102,-0.19124840199947357,-0.07799032330513,-0.08623241633176804,-0.7237152457237244,0.5610336661338806,-0.40184256434440613,0.011907994747161865,0.012589991092681885,-0.01402050256729126,0.5927532695619555,0.06800686930994027,-0.5426359545721064,0.5912400917845281,-0.5956339842223902,-1.0639316794110054,1.2107830281146308
1781552374588909312,1.5254395008087158,-0.1506889909505844,-0.052446212619543076,-0.10861202329397202,-0.7245102524757385,0.5610721707344055,-0.40035364031791687,0.01032257080078125,0.006783664226531982,-0.020193874835968018,0.5929023391929633,0.0679354994568309,-0.5433304288351382,0.5904605908863885,-0.5956804991546641,-1.0659704916456423,1.2083669980951948
1781552374598944512,1.5354745388031006,-0.12570907175540924,-0.07347027212381363,-0.10055436939001083,-0.725402295589447,0.5607485175132751,-0.39918965101242065,0.005508005619049072,-0.019412517547607422,-0.03432774543762207,0.593126460345663,0.06804329729306456,-0.5438522577571323,0.5897420411168655,-0.5952895494771873,-1.0677220053014553,1.2063136535841543
1781552374608979456,1.5455095767974854,-0.0900442898273468,-0.08318760991096497,-0.11312688142061234,-0.7263003587722778,0.56028813123703,-0.3982023596763611,0.007031559944152832,-0.01675480604171753,-0.04430246353149414,0.5933198770062957,0.06826937579403539,-0.5442776016460127,0.589128843328873,-0.5947335959728597,-1.0692889988581524,1.2046682283522516
1781552374619013632,1.5555436611175537,-0.104018434882164,-0.1081526130437851,-0.06554950773715973,-0.7271624207496643,0.5599857568740845,-0.3970527648925781,0.0028886795043945312,-0.00036960840225219727,-0.03994375467300415,0.593384786280437,0.06850338067283485,-0.544776011348161,0.5885753957957197,-0.594368642673387,-1.0710059107692598,1.2031600279385233
1781552374629048576,1.5655786991119385,-0.11084730923175812,-0.07469785213470459,-0.07278558611869812,-0.7278855443000793,0.5599252581596375,-0.3958110213279724,-0.005284011363983154,-0.004429042339324951,-0.030366957187652588,0.5933599231942502,0.06864283175086501,-0.5453280158597108,0.5880727326213447,-0.5942955933427284,-1.0727395624945142,1.201698127394188
1781552374639083264,1.5756134986877441,-0.17017534375190735,-0.08460374921560287,-0.051521047949790955,-0.7285947203636169,0.5599064230918884,-0.3945310115814209,-0.016003668308258057,-0.03202861547470093,-0.0288698673248291,0.5934399804452627,0.06865414471519343,-0.5459130944383224,0.58744755984241,-0.5942728302619106,-1.0745056718265946,1.1998054188724032
1781552374649118464,1.585648536682129,-0.1938476413488388,-0.08161555230617523,-0.06475988030433655,-0.7292448282241821,0.5602220892906189,-0.39287832379341125,-0.010272383689880371,-0.04845750331878662,-0.011693239212036133,0.593429625144535,0.06851648988250825,-0.5466866812448932,0.5867543189692055,-0.5946539170626095,-1.076633837071076,1.1975464414960777
1781552374659153408,1.5956835746765137,-0.21839000284671783,-0.08723082393407822,-0.07801896333694458,-0.7299909591674805,0.560441792011261,-0.3911755383014679,-0.004048347473144531,-0.047654926776885986,-0.016066312789916992,0.5935179373779007,0.06835784828206681,-0.5474846498752005,0.5859388022357945,-0.5949191317531217,-1.0788711971724265,1.194938214255701
1781552374669187584,1.605717658996582,-0.17550405859947205,-0.06214957311749458,-0.10274268686771393,-0.7307462096214294,0.5606505274772644,-0.38946250081062317,-0.007153570652008057,-0.03880000114440918,-0.02756020426750183,0.593603581611632,0.06820655564248085,-0.5482851627488131,0.5851205825293989,-0.5951712373105926,-1.081125438208122,1.1923278879530017
1781552374679223552,1.6157536506652832,-0.1789933294057846,-0.07569201290607452,-0.10136955976486206,-0.7316246628761292,0.5605562925338745,-0.38794586062431335,0.0033684968948364258,-0.023538529872894287,-0.037331849336624146,0.593778002263162,0.06818610082829661,-0.5489787994350126,0.5842949805847,-0.5950574134661318,-1.0832405763495836,1.1898407123958252
1781552374689258496,1.625788688659668,-0.1830408126115799,-0.11204110085964203,-0.07402928173542023,-0.7324949502944946,0.5605248212814331,-0.3863457143306732,0.007946670055389404,-0.002541482448577881,-0.029486745595932007,0.5939010445179327,0.06816721528693827,-0.5497093560949312,0.5834846645709604,-0.5950193726004627,-1.0854399948862101,1.1873813054523943
1781552374699293696,1.6358237266540527,-0.1507672816514969,-0.07032321393489838,-0.10878779739141464,-0.7332821488380432,0.5606163144111633,-0.384716272354126,0.011495649814605713,-0.0035790205001831055,-0.011905401945114136,0.5939103548909349,0.06816114344339362,-0.550450655190828,0.5827766091764179,-0.5951298863034202,-1.0876239528997285,1.185197409468694
1781552374709328640,1.6458587646484375,-0.16808022558689117,-0.09859559684991837,-0.13097459077835083,-0.7343210577964783,0.5602620840072632,-0.3832479417324066,0.008979260921478271,-0.01996368169784546,-0.017051130533218384,0.5941329704163599,0.06827794290917713,-0.5511026735011791,0.5819191989173984,-0.5947021897090753,-1.0897764127655598,1.1827529064166002
1781552374719362560,1.6558926105499268,-0.2654472887516022,-0.09657399356365204,-0.07921259105205536,-0.7352422475814819,0.5604259967803955,-0.3812369108200073,0.017773985862731934,-0.04045230150222778,-0.012607663869857788,0.5941888503888969,0.0681816497532942,-0.5520260909111344,0.5809974745397251,-0.5949000487600573,-1.092443677089465,1.1798658366367187
1781552374729397504,1.6659276485443115,-0.2927699685096741,-0.18089020252227783,-0.11543211340904236,-0.7364194989204407,0.560613214969635,-0.3786807954311371,0.041122257709503174,-0.04858928918838501,-0.014446675777435303,0.5942343564596462,0.0680920068393488,-0.5531935321411119,0.5798499002282516,-0.5951261356749518,-1.0958384451004275,1.1762881772997928
1781552374739432448,1.6759626865386963,-0.31296685338020325,-0.1366628259420395,-0.1048915907740593,-0.7375624179840088,0.5610397458076477,-0.37581393122673035,0.025663673877716064,-0.058094799518585205,-0.01647430658340454,0.5941962501322428,0.06790456951606959,-0.5545105996692914,0.5786517186460658,-0.5956413133246122,-1.0995497864515364,1.1724402863956984
1781552374749467648,1.685997724533081,-0.34939730167388916,-0.17873451113700867,-0.16269896924495697,-0.7389713525772095,0.5611384510993958,-0.37288734316825867,0.018787086009979248,-0.05703383684158325,-0.02742701768875122,0.594318212585178,0.06780168977149559,-0.5558410357413093,0.5772603667898495,-0.5957605518336332,-1.1034729041194427,1.1681496004148382
1781552374759502592,1.6960327625274658,-0.3725276589393616,-0.16966138780117035,-0.12116536498069763,-0.7403641939163208,0.5615350604057312,-0.36951208114624023,-0.0009077787399291992,-0.05566048622131348,-0.03306052088737488,0.5943084106202959,0.06760198445812836,-0.5573813177107798,0.5758067905237764,-0.5962397727564537,-1.107872958695598,1.1635321992165755
1781552374769537536,1.7060675621032715,-0.4444308876991272,-0.1582193821668625,-0.15342743694782257,-0.7417498826980591,0.5619553327560425,-0.3660779893398285,-0.008601009845733643,-0.05809497833251953,-0.03036060929298401,0.5944458095125321,0.06722877705276335,-0.5589644832730208,0.5741716227422673,-0.5967478285929074,-1.1123357521475683,1.1582932730728102
1781552374779571456,1.7161016464233398,-0.4034339189529419,-0.07026901841163635,-0.16908521950244904,-0.7429820895195007,0.5624116063117981,-0.36286497116088867,-0.028899013996124268,-0.04860234260559082,-0.04596376419067383,0.594743606904914,0.06665240146353088,-0.5604685233626967,0.572461907263094,-0.5972994782146271,-1.116479810862554,1.152742715593711
1781552374789606656,1.7261366844177246,-0.30941954255104065,-0.09518075734376907,-0.22215962409973145,-0.7444858551025391,0.56222003698349,-0.3600684106349945,-0.012365281581878662,-0.024103641510009766,-0.0680016279220581,0.5951151722362094,0.06647135710653954,-0.5617360220234285,0.5708520215391208,-0.597067873503421,-1.1203164512411363,1.1478727021023878
1781552374799641600,1.7361717224121094,-0.33664608001708984,-0.14222203195095062,-0.0822342112660408,-0.7457806468009949,0.5622534155845642,-0.35732653737068176,-0.01914238929748535,0.020464420318603516,-0.022891908884048462,0.5953174270622146,0.06627517411334657,-0.5629780863574486,0.5694386327089842,-0.597108201136596,-1.1239829346261982,1.1435125990501378
1781552374809676544,1.7462067604064941,-0.2512345016002655,-0.03881855309009552,-0.11188105493783951,-0.7466017007827759,0.5625764727592468,-0.35509684681892395,-0.030726850032806396,0.048690617084503174,-0.012701034545898438,0.5954454422814077,0.06592057093006674,-0.5640089089900358,0.5683249472147547,-0.5974988966788042,-1.1268442492619257,1.1398959545866285
1781552374819711488,1.7562415599822998,-0.1991710364818573,0.007738299667835236,-0.09557345509529114,-0.7472562789916992,0.5625656247138977,-0.35373449325561523,-0.06455707550048828,0.036936938762664795,-0.049723148345947266,0.5957970220900094,0.06558572498953255,-0.5646514567954485,0.5673563529524481,-0.5974857890935948,-1.1286724337813727,1.1368519068510152
1781552374829745408,1.7662756443023682,-0.13496728241443634,0.022145602852106094,-0.059937700629234314,-0.7476339340209961,0.5625982880592346,-0.3528832197189331,-0.055374979972839355,0.039925456047058105,-0.04299077391624451,0.5961004842123767,0.06526107575287289,-0.5650658204354189,0.5666619683235101,-0.5975253168227975,-1.129798572951107,1.134625417616544
1781552374839780608,1.776310682296753,-0.0805826187133789,0.05833077058196068,-0.07738672941923141,-0.7478593587875366,0.5624418258666992,-0.3526551127433777,-0.03007948398590088,0.03304767608642578,-0.052282631397247314,0.5964657698722989,0.06501535275646893,-0.5651950510057651,0.5661768322243064,-0.5973360531537624,-1.13016442359896,1.133132854579709
1781552374849815552,1.7863457202911377,-0.03875260800123215,0.07476673275232315,-0.07338106632232666,-0.7480611205101013,0.5620589852333069,-0.3528375029563904,-0.02168375253677368,0.022367894649505615,-0.06531435251235962,0.596898961715711,0.06487184899187555,-0.5651308615047865,0.5658006896232158,-0.596873110211904,-1.1300690056749643,1.1320933557733557
1781552374859850752,1.7963807582855225,-0.02475689724087715,0.09532101452350616,-0.06414229422807693,-0.7481482625007629,0.5616318583488464,-0.3533323109149933,-0.008947014808654785,0.003050088882446289,-0.04698196053504944,0.5973538040004699,0.06473959080626998,-0.5649271020106074,0.5655390916932475,-0.5963567619254097,-1.1295730402954038,1.1314216902721153
1781552374869885440,1.8064155578613281,-0.013221681118011475,0.1284750998020172,-0.04962407797574997,-0.7480698227882385,0.5612537860870361,-0.3540983498096466,-0.004707276821136475,-0.014531433582305908,-0.028775125741958618,0.597844915333738,0.06453380967167699,-0.5646115553522466,0.5653588052876048,-0.595899936894756,-1.1286956343831658,1.1309518952442144
1781552374879920384,1.816450595855713,-0.004336576908826828,0.15307818353176117,-0.04049529507756233,-0.7478184103965759,0.5609369874000549,-0.3551301956176758,-0.004302561283111572,-0.013543188571929932,-0.02734661102294922,0.5983835098914764,0.0642340378644694,-0.5641887006658098,0.5652454524256062,-0.5955172226396962,-1.1274391576206413,1.1306287832144952
1781552374889954560,1.8264846801757812,0.013851216062903404,0.16779854893684387,-0.019663246348500252,-0.7474191784858704,0.5606661438941956,-0.3563958406448364,-0.0014668703079223633,-0.001278996467590332,-0.03232172131538391,0.5989365292309644,0.063884261071099,-0.5636673428671143,0.5652193569523319,-0.5951900704656895,-1.125851601198098,1.1305346504904057
1781552374899989504,1.836519718170166,0.03487447649240494,0.17795529961585999,0.0032633738592267036,-0.7468439340591431,0.5604994297027588,-0.35786110162734985,0.006731629371643066,0.0031296610832214355,-0.03213825821876526,0.5994463080831035,0.06349821209847002,-0.5630607642511605,0.5653270599155025,-0.5949887468586726,-1.1239556008302145,1.1307926340259475
1781552374910024704,1.8465547561645508,0.039301980286836624,0.1848030984401703,0.025446174666285515,-0.746114194393158,0.5604591965675354,-0.35944265127182007,0.010549068450927734,-0.0006295442581176758,-0.022835761308670044,0.5999166169610997,0.06305474464338037,-0.5624080132411456,0.5655275017371951,-0.594940186687155,-1.121852703014269,1.1312632616522604
1781552374920059392,1.8565895557403564,0.05239301547408104,0.1905169039964676,0.05461151525378227,-0.7452031373977661,0.5605911612510681,-0.3611230254173279,0.010980725288391113,-0.004820287227630615,-0.01280885934829712,0.6003240073573292,0.06254238164533776,-0.561717847949275,0.565837962291549,-0.5950995314882231,-1.119547069461019,1.1319781154790103
1781552374930094592,1.8666245937347412,0.06056732311844826,0.17867249250411987,0.05485199764370918,-0.744202196598053,0.5608067512512207,-0.36284852027893066,0.015366137027740479,-0.003952503204345703,-0.027654409408569336,0.6006766295762446,0.062019479475906476,-0.5610074244221503,0.5662260482904725,-0.5953598533167649,-1.1171444107263886,1.1328937600611737
1781552374940129536,1.876659631729126,0.0456477589905262,0.1707296073436737,0.06743623316287994,-0.7432074546813965,0.5610445737838745,-0.3645157516002655,0.014691829681396484,-0.015924274921417236,-0.0405745804309845,0.6010036351668346,0.06150363085735885,-0.5603208263610447,0.5666150351916315,-0.5956471797914294,-1.1148074021938563,1.133808008205507
1781552374950163712,1.8866937160491943,0.05234987288713455,0.1893942505121231,0.07071591913700104,-0.7421526908874512,0.5613857507705688,-0.36613601446151733,0.010432720184326172,-0.03242456912994385,-0.031218111515045166,0.6013079098991144,0.06093102462201655,-0.5596600753681463,0.5670070207616442,-0.5960593873163713,-1.1124882885224217,1.1346755813707416
1781552374960198656,1.896728754043579,0.08107472956180573,0.16853530704975128,0.0559161975979805,-0.7411478757858276,0.5616207122802734,-0.36780720949172974,0.006955981254577637,-0.04207414388656616,-0.03133222460746765,0.6016031078724744,0.060445039880111344,-0.5589658275996693,0.5674305412364725,-0.5963433195119382,-1.1101396119404017,1.1357095134123494
1781552374970233344,1.9067635536193848,0.09253723919391632,0.16548997163772583,0.05272519588470459,-0.7401657700538635,0.5616938471794128,-0.36966845393180847,-0.0007094740867614746,-0.04068249464035034,-0.038305819034576416,0.6019161624656573,0.06005912222329071,-0.5581744094938584,0.5679183476124695,-0.5964317290752214,-1.1075967341545554,1.1370335882342533
1781552374980268544,1.9167985916137695,0.08481726050376892,0.1816233992576599,0.05706694722175598,-0.7392300963401794,0.5617406368255615,-0.3714653253555298,-0.007657170295715332,-0.020145118236541748,-0.026148229837417603,0.6022299572053047,0.05969089669502882,-0.557408585354298,0.5683765424945106,-0.5964882637327248,-1.1051483397801118,1.1382850941502893
1781552374990303488,1.9268336296081543,0.07773086428642273,0.18945616483688354,0.05062422901391983,-0.7382305860519409,0.5618272423744202,-0.37331724166870117,-0.016102910041809082,-0.010527253150939941,-0.00520750880241394,0.6025663970948651,0.05926713459975793,-0.5566226666458036,0.5688341851466259,-0.596592941003706,-1.1026055664492407,1.1395034638801187
1781552375000337664,1.9368677139282227,0.054236989468336105,0.16759641468524933,0.030461972579360008,-0.7373564839363098,0.5618609189987183,-0.3749900460243225,-0.01676332950592041,-0.018724381923675537,-0.009760290384292603,0.6029270034010197,0.058860560107683,-0.5559140375396956,0.5691870792575584,-0.5966336762279604,-1.100324182839271,1.1404314993042872
1781552375010372608,1.9469027519226074,0.05569906160235405,0.15259481966495514,0.02625870518386364,-0.7366077899932861,0.5618540644645691,-0.37646928429603577,-0.008204221725463867,-0.026041686534881592,-0.012858748435974121,0.6032711174138805,0.0585028568142897,-0.5552862144753161,0.5694722951689317,-0.5966253714666839,-1.098320004960368,1.1411863298990335
1781552375020407552,1.956937551498413,0.03613308444619179,0.14633159339427948,0.024831783026456833,-0.7358730435371399,0.5618460774421692,-0.3779153525829315,-0.003583192825317383,-0.026857614517211914,-0.01922518014907837,0.6036158351223854,0.05814468041694107,-0.5546724480522122,0.5697418023821367,-0.5966156988737384,-1.096359253805753,1.1418946131099745
1781552375030442496,1.9669725894927979,0.026307884603738785,0.1377214789390564,0.014276610687375069,-0.7352508306503296,0.5618466734886169,-0.37912341952323914,-0.00222170352935791,-0.023928582668304443,-0.025265038013458252,0.6039448408961919,0.05779907459188816,-0.5541638332714087,0.5699231440068252,-0.5966164502561382,-1.0947165606628932,1.1423371960950033
1781552375040477440,1.9770076274871826,0.032383352518081665,0.14925748109817505,0.027232622727751732,-0.7345907688140869,0.5618775486946106,-0.3803551197052002,-0.001294851303100586,-0.029849350452423096,-0.020600080490112305,0.6042800643822482,0.05742340848025874,-0.5536469927299337,0.5701080100601287,-0.596653738715334,-1.0930274885888391,1.1427706845877317
1781552375050512640,1.9870426654815674,0.03830435872077942,0.138243168592453,0.025270406156778336,-0.7339100241661072,0.5619010925292969,-0.38163241744041443,-0.0024943947792053223,-0.028499603271484375,-0.023259520530700684,0.6045985620365005,0.057067725251409095,-0.5531067459687343,0.5703304236980749,-0.5966822098187822,-1.0912778914660037,1.1433276618242323
1781552375060546560,1.9970767498016357,0.03637596592307091,0.14508643746376038,0.03698165342211723,-0.7331726551055908,0.5619813203811646,-0.38292911648750305,-0.005978286266326904,-0.014953792095184326,-0.020375937223434448,0.604901287623775,0.056683099143219375,-0.5525599257514804,0.5705776455520807,-0.5967792184201088,-1.0894757448525112,1.1439306752902012
1781552375070581504,2.0071115493774414,0.03145257756114006,0.14698979258537292,0.04579698294401169,-0.7323923707008362,0.5621246695518494,-0.3842100203037262,-0.005568444728851318,-0.0014404654502868652,-0.02088034152984619,0.6051804167986692,0.05627338713360741,-0.5520220087081334,0.5708429898405611,-0.5969525472073026,-1.0876661760173267,1.1445587500313217
1781552375080616448,2.017146587371826,0.016134344041347504,0.15112142264842987,0.0576041080057621,-0.7315268516540527,0.56238853931427,-0.38547056913375854,-0.0020851492881774902,-0.0045577287673950195,-0.021710216999053955,0.6054513503311734,0.05578011326879405,-0.551500940718124,0.571107686143429,-0.597271640715206,-1.0858299221852463,1.1451162798489176
1781552375090651392,2.027181625366211,0.005468117073178291,0.15708783268928528,0.08129213005304337,-0.7305081486701965,0.562853991985321,-0.3867209851741791,0.0018246769905090332,-0.019992053508758545,-0.016507744789123535,0.6056910183690176,0.055164163128442203,-0.5509958510907579,0.5714007545435003,-0.5978346539372794,-1.083917028305741,1.1456504389875015
1781552375100686592,2.0372166633605957,-0.022983498871326447,0.142091304063797,0.07920128107070923,-0.729499340057373,0.563441812992096,-0.38776785135269165,0.007377207279205322,-0.028697609901428223,-0.024478822946548462,0.6058758393566391,0.05451329337453047,-0.5505854850143821,0.5716627136128688,-0.5985459650738092,-1.0822257803447757,1.1460368687258942
1781552375110721536,2.0472517013549805,-0.05876120179891586,0.11658529192209244,0.09104809165000916,-0.7285279631614685,0.5642175078392029,-0.38846561312675476,0.013745307922363281,-0.034157752990722656,-0.02947261929512024,0.605993716460229,0.05379417263931619,-0.5503393316215845,0.5718429624658068,-0.599485164257345,-1.0809273273027482,1.1460877269272967
1781552375120755456,2.0572855472564697,-0.09686331450939178,0.11022459715604782,0.10795409977436066,-0.7275367975234985,0.5652298927307129,-0.38885122537612915,0.01818627119064331,-0.040998995304107666,-0.022678285837173462,0.6060389737415778,0.05297412949075786,-0.5502437034203396,0.571963540771921,-0.600711915710153,-1.0799495272668813,1.1458419265076765
1781552375130790400,2.0673205852508545,-0.10132810473442078,0.10200302302837372,0.12976352870464325,-0.7263858318328857,0.566511332988739,-0.3891380727291107,0.018957912921905518,-0.04328751564025879,-0.013968586921691895,0.6060431481983893,0.05199177523373923,-0.5502070650046286,0.572084466814624,-0.6022660969688923,-1.078984131750503,1.1454527780522958
1781552375140825600,2.0773556232452393,-0.12141686677932739,0.08543895184993744,0.12405610829591751,-0.725342333316803,0.5678277611732483,-0.3891657888889313,0.02124077081680298,-0.043169617652893066,-0.020883619785308838,0.6059529406977981,0.05107976574342846,-0.5502798905387741,0.5721921095717448,-0.6038644947295446,-1.0783558115998073,1.1450316373193463
1781552375150860544,2.087390661239624,-0.13907574117183685,0.08092515915632248,0.1300354301929474,-0.724306583404541,0.5692525506019592,-0.3890136480331421,0.016161441802978516,-0.03815513849258423,-0.01130068302154541,0.6058553739968947,0.050096390601681806,-0.5504393927330381,0.5722291084669506,-0.6055964433991478,-1.077923274613326,1.1443358011910918
1781552375160895488,2.097425699234009,-0.11894837021827698,0.04116709902882576,0.1315118968486786,-0.7232570052146912,0.570707380771637,-0.3888345956802368,0.013326644897460938,-0.02992069721221924,-0.016438812017440796,0.6057064854418438,0.04913823539961501,-0.5506070560538777,0.572308411695751,-0.6073670731892679,-1.07751058699255,1.143765732053759
1781552375170930688,2.1074607372283936,-0.14768122136592865,0.08373039960861206,0.09834381937980652,-0.722396969795227,0.5720367431640625,-0.38847994804382324,0.010833799839019775,-0.0233154296875,-0.026940584182739258,0.605578990678256,0.0482585402708329,-0.550845836106933,0.5722884964160085,-0.6089868677400079,-1.0773949172220734,1.1429615988956379
1781552375180964352,2.117494583129883,-0.12770244479179382,0.05833077058196068,0.07089301943778992,-0.7216587066650391,0.5731713175773621,-0.38817960023880005,-0.008352279663085938,-0.02765434980392456,-0.02127474546432495,0.6055580248422087,0.047421682824054075,-0.5510547865763338,0.5721794739138862,-0.6103707614303906,-1.0772910418744541,1.1419709170961938
1781552375190999552,2.1275296211242676,-0.12169888615608215,0.07198692858219147,0.07595755159854889,-0.72098708152771,0.5741605162620544,-0.3879656493663788,-0.01775193214416504,-0.021258294582366943,-0.031055986881256104,0.605569053403917,0.046661333010449495,-0.5512167407154991,0.5720742613506383,-0.611578427683085,-1.0771325933067888,1.141068330338782
1781552375201034496,2.1375646591186523,-0.1278204321861267,0.04806241765618324,0.05098162591457367,-0.7203902006149292,0.5751062631607056,-0.38767367601394653,-0.0163041353225708,-0.01596313714981079,-0.027289152145385742,0.6055689307546938,0.04594627588390534,-0.5514092024546932,0.571946861577342,-0.612734021135687,-1.0771011681050322,1.1401261335783026
1781552375211069696,2.147599697113037,-0.11911456286907196,0.07031526416540146,0.023175030946731567,-0.7199227809906006,0.5758481025695801,-0.38744056224823,-0.026186227798461914,-0.041027605533599854,-0.021021932363510132,0.6056700678620519,0.04528701978818302,-0.5515694002542004,0.5717377664798052,-0.6136411645111292,-1.0770812767052484,1.1390267327184482
1781552375221104640,2.157634735107422,-0.11941815912723541,0.0778227150440216,-0.0073213595896959305,-0.7196231484413147,0.5763118267059326,-0.3873077630996704,-0.03323018550872803,-0.04461932182312012,-0.037817418575286865,0.6058979071075288,0.04471544032639712,-0.5516762171417169,0.5714382726833648,-0.6142084514753022,-1.0770506448580819,1.1377809770048048
1781552375231139584,2.1676697731018066,-0.11702823638916016,0.08214142918586731,-0.013212804682552814,-0.7193573713302612,0.5766870379447937,-0.3872431218624115,-0.024752795696258545,-0.017650723457336426,-0.03235834836959839,0.6061926088443752,0.0441448653314402,-0.5517514613980357,0.5710973818500614,-0.6146676648563585,-1.076966130198495,1.1364436146350652
1781552375241173504,2.177703619003296,-0.12811177968978882,0.0927613154053688,-0.03204907849431038,-0.7191553711891174,0.5769757628440857,-0.3871881067752838,-0.01718801259994507,-0.008097529411315918,-0.0345495343208313,0.6065294341486117,0.04359923548237676,-0.5518197655590802,0.5707154874050744,-0.6150210725648617,-1.0769082169489619,1.1350210349720609
1781552375251208448,2.1877386569976807,-0.16304472088813782,0.0988604873418808,-0.028767529875040054,-0.7189575433731079,0.5772981643676758,-0.38707488775253296,-0.01668393611907959,-0.01986408233642578,-0.035914063453674316,0.60692882366219,0.04296829689981698,-0.5519205414096297,0.5702411216163114,-0.6154159158175628,-1.076915456485371,1.1332804715145395
1781552375261243648,2.1977736949920654,-0.18344241380691528,0.11165537685155869,-0.01574626937508583,-0.718675971031189,0.5777924656867981,-0.3868599534034729,-0.01446300745010376,-0.02327287197113037,-0.025722414255142212,0.6073299591290576,0.04220543757029362,-0.5520767338606037,0.5697194510480039,-0.6160213761976999,-1.0769837857450835,1.13129454362922
1781552375271278592,2.20780873298645,-0.2156701236963272,0.11371546983718872,0.01645081490278244,-0.7182449102401733,0.5785560011863708,-0.38651931285858154,-0.01152193546295166,-0.02601999044418335,-0.023850560188293457,0.6076907139700163,0.04127685940642274,-0.5523011563359875,0.569185036917074,-0.6169571688503855,-1.077101027619211,1.1291223398561752
1781552375281313536,2.217843770980835,-0.2400771975517273,0.09710932523012161,0.038567833602428436,-0.717670738697052,0.5796247720718384,-0.3859844207763672,-0.0020711421966552734,-0.02905714511871338,-0.014131546020507812,0.6079469186409785,0.0402178321049723,-0.5526213140962117,0.5686763722555034,-0.6182681249302161,-1.0773451286628122,1.1268750556159424
1781552375291348480,2.2278785705566406,-0.2929481565952301,0.09303508698940277,0.04868598282337189,-0.7170308828353882,0.5809491872787476,-0.3851814568042755,0.011540770530700684,-0.03970468044281006,-0.0220755934715271,0.6081593929494125,0.03900756959205408,-0.5530711405636735,0.5680958628519461,-0.6198944027203656,-1.077841627402553,1.1242655795590015
1781552375301382656,2.237912654876709,-0.3188045024871826,0.09470409154891968,0.052272725850343704,-0.7163723111152649,0.5824968218803406,-0.3840680420398712,0.013750851154327393,-0.048973262310028076,-0.017268598079681396,0.6083393384113412,0.03765938719018891,-0.5536675387869492,0.5674129073169464,-0.6217970998589822,-1.078664893082149,1.1212138802277056
1781552375311417600,2.2479476928710938,-0.32281628251075745,0.08982411026954651,0.06549292802810669,-0.7156722545623779,0.5841391086578369,-0.38287705183029175,0.01533961296081543,-0.041200876235961914,-0.019039452075958252,0.6084940476021545,0.036259109370277716,-0.5542984292224648,0.5667218297592759,-0.623819022119503,-1.0795505722015606,1.1180827267679134
1781552375321452544,2.2579827308654785,-0.31779810786247253,0.08452575653791428,0.07640469819307327,-0.7149162888526917,0.5858647227287292,-0.3816508650779724,0.014736175537109375,-0.018054664134979248,-0.03334242105484009,0.6085977675755981,0.03483953535213513,-0.5549421356627638,0.5660691671980633,-0.6259466862552371,-1.080444655052315,1.1150274285346151
1781552375331487744,2.2680177688598633,-0.334537148475647,0.11506661772727966,0.0682932436466217,-0.7140792012214661,0.5876467227935791,-0.3804763853549957,0.0068648457527160645,-0.010269403457641602,-0.033021509647369385,0.6087417254350682,0.033330416808194374,-0.5555635773501689,0.5653951944074602,-0.628147309458677,-1.0812379511467685,1.1118602075201132
1781552375341522432,2.278052568435669,-0.35763019323349,0.1149052307009697,0.07140647619962692,-0.7132189273834229,0.5894476771354675,-0.37930232286453247,-0.0050733089447021484,-0.02737492322921753,-0.03901737928390503,0.6089332474459517,0.03175418945783873,-0.5561838753539189,0.5646693966586903,-0.6303749212869503,-1.0820198681067081,1.1085071222413805
1781552375351557376,2.2880876064300537,-0.44085317850112915,0.14572225511074066,0.060155417770147324,-0.7123326659202576,0.5914222002029419,-0.37789177894592285,-0.010003209114074707,-0.05435854196548462,-0.052146732807159424,0.6091688829084221,0.029995186865918514,-0.5569150677058365,0.5637901434422526,-0.6328214049795308,-1.0830482155314887,1.1045600981607138
1781552375361591552,2.298121690750122,-0.5439233779907227,0.19675402343273163,0.051204532384872437,-0.7113603949546814,0.5936636924743652,-0.37620460987091064,-0.015507340431213379,-0.07669591903686523,-0.054657816886901855,0.6095541659044016,0.02787263346492725,-0.5577820478764753,0.5626242875594468,-0.635604031666883,-1.084334148145279,1.099526941205183
1781552375371626496,2.308156728744507,-0.7045271396636963,0.26269763708114624,0.045294180512428284,-0.7101466059684753,0.5963581204414368,-0.37423065304756165,-0.024579286575317383,-0.09261977672576904,-0.060690611600875854,0.6101645691406832,0.02515936071259926,-0.5587948524940622,0.561083228766052,-0.638956512061634,-1.0858010914995375,1.0930048692855276
1781552375381661696,2.3181917667388916,-0.8687118291854858,0.3108108341693878,0.0261995829641819,-0.708865761756897,0.5995686054229736,-0.371519535779953,-0.027630150318145752,-0.09055072069168091,-0.0727401077747345,0.6109523776543367,0.02184305311866173,-0.5601456207324289,0.5590142101039265,-0.6429619589702008,-1.0880518154356256,1.0844759066286684
1781552375391696384,2.3282265663146973,-0.990565836429596,0.34345200657844543,0.0005155241815373302,-0.7075790762901306,0.6030973196029663,-0.36824658513069153,-0.029298365116119385,-0.09549844264984131,-0.09272140264511108,0.6119412603562727,0.018038808017626227,-0.5617395333261133,0.5564631684480225,-0.64737843021811,-1.0909372552241448,1.074186751591356
1781552375401731584,2.338261604309082,-1.0618208646774292,0.44909587502479553,-0.023816179484128952,-0.7061744928359985,0.606779932975769,-0.3648778796195984,-0.041017889976501465,-0.08273202180862427,-0.11664372682571411,0.613194634081855,0.013801615506461293,-0.5633565252476135,0.5535624678160601,-0.6520031976426391,-1.0938809294420115,1.062642268335524
1781552375411766528,2.348296642303467,-1.121834397315979,0.4766727685928345,0.006935873068869114,-0.7045189738273621,0.6106656789779663,-0.3615806996822357,-0.037638068199157715,-0.03728610277175903,-0.13918229937553406,0.6146260603387457,0.009173675204489251,-0.5649119305972704,0.550477347236494,-0.6569009449574411,-1.096620341892676,1.0503490521251226
1781552375421800704,2.358330726623535,-1.1576871871948242,0.5046473741531372,0.04986203461885452,-0.7025335431098938,0.6149852275848389,-0.35810577869415283,-0.020137906074523926,-0.017878353595733643,-0.13685879111289978,0.6160105328580922,0.00418904205682205,-0.56650645623281,0.5473425706918172,-0.6623672127837197,-1.0993912804076515,1.0376118453524417
1781552375431835648,2.36836576461792,-1.1772382259368896,0.43553784489631653,0.05016350373625755,-0.7005300521850586,0.6194658875465393,-0.35428768396377563,-0.005143165588378906,-0.04271417856216431,-0.14339298009872437,0.6172580085327826,-0.000851268687782056,-0.5682036958526024,0.5441842385495002,-0.6680621535379664,-1.1025654576643855,1.024671070440521
1781552375441870336,2.3784005641937256,-1.285485863685608,0.41965633630752563,0.07218358665704727,-0.6986319422721863,0.624231219291687,-0.3496411442756653,-0.01683741807937622,-0.05636012554168701,-0.15638607740402222,0.6182791575647961,-0.005981502328977637,-0.5702136909926323,0.5408803216162513,-0.674147075714708,-1.10677643325637,1.0110355450727315
1781552375451905536,2.3884356021881104,-1.344430923461914,0.4248541593551636,0.032060664147138596,-0.6968064904212952,0.6291780471801758,-0.3443772792816162,-0.04208505153656006,-0.05326557159423828,-0.1697218418121338,0.6192894750738711,-0.011353598887970637,-0.5724355519982731,0.537279474099631,-0.6804952930734717,-1.1117816077164333,0.9962530795647255
1781552375461940480,2.398470640182495,-1.4856610298156738,0.3455777168273926,0.07821670919656754,-0.6951714158058167,0.6343305706977844,-0.33817389607429504,-0.07416146993637085,-0.051841557025909424,-0.19924068450927734,0.6201795343360108,-0.016909413790381696,-0.5750018448930855,0.5333520351511263,-0.6871422440632422,-1.1180383248124812,0.9801769438755137
1781552375471975680,2.40850567817688,-1.8264760971069336,0.3213115334510803,0.09918458014726639,-0.6934586763381958,0.6404548287391663,-0.3300495445728302,-0.0871046781539917,-0.03548961877822876,-0.1860790252685547,0.6207372100625111,-0.023157263736247585,-0.5783069893255908,0.528876256974403,-0.6950903393133694,-1.1265756587820634,0.9615150550064272
1781552375482009600,2.4185397624969482,-2.24859881401062,0.2988533675670624,0.06463645398616791,-0.6918962597846985,0.6476964354515076,-0.31901249289512634,-0.10948008298873901,-0.03795522451400757,-0.18893730640411377,0.6211428714921655,-0.03058745369941374,-0.5827161953011558,0.5231518105994821,-0.7045570667787602,-1.138774959259902,0.9377315879105158
1781552375492044544,2.428574562072754,-2.601443290710449,0.20201602578163147,0.005530789494514465,-0.6908412575721741,0.6554974913597107,-0.30505990982055664,-0.12233012914657593,-0.0858258605003357,-0.17899465560913086,0.6213989845356751,-0.03889431829939718,-0.5881813315476514,0.5161330935995159,-0.7148411743971635,-1.1549686574935525,0.9088447221531183
1781552375502079488,2.4386096000671387,-3.121126651763916,0.06008978560566902,-0.07137011736631393,-0.6906882524490356,0.6637172698974609,-0.2871047854423523,-0.11010825634002686,-0.12248802185058594,-0.1762130856513977,0.621265447380826,-0.04801709162208227,-0.5950982842468636,0.5075250252568883,-0.7257775840017544,-1.1768468420589127,0.8736575160491469
1781552375512114432,2.4486446380615234,-3.524702310562134,-0.08831260353326797,-0.11963005363941193,-0.6913463473320007,0.6723104119300842,-0.2646487355232239,-0.10621529817581177,-0.07672935724258423,-0.1349332332611084,0.6205813266857335,-0.05811031150384419,-0.6035717257514173,0.49719531796723593,-0.7373254356538269,-1.205203194191195,0.8313717654936165
1781552375522149632,2.458679676055908,-3.6505942344665527,-0.22352713346481323,-0.24731796979904175,-0.6929707527160645,0.6801683902740479,-0.2390870451927185,-0.11431080102920532,0.0024640560150146484,-0.11503887176513672,0.6194073043290274,-0.068392413350271,-0.61300811841153,0.48567290945493274,-0.7479923246677629,-1.2385671102845452,0.78435627832418
1781552375532184576,2.468714714050293,-3.637653112411499,-0.2660217583179474,-0.3042691648006439,-0.6954702138900757,0.6864399313926697,-0.21241825819015503,-0.1458384394645691,0.12253528833389282,-0.11027461290359497,0.6179772178547283,-0.07820528735122911,-0.62263537045954,0.47361731468361024,-0.7565820274368051,-1.2743643085567788,0.73563177916874
1781552375542218496,2.4787485599517822,-3.634427547454834,-0.22099141776561737,-0.3666590452194214,-0.6982230544090271,0.6914099454879761,-0.18557175993919373,-0.1782875657081604,0.2510796785354614,-0.12309825420379639,0.6164580526461991,-0.08785582780437709,-0.6320565430484685,0.46126497749637196,-0.7634388364676172,-1.3110245466280608,0.6859989821857675
1781552375552253440,2.488783597946167,-3.511451244354248,-0.17671702802181244,-0.6214894652366638,-0.7019396424293518,0.694178581237793,-0.1593647599220276,-0.21825695037841797,0.3084765076637268,-0.1295756846666336,0.6152966995240281,-0.09690874069168383,-0.6410353476398718,0.4484333902550018,-0.7672780774775451,-1.3475459338498936,0.6360779284408588
1781552375562288640,2.4988186359405518,-3.240036725997925,-0.18527936935424805,-0.886351466178894,-0.7074834704399109,0.6938048601150513,-0.13454334437847137,-0.2410181164741516,0.34397590160369873,-0.13565927743911743,0.6147024785016605,-0.10451414257004281,-0.6494652594097853,0.43521545169137177,-0.7667589990600159,-1.382868657710059,0.5877103174114432
1781552375572323584,2.5088536739349365,-2.835693597793579,-0.14260739088058472,-1.0670605897903442,-0.714512288570404,0.690549910068512,-0.11230851709842682,-0.21723514795303345,0.41378968954086304,-0.0768241286277771,0.6146541971991937,-0.11030771661692926,-0.6570220313422018,0.42232046722694533,-0.7622490648032987,-1.4148898633768379,0.5437861691146327
1781552375582358528,2.5188887119293213,-2.4264791011810303,-0.07227171212434769,-1.2316521406173706,-0.7225396037101746,0.6849803328514099,-0.0934794470667839,-0.18586182594299316,0.4679889678955078,-0.0338551327586174,0.6152378432987962,-0.11438441238219928,-0.6634579747333623,0.41014890161593903,-0.7545767379460953,-1.4421347869761447,0.5056529505701256
1781552375592393728,2.528923749923706,-2.094973564147949,0.023559072986245155,-1.416711449623108,-0.7316032648086548,0.6772547364234924,-0.07799194753170013,-0.18303906917572021,0.47853749990463257,-0.016963541507720947,0.6165592362625113,-0.11686473206130105,-0.6688397878963694,0.39856082412592386,-0.744024940767609,-1.4645932800974983,0.4729515605651141
1781552375602427392,2.5389575958251953,-1.8351540565490723,0.16416946053504944,-1.5614795684814453,-0.7415724992752075,0.6676441431045532,-0.0657385066151619,-0.18761146068572998,0.4379009008407593,0.0217931866645813,0.6187357926154915,-0.11808875938554052,-0.6731907544288135,0.38734387623267935,-0.7310398135670952,-1.4823800046031528,0.44480206345951284
1781552375612462592,2.54899263381958,-1.6506222486495972,0.28220924735069275,-1.6669772863388062,-0.7520604133605957,0.6566566228866577,-0.05663219094276428,-0.1820063591003418,0.3503624200820923,0.046958088874816895,0.6217602278654341,-0.11844629876453053,-0.6765015739889266,0.3764708342732192,-0.7163770810387835,-1.4956354640635647,0.4205260880892045
1781552375622497536,2.559027671813965,-1.5802676677703857,0.37088534235954285,-1.7332886457443237,-0.7629664540290833,0.644590437412262,-0.0488390177488327,-0.16220438480377197,0.24444758892059326,0.0911821722984314,0.6251609787791303,-0.11832653355330304,-0.679396292870966,0.3655040320800367,-0.7004874485624359,-1.5068715314600611,0.39786407763000403
1781552375632532480,2.5690627098083496,-1.5658464431762695,0.45281484723091125,-1.7406517267227173,-0.7738984227180481,0.6319062113761902,-0.0421394519507885,-0.1251799464225769,0.14212638139724731,0.13746106624603271,0.6288149195376113,-0.11804047871374436,-0.6819066794843236,0.3544876573997109,-0.6840102635418019,-1.5163991615638466,0.3763196167363841
1781552375642567680,2.5790977478027344,-1.725278377532959,0.5324193835258484,-1.759434461593628,-0.7846558690071106,0.6188979744911194,-0.03578466549515724,-0.0783202052116394,0.06483310461044312,0.16211217641830444,0.6326101976937967,-0.11810335479824442,-0.6842216482334839,0.3430695459426975,-0.667338939083193,-1.5252223482309528,0.3542106418089104
1781552375652602368,2.58913254737854,-1.7827014923095703,0.5805479288101196,-1.7562423944473267,-0.7952883839607239,0.6055126786231995,-0.029513157904148102,-0.044036686420440674,0.024522781372070312,0.16166949272155762,0.6365095797021141,-0.11861192488038519,-0.6864216143959053,0.33107743223193525,-0.6504098928592259,-1.533703342480807,0.33099276854397824
1781552375662637568,2.599167585372925,-1.7651326656341553,0.6390618085861206,-1.7214202880859375,-0.8055474758148193,0.5920534133911133,-0.02379133738577366,-0.011957406997680664,-0.02024555206298828,0.15632915496826172,0.6403923871014087,-0.11929788781632086,-0.6883838651021826,0.31905053772811726,-0.633604429734282,-1.5412705401501563,0.30810245390433094
1781552375672671488,2.609201669692993,-1.6302390098571777,0.7033145427703857,-1.6978379487991333,-0.8154357075691223,0.5785265564918518,-0.01927616074681282,0.029547035694122314,-0.020268499851226807,0.1553540825843811,0.6443914045105277,-0.11994916127312827,-0.6899087751372117,0.30724218748996585,-0.6169211237451976,-1.5471616337915992,0.2864446994382549
1781552375682706944,2.619236946105957,-1.4312068223953247,0.7705228924751282,-1.6718335151672363,-0.8249419331550598,0.5649728178977966,-0.016623636707663536,0.06754148006439209,0.00034999847412109375,0.1407538652420044,0.6485871402959004,-0.12021057265765388,-0.6908238561453148,0.29605141109414895,-0.6004003096613644,-1.5506477732779667,0.26730861703267184
1781552375692741888,2.629271984100342,-1.2177022695541382,0.8355231881141663,-1.6324576139450073,-0.8340544104576111,0.5514498949050903,-0.01600465178489685,0.10724782943725586,-0.005398988723754883,0.11103641986846924,0.653022630381813,-0.11998823637515212,-0.6910864615227291,0.28559368223766163,-0.5841013235702932,-1.5516097041200885,0.25094957412321595
1781552375702776576,2.6393067836761475,-1.0826685428619385,0.8451065421104431,-1.57463800907135,-0.8426586389541626,0.5381820797920227,-0.016926854848861694,0.13820618391036987,-0.050343334674835205,0.07275879383087158,0.6575384624588538,-0.11938667937237141,-0.6908569992649014,0.27587431717080624,-0.5682786847946228,-1.550711588624812,0.23694146011997186
1781552375712811776,2.6493418216705322,-1.0552878379821777,0.811588704586029,-1.524653673171997,-0.8507591485977173,0.5252335667610168,-0.018401749432086945,0.17058336734771729,-0.09250956773757935,0.04565393924713135,0.6619219699071985,-0.11869162245728188,-0.6904429184979312,0.2665712030089416,-0.5529895850154942,-1.549169898834614,0.22396930042322247
1781552375722846720,2.659376859664917,-0.9686996936798096,0.8013080954551697,-1.4355472326278687,-0.8582801222801208,0.5127835869789124,-0.020211515948176384,0.1885107159614563,-0.11484956741333008,0.05544406175613403,0.6661057305947778,-0.11800455357506531,-0.6899051869440226,0.2576996037585626,-0.5384240006132561,-1.5472518209298836,0.2118104912204334
1781552375732880896,2.6694109439849854,-0.8776118159294128,0.8118924498558044,-1.3413400650024414,-0.8650909662246704,0.5010970830917358,-0.02278921566903591,0.2054840326309204,-0.11131131649017334,0.054725825786590576,0.6702028047930944,-0.11736933155145342,-0.6890789735615798,0.24944498360586198,-0.5248660579683548,-1.544459272560071,0.20079865184940837
1781552375742915840,2.67944598197937,-0.7530619502067566,0.8205400109291077,-1.238115906715393,-0.8712205290794373,0.49019038677215576,-0.02623007819056511,0.2183733582496643,-0.10510438680648804,0.0236055888235569,0.6742420268470881,-0.1167028984264376,-0.6879428713601524,0.24189391724892495,-0.5123081724953229,-1.5406981416547312,0.19117770564505612
1781552375752950784,2.689480781555176,-0.5881558060646057,0.7979583740234375,-1.1081821918487549,-0.8766714930534363,0.4801371693611145,-0.030253395438194275,0.24102091789245605,-0.1294597089290619,0.004023553803563118,0.67810135696061,-0.1159078291923954,-0.6866139219698817,0.23517047689025591,-0.5008110674126931,-1.5363006294020527,0.18316122877033025
1781552375762985728,2.6995158195495605,-0.5196065306663513,0.7074761390686035,-1.0118894577026367,-0.8814456462860107,0.47103238105773926,-0.034381892532110214,0.28443026542663574,-0.17124295234680176,-0.0238761305809021,0.6816381852735616,-0.11503777694585426,-0.6852556925278073,0.229260473494137,-0.49046074890133157,-1.531809839478266,0.17649821553202544
1781552375773020672,2.7095508575439453,-0.36049097776412964,0.567668616771698,-0.9256783723831177,-0.8857479691505432,0.4626111388206482,-0.03796696290373802,0.3189755082130432,-0.1877545714378357,-0.03831171989440918,0.6846874583928941,-0.11398786751024957,-0.6841222729746574,0.22402355613962271,-0.48093818264771737,-1.527958252710622,0.1709367372959537
1781552375783055872,2.71958589553833,-0.027868002653121948,0.4431106746196747,-0.83852618932724,-0.8895902633666992,0.4548676908016205,-0.04152988642454147,0.3311643600463867,-0.18495497107505798,-0.02751612663269043,0.6872830312753238,-0.1122374581859122,-0.6831089293806193,0.22001607865441103,-0.4722236465717638,-1.5241459103027157,0.16819895982031874
1781552375793090816,2.729620933532715,0.3964039087295532,0.35907408595085144,-0.7713841199874878,-0.8930480480194092,0.44760578870773315,-0.045980166643857956,0.31943970918655396,-0.14920490980148315,-0.01613837480545044,0.6896448854257583,-0.10927523885816758,-0.681959558618876,0.21766947893206698,-0.4640861357321856,-1.5193549749356605,0.16988494820764782
1781552375803124736,2.739654779434204,0.9124454259872437,0.32787197828292847,-0.7289538383483887,-0.8962206244468689,0.4405617415904999,-0.051902152597904205,0.29001951217651367,-0.09115076065063477,0.007117573171854019,0.6919721848232844,-0.10485878458402037,-0.6804803880015348,0.2170841474258614,-0.4562243101602472,-1.5129486896234425,0.17660986034550744
1781552375813159680,2.749689817428589,1.213615894317627,0.3767107427120209,-0.6715294718742371,-0.8990939855575562,0.4336360692977905,-0.05991252884268761,0.2658696174621582,-0.0358852744102478,0.03810776025056839,0.6944946319822244,-0.09899885745392903,-0.6784120886614842,0.218250625869105,-0.44852408342718253,-1.504258138466559,0.18846919519630992
1781552375823194624,2.7597248554229736,1.1759876012802124,0.4037703275680542,-0.6424986124038696,-0.9016766548156738,0.42693567276000977,-0.06859339028596878,0.2522016167640686,0.025075405836105347,0.04300440102815628,0.6971271954604117,-0.09306011907109905,-0.6760496433426534,0.21979613282396918,-0.44110137129798854,-1.49486941429796,0.20109698759188424
1781552375833229824,2.7697598934173584,1.1340571641921997,0.3450055420398712,-0.5325092673301697,-0.903912365436554,0.4207253158092499,-0.07702278345823288,0.2424134612083435,0.02411407232284546,0.01453806459903717,0.699607175451367,-0.08739670219558916,-0.6736842170360766,0.2214973973572148,-0.43424469898120194,-1.4857912078414413,0.2134438393648644
1781552375843264768,2.779794931411743,0.8067477941513062,0.2311178594827652,-0.4376961886882782,-0.9056922197341919,0.4155692160129547,-0.08380892127752304,0.2539283037185669,-0.09955969452857971,-0.05995941162109375,0.7015409405442724,-0.0826135807109149,-0.6717667264397635,0.22303545322558455,-0.42856852147764374,-1.4785233349166826,0.22388798381333633
1781552375853299968,2.789829969406128,0.3459535241127014,0.143941268324852,-0.36428534984588623,-0.9072007536888123,0.41141435503959656,-0.08789270371198654,0.26418012380599976,-0.16477125883102417,-0.07542210817337036,0.702848313048741,-0.07942480891299021,-0.6706305590349639,0.22349649162271232,-0.42400526979717656,-1.4742143488468613,0.2298299628007973
1781552375863333632,2.799863815307617,-0.11858618259429932,0.04040529578924179,-0.27198925614356995,-0.9084169268608093,0.40843865275382996,-0.08920130133628845,0.23867803812026978,-0.18984118103981018,-0.10026711970567703,0.7035660940933386,-0.07809260759188195,-0.670299107607484,0.2227006133640131,-0.4207428916252919,-1.4729158796261816,0.23065687051859443
1781552375873368832,2.809898853302002,-0.3941671848297119,-0.06093676760792732,-0.2115248292684555,-0.9094037413597107,0.4064945876598358,-0.08801678568124771,0.21139049530029297,-0.1986546516418457,-0.1396443247795105,0.7036916367970972,-0.07821433496370477,-0.670726565166659,0.2209671299072116,-0.41861408138489065,-1.4743116899027384,0.2274964269321543
1781552375883403776,2.8199338912963867,-0.5556937456130981,-0.17663034796714783,-0.1958950012922287,-0.9103201627731323,0.40508386492729187,-0.08499433845281601,0.20101547241210938,-0.16143158078193665,-0.14516925811767578,0.7033291602787627,-0.07910620220920386,-0.6717477493481452,0.21868957338536354,-0.4170705457827343,-1.4776987018380219,0.22204005256474524
1781552375893438720,2.8299689292907715,-0.6554450988769531,-0.27342626452445984,-0.21625646948814392,-0.9113380312919617,0.403720885515213,-0.08045114576816559,0.18492811918258667,-0.07283404469490051,-0.10958176851272583,0.7025428698180894,-0.08031436320441458,-0.6732934198209591,0.21600709562640105,-0.4155802717956925,-1.4827465247085976,0.21519071366027326
1781552375903473920,2.8400039672851562,-0.7199905514717102,-0.3042731285095215,-0.2468031942844391,-0.9125075936317444,0.40213483572006226,-0.07494895160198212,0.16093605756759644,0.015009880065917969,-0.05468969792127609,0.701516636641741,-0.08166285763846834,-0.675171609679369,0.21295261794013123,-0.4138473239896168,-1.4888451300124188,0.20737072106500723
1781552375913508608,2.850038766860962,-0.5724322199821472,-0.3685935139656067,-0.25744307041168213,-0.9137539267539978,0.4003249704837799,-0.06923552602529526,0.11831331253051758,0.0746658444404602,-0.054787926375865936,0.7003868561885942,-0.08281282798490955,-0.6771442042865996,0.2099426698293037,-0.411871430342856,-1.4951704051968489,0.19986022136218132
1781552375923543808,2.8600738048553467,0.07372227311134338,-0.45249852538108826,-0.18219490349292755,-0.9149536490440369,0.3984023630619049,-0.06430652737617493,0.10196542739868164,0.1754348874092102,-0.12453626841306686,0.6990951271199011,-0.08256053850694957,-0.6789922625370854,0.20837279779661913,-0.4097743561655336,-1.5006277924366251,0.1966718582458559
1781552375933577728,2.870107889175415,0.6196338534355164,-0.4729405641555786,-0.192230224609375,-0.9159393906593323,0.3965628743171692,-0.061588115990161896,0.11616510152816772,0.2619760036468506,-0.1985742449760437,0.6978694178735457,-0.08017944912827588,-0.6802772944234435,0.20921858031483911,-0.4077696855947928,-1.503657004145079,0.20060693377992259
1781552375943612928,2.8801429271698,0.6499198079109192,-0.3967440724372864,-0.20891013741493225,-0.9170374870300293,0.3942367732524872,-0.06016503646969795,0.10768073797225952,0.21159818768501282,-0.15496861934661865,0.6968414699590653,-0.07667016984095358,-0.6812042028475297,0.2109373922402872,-0.4052372256784085,-1.5052821710308633,0.20771672993661222
1781552375953647872,2.8901779651641846,0.4396350085735321,-0.32955172657966614,-0.16222278773784637,-0.9179840087890625,0.3921995162963867,-0.059035524725914,0.062438905239105225,0.02079489827156067,-0.005295515060424805,0.6960215712423056,-0.07373695066585136,-0.6819421529947913,0.21230135410893045,-0.4030214513554058,-1.5065747930791102,0.2135647083434267
1781552375963682560,2.9002127647399902,0.20447708666324615,-0.32471567392349243,-0.09227433055639267,-0.9186734557151794,0.3908383250236511,-0.05731057748198509,0.03383153676986694,-0.13406342267990112,-0.0030684471130371094,0.6951649391111713,-0.07183382360573964,-0.6827771331528232,0.21307510397740573,-0.4015421886880535,-1.5084930099037765,0.21697321683427756
1781552375973717760,2.910247802734375,0.010536111891269684,-0.3243381977081299,-0.026726748794317245,-0.9190861582756042,0.3902389407157898,-0.05471818894147873,0.0182531476020813,-0.20859837532043457,-0.022308163344860077,0.6941487552247183,-0.07091990970285326,-0.6838210813272517,0.21334601867667624,-0.4008910993671031,-1.5113310864318132,0.2180724748646063
1781552375983752704,2.9202828407287598,-0.19760936498641968,-0.31403014063835144,0.030563971027731895,-0.9192392826080322,0.3903295695781708,-0.05140197277069092,0.015720486640930176,-0.2154332399368286,0.02170836180448532,0.6930097555999116,-0.0709092566307568,-0.685033496728198,0.2131632585608972,-0.40098951804658095,-1.5149365555219863,0.2170842547170285
1781552375993787648,2.9303178787231445,-0.37618204951286316,-0.2914252281188965,0.057022739201784134,-0.9192101955413818,0.3908975422382355,-0.04745335876941681,0.013433218002319336,-0.16016936302185059,0.07147067785263062,0.6918119915249671,-0.07176219536806658,-0.6863843737041088,0.2124215309156525,-0.401606510712,-1.5192180595247191,0.21391738818204595
1781552376003821824,2.940351963043213,-0.5607569217681885,-0.22947931289672852,0.04557247832417488,-0.9191107749938965,0.3916206359863281,-0.0432300865650177,-0.008150577545166016,-0.058078765869140625,0.08323860168457031,0.6906863439454178,-0.07328525107989076,-0.6877602994004651,0.21111017485042397,-0.40239225468749973,-1.523796280624938,0.20889660058562814
1781552376013856768,2.9503867626190186,-0.7413573265075684,-0.18363752961158752,-0.013051683083176613,-0.9191260933876038,0.3920518755912781,-0.0387645848095417,-0.03239685297012329,0.0305098295211792,0.0917583703994751,0.689717865818898,-0.07540532059511221,-0.6891529181217855,0.20897763656836282,-0.40286098831393163,-1.5286458255310171,0.20174735222620735
1781552376023891712,2.9604218006134033,-0.8898741006851196,-0.18713371455669403,-0.05865059420466423,-0.9193341732025146,0.39201515913009644,-0.03389721363782883,-0.0568774938583374,0.07780301570892334,0.04810309037566185,0.6888200377504723,-0.07791544115842158,-0.6906378049117966,0.20609625641306306,-0.4028210696504511,-1.5339415400527021,0.19283601994655605
1781552376033926656,2.970456838607788,-0.9668501019477844,-0.20922397077083588,-0.10974413901567459,-0.9197264313697815,0.39153072237968445,-0.02840571291744709,-0.05701911449432373,0.08310914039611816,-0.011328158900141716,0.6878496715876553,-0.08064419095081644,-0.692310377013416,0.20264651156776387,-0.40229453950989147,-1.5399211818852472,0.18263214120161747
1781552376043961856,2.980491876602173,-0.8707171678543091,-0.243024542927742,-0.13779467344284058,-0.9202743768692017,0.3906153440475464,-0.022685112431645393,-0.037153542041778564,0.09946641325950623,-0.037342965602874756,0.6868200972627134,-0.08321477638908299,-0.694069697502517,0.1990493016741615,-0.401299942016975,-1.546150938255591,0.17238885817428945
1781552376053996800,2.9905269145965576,-0.5302677154541016,-0.30619898438453674,-0.15436406433582306,-0.9208961129188538,0.38942110538482666,-0.0173704382032156,-0.02339416742324829,0.12942355871200562,-0.07926344871520996,0.6857095366912778,-0.0848910337899855,-0.6957789110826111,0.19618294800977842,-0.4000029927119928,-1.551936024912113,0.16459500497492457
1781552376064031744,3.0005619525909424,-0.06255940347909927,-0.31289711594581604,-0.19738957285881042,-0.9216268658638,0.38784927129745483,-0.01329667866230011,-0.025913357734680176,0.15150314569473267,-0.12804549932479858,0.6846528519663201,-0.0849932100415599,-0.697228667438659,0.19467615619779244,-0.3982970756673054,-1.5563699284200647,0.16132388638739048
1781552376074065664,3.0105957984924316,0.3653988540172577,-0.26437854766845703,-0.21024277806282043,-0.9224665760993958,0.3859129250049591,-0.01124611496925354,-0.05435526371002197,0.142941415309906,-0.14591944217681885,0.6839167051070126,-0.08345385144811285,-0.6981492655569181,0.19463026128845068,-0.39619718906102963,-1.5586055783889012,0.16298576140638316
1781552376084100608,3.0206308364868164,0.7539266347885132,-0.23262996971607208,-0.1665821224451065,-0.9232330322265625,0.38407838344573975,-0.011149370111525059,-0.08264148235321045,0.09989982843399048,-0.1327715516090393,0.6834732516958131,-0.08060114646691273,-0.6985189834108317,0.19605832519722569,-0.3942094344478041,-1.558720471970617,0.1691124062542371
1781552376094135808,3.030665874481201,0.8253715634346008,-0.20341601967811584,-0.09724725037813187,-0.9237627387046814,0.38276800513267517,-0.012288757599890232,-0.0764814019203186,0.02476373314857483,-0.10914069414138794,0.6831646319289388,-0.0771133940927548,-0.6985049359139176,0.19857104878474016,-0.3927906213759519,-1.5574941743200508,0.17800873529208283
1781552376104170752,3.040700912475586,0.7019516229629517,-0.17097924649715424,-0.02373708412051201,-0.9240342378616333,0.3820728659629822,-0.013450185768306255,-0.06098151206970215,-0.045509785413742065,-0.05646556615829468,0.6828503453492978,-0.07408066795304717,-0.6984174696235357,0.2010980904070529,-0.39203829146304064,-1.5562414165300775,0.1862886506900362
1781552376114205952,3.0507359504699707,0.547048032283783,-0.1406899243593216,0.11840221285820007,-0.923875629901886,0.38241875171661377,-0.014472686685621738,-0.05196958780288696,-0.11859437823295593,-0.005256948992609978,0.6825034050707367,-0.07192286243522496,-0.698276992650197,0.2035320988258502,-0.39241262023149065,-1.555132418507731,0.19316947719806973
1781552376124240640,3.0607707500457764,0.3476177155971527,-0.13347062468528748,0.24857433140277863,-0.9231706261634827,0.3840998411178589,-0.014945323579013348,-0.038041532039642334,-0.1765955686569214,-0.02547520399093628,0.6819985799723851,-0.07091400215768809,-0.6982109583978209,0.20579262309894586,-0.3942326636274187,-1.5546086165623187,0.19806087651989088
1781552376134275584,3.070805788040161,0.17299586534500122,-0.131246879696846,0.3140404224395752,-0.9220931529998779,0.3866868019104004,-0.014743544161319733,-0.03037559986114502,-0.19822555780410767,-0.04603219032287598,0.6813417687802573,-0.07088906799260045,-0.6982857351548752,0.20771398385120954,-0.3970361939189144,-1.5548084760880716,0.2009202986450905
1781552376144309760,3.0808398723602295,-0.07981349527835846,-0.10746938735246658,0.4143185317516327,-0.920698881149292,0.39002951979637146,-0.01380576565861702,-0.027940034866333008,-0.20722922682762146,-0.0495334267616272,0.6805586137737027,-0.07188319881515076,-0.6985198086354666,0.2091480098033256,-0.40066364697078993,-1.5558025748552051,0.20145857705722056
1781552376154344704,3.0908749103546143,-0.16974391043186188,-0.08923977613449097,0.4566023647785187,-0.9189791083335876,0.39411112666130066,-0.012410709634423256,-0.018963515758514404,-0.23233738541603088,-0.06043475866317749,0.6797103684995116,-0.07376322109157173,-0.6988230337230026,0.2102362593516416,-0.4051005057943925,-1.557292260301699,0.20012774352795648
1781552376164379904,3.100909948348999,-0.4008852541446686,-0.0926254540681839,0.45447662472724915,-0.9171640276908875,0.3983713388442993,-0.010511129163205624,-0.01884061098098755,-0.2715097665786743,-0.07495331764221191,0.6788159023637047,-0.07622064159166625,-0.6992387641970645,0.2108662910717049,-0.40974051640691783,-1.5593363609955695,0.19717704153266005
1781552376174414848,3.110944986343384,-0.5955407619476318,-0.09038174152374268,0.39515337347984314,-0.915449857711792,0.40235957503318787,-0.007627424318343401,-0.004700839519500732,-0.20538395643234253,-0.023668408393859863,0.6778451870840765,-0.07936633558244183,-0.6999194757748426,0.21056951648419525,-0.4140928189049732,-1.5624646327602756,0.19163552502868625
1781552376184449792,3.1209797859191895,-0.634086012840271,-0.08542373031377792,0.31543058156967163,-0.9140154123306274,0.4056566655635834,-0.004298429470509291,0.0023485422134399414,-0.06738457083702087,0.021571338176727295,0.6769082675497988,-0.08263288999370183,-0.7007300412987895,0.20962915716192831,-0.4176971520526205,-1.5660935638189668,0.18484517126902342
1781552376194484736,3.131014823913574,-0.5897291898727417,-0.02661927603185177,0.24156329035758972,-0.9128903746604919,0.4082026481628418,-0.0012557778973132372,-0.009594857692718506,0.057449787855148315,0.04216456413269043,0.67615208183516,-0.08561900756507852,-0.7014566961581917,0.20843745966502217,-0.4204843326954084,-1.569420721209608,0.17813006379984145
1781552376204519680,3.141049861907959,-0.5499133467674255,0.02182229422032833,0.2020086944103241,-0.9119789004325867,0.41023558378219604,0.0010466629173606634,-0.02614659070968628,0.1511046588420868,0.04648447036743164,0.6756802164350272,-0.08831628990759847,-0.7019427073291753,0.20720241855354596,-0.4227123786759932,-1.5719440094970007,0.17192320281594817
1781552376214553856,3.1510839462280273,-0.5892127752304077,0.08830145001411438,0.10994428396224976,-0.9113242030143738,0.41167891025543213,0.0028971300926059484,-0.03005141019821167,0.1915009319782257,0.007326245307922363,0.6754348098204312,-0.09080700150373681,-0.7022838838241181,0.20576472629099887,-0.4242955758911468,-1.5739753493855324,0.16581080733901596
1781552376224588800,3.161118984222412,-0.9323091506958008,0.16732622683048248,0.015713650733232498,-0.9110859632492065,0.41218963265419006,0.004697526339441538,-0.022553563117980957,0.16810211539268494,0.009126901626586914,0.6755247397012233,-0.09369048731956646,-0.7025459812234199,0.20326722313675968,-0.42485604136219873,-1.5759522449129013,0.1575832576721019
1781552376234623744,3.1711537837982178,-1.3788347244262695,0.09728669375181198,-0.03397214785218239,-0.9111209511756897,0.4120577573776245,0.008188183419406414,-0.012569844722747803,0.1212979257106781,-0.014825701713562012,0.6754731118868655,-0.09772723508731279,-0.7032378538193619,0.19910299960369124,-0.4247113260984065,-1.5797830179693217,0.1448569995351205
1781552376244658688,3.1811888217926025,-1.6000441312789917,-0.014571400359272957,-0.12730927765369415,-0.9114484786987305,0.4111749231815338,0.014031506143510342,0.004313468933105469,0.09015259146690369,-0.004510045051574707,0.6749397914604941,-0.10259662488343572,-0.7046202422761713,0.19349560971425364,-0.4237426219488048,-1.586189844281789,0.1282782709778342
1781552376254693632,3.1912238597869873,-1.537934422492981,-0.0230192132294178,-0.20371563732624054,-0.9121314883232117,0.40936949849128723,0.020799685269594193,0.004767656326293945,0.14797300100326538,0.03851127624511719,0.674171300501191,-0.10734690710505122,-0.7063118889684019,0.18733161379224164,-0.4217628965378585,-1.5935957613898077,0.11086911093059161
1781552376264728832,3.201258897781372,-1.2396739721298218,0.07401812076568604,-0.23987284302711487,-0.9130442142486572,0.40700945258140564,0.026340322569012642,-0.02433377504348755,0.28410688042640686,0.07009518146514893,0.6736831387957452,-0.11131252842652718,-0.7076578850005836,0.18160662304140365,-0.4191776806805005,-1.59963722969462,0.09555368249084602
1781552376274763776,3.211293935775757,-0.8488278388977051,0.22186656296253204,-0.2991678714752197,-0.9141733050346375,0.40426740050315857,0.029239490628242493,-0.07162070274353027,0.35629165172576904,0.10326790809631348,0.6738558874404552,-0.11402220465068824,-0.708250437254519,0.17691363458949735,-0.41617770316481995,-1.6027700518056636,0.08419368393669276
1781552376284797696,3.221327781677246,-0.6495041251182556,0.35403206944465637,-0.3914509415626526,-0.915643036365509,0.40090587735176086,0.029537413269281387,-0.10901516675949097,0.31964465975761414,0.10832583904266357,0.6747701687710493,-0.11555927341547735,-0.7081064616652868,0.1729640839034751,-0.41250544660730326,-1.6030438001737475,0.0762270630878105
1781552376294832640,3.231362819671631,-0.47266411781311035,0.40289175510406494,-0.45142823457717896,-0.9174536466598511,0.3968389332294464,0.028240660205483437,-0.11683273315429688,0.2250939905643463,0.10596036911010742,0.6761758496402307,-0.11628291938109606,-0.7075299376301138,0.169309811837853,-0.4080704154496323,-1.6015681768012224,0.0702396157807506
1781552376304867840,3.2413978576660156,-0.30899688601493835,0.3461861312389374,-0.49710360169410706,-0.9194252490997314,0.39238590002059937,0.026274261996150017,-0.085060715675354,0.15148305892944336,0.05479574203491211,0.6776957106277618,-0.11625026769273354,-0.7068401562371056,0.1661063640417654,-0.4032241067649559,-1.5993653848170608,0.06614779466489862
1781552376314902784,3.2514328956604004,-0.18134251236915588,0.2817113995552063,-0.5133086442947388,-0.9215027689933777,0.3876093626022339,0.02432367391884327,-0.025152504444122314,0.1450597047805786,-0.029313325881958008,0.6790884624476288,-0.11552099550616832,-0.7062695918586515,0.16333097468565239,-0.39803678482118837,-1.5971858594867783,0.0636716942857096
1781552376324937728,3.261467933654785,-0.1018010824918747,0.21817156672477722,-0.4594443738460541,-0.9234435558319092,0.38307303190231323,0.022518057376146317,0.02178645133972168,0.13313180208206177,-0.08483493328094482,0.680300390083209,-0.11447552094329196,-0.7058005269687393,0.16103527101944803,-0.3931208283272645,-1.5951763722930383,0.062300578998008005
1781552376334972928,3.27150297164917,-0.02744748815894127,0.11184286326169968,-0.4274328947067261,-0.9251667857170105,0.37896886467933655,0.021190496161580086,0.0599324107170105,0.07816922664642334,-0.14379489421844482,0.6812165063480549,-0.11326117645916206,-0.7055261539356498,0.15921315214480664,-0.3886817801233823,-1.593696837087799,0.061741432435894444
1781552376345007616,3.2815377712249756,0.06748542189598083,0.01836244761943817,-0.3750149607658386,-0.9267004132270813,0.37523892521858215,0.02054126188158989,0.07547372579574585,0.02376309037208557,-0.17631828784942627,0.6817699261781416,-0.11183707164781495,-0.7055232808949194,0.15785773125862557,-0.3846545082282099,-1.592958718617615,0.062005685802445164
1781552376355041792,3.291571855545044,0.2949505150318146,-0.06745485216379166,-0.29402583837509155,-0.9279457926750183,0.37217360734939575,0.020083077251911163,0.08593535423278809,0.0021854937076568604,-0.19545233249664307,0.6820549123422461,-0.11003909650100369,-0.7056436326140887,0.15735152172637323,-0.38134976633864587,-1.592435461154528,0.06398497687513395
1781552376365076736,3.3016068935394287,0.5996065735816956,-0.16720780730247498,-0.22103390097618103,-0.9288706183433533,0.3698906898498535,0.019503813236951828,0.101981520652771,-0.004168033599853516,-0.19766545295715332,0.6820945448117067,-0.10754475599471994,-0.7058229467818551,0.15809864470355406,-0.37889135831187426,-1.5917905835347799,0.06879068759627333
1781552376375111936,3.3116419315338135,1.0937920808792114,-0.2358638346195221,-0.15363489091396332,-0.9295234084129333,0.36830830574035645,0.018306633457541466,0.10785293579101562,0.002495497465133667,-0.18012607097625732,0.6819644622131968,-0.10385448380748959,-0.7059515303220124,0.16053380150958146,-0.3771887515105219,-1.5904884265822559,0.077871452913331
1781552376385146880,3.3216769695281982,1.56303071975708,-0.2843434810638428,-0.10128913074731827,-0.9299322962760925,0.3673928678035736,0.01576102338731289,0.1066596508026123,0.004418045282363892,-0.14181387424468994,0.6818318137636996,-0.09861590455846597,-0.7058012576555438,0.1649996752650658,-0.3762043056308649,-1.5877432751705418,0.09238029038879648
1781552376395181568,3.331711769104004,1.818003535270691,-0.31549981236457825,-0.06760760396718979,-0.9302011132240295,0.36684420704841614,0.01229874324053526,0.11126190423965454,0.026329010725021362,-0.07337963581085205,0.6816589401665082,-0.09226707579520595,-0.7054333124742767,0.17085587865474866,-0.3756144508087992,-1.5840171525119338,0.11068083419993252
1781552376405216768,3.3417468070983887,1.9216554164886475,-0.345742404460907,0.02301817014813423,-0.930260181427002,0.3668037950992584,0.0084218205884099,0.09526878595352173,0.0032065510749816895,-0.017821311950683594,0.6813552601432484,-0.08542290694513482,-0.7049211568294175,0.17760646318181655,-0.3755710126209475,-1.579849268199444,0.13107866448759406
1781552376415251712,3.3517818450927734,1.7042181491851807,-0.3605908453464508,0.11232035607099533,-0.9299941658973694,0.36754128336906433,0.004902360495179892,0.07774513959884644,-0.11007976531982422,-0.0024914746172726154,0.6808337135740077,-0.0791041914380691,-0.7044101837922301,0.18442924415780954,-0.37636386668413596,-1.576067666252631,0.15077123572347617
1781552376425285888,3.361815929412842,1.4079878330230713,-0.41268229484558105,0.21931418776512146,-0.9293744564056396,0.36912819743156433,0.002727206563577056,0.08284741640090942,-0.1902799904346466,-0.0049550533294677734,0.6799220955101667,-0.07400752768489478,-0.7041920825911026,0.19063655337729515,-0.37807080993594994,-1.573730772537777,0.16756655363484912
1781552376435320832,3.3718509674072266,1.1168670654296875,-0.5007969737052917,0.3879029154777527,-0.928242027759552,0.3719697594642639,0.002274805447086692,0.09805715084075928,-0.2372499406337738,-0.04663205146789551,0.6784788374765456,-0.07033069597746973,-0.7044082594431822,0.1962881550517263,-0.38113016113885106,-1.5732469818097345,0.18119191382272687
1781552376445355776,3.3818857669830322,0.8329391479492188,-0.5706218481063843,0.5448302030563354,-0.9264684319496155,0.37635529041290283,0.0035778596065938473,0.12533628940582275,-0.2758609354496002,-0.0552288293838501,0.6764637675510664,-0.06813837389391886,-0.7050858754893828,0.20151376398323223,-0.3858591961157529,-1.5746581332243457,0.19172988141080097
1781552376455390720,3.391920804977417,0.5929457545280457,-0.6537880897521973,0.6723053455352783,-0.924115002155304,0.38205787539482117,0.00656832754611969,0.14060676097869873,-0.29599833488464355,-0.046454787254333496,0.6739124219816878,-0.06727469053501318,-0.7062282065476007,0.20629548012249252,-0.39202207617217416,-1.5779039020026417,0.19937031706596794
1781552376465425664,3.4019558429718018,0.4749205410480499,-0.6927211284637451,0.7419203519821167,-0.921308159828186,0.38868337869644165,0.01078774593770504,0.12785124778747559,-0.2916070222854614,-0.0575101375579834,0.6709530385228348,-0.0673214963494282,-0.7077158249783634,0.2107796888023667,-0.3992021693607246,-1.58250495275129,0.20499624529380506
1781552376475460864,3.4119908809661865,0.5967341065406799,-0.6784124970436096,0.7654480934143066,-0.9182469844818115,0.3957206606864929,0.015088972635567188,0.09559988975524902,-0.2570182681083679,-0.07099711894989014,0.6678775563514642,-0.06752575638940178,-0.7092141838220771,0.2153952963818426,-0.4068524482580402,-1.5872272157946283,0.21054713859718005
1781552376485495808,3.4220259189605713,0.9403705596923828,-0.7106438279151917,0.7867597341537476,-0.9150162935256958,0.4029998481273651,0.018346088007092476,0.07006078958511353,-0.1708373725414276,-0.09612011909484863,0.6648408301189472,-0.06699770401016744,-0.7104113959319615,0.2209383393232211,-0.4147922938557711,-1.5908436529414554,0.21872605903931439
1781552376495530752,3.432060956954956,1.3729989528656006,-0.7929402589797974,0.7361730337142944,-0.9117418527603149,0.4102519452571869,0.020497653633356094,0.06469595432281494,-0.05026659369468689,-0.12543237209320068,0.6616814251184845,-0.06502196529477824,-0.7113515103148136,0.2278791000597912,-0.42273030049339905,-1.5932744017303784,0.2312960010319108
1781552376505564672,3.4420948028564453,1.604512333869934,-0.7867628335952759,0.7149835824966431,-0.9085866808891296,0.41713881492614746,0.0215776227414608,0.05134785175323486,0.055151283740997314,-0.11338973045349121,0.6584677774762688,-0.06170162491338485,-0.7120264889845617,0.23586324501440506,-0.43029487997992205,-1.594540420437122,0.2476148265673423
1781552376515599616,3.45212984085083,1.6959538459777832,-0.639600932598114,0.8055358529090881,-0.9052488207817078,0.42436012625694275,0.021051375195384026,0.020849406719207764,0.10168662667274475,-0.07522010803222656,0.6555065453657584,-0.058049738066561364,-0.7121488014130393,0.2445108040982779,-0.4382551026447127,-1.5940469301420164,0.2658235629751728
1781552376525634816,3.462164878845215,1.526453971862793,-0.5695352554321289,0.9253218770027161,-0.9013925790786743,0.4325650632381439,0.019466079771518707,0.008982300758361816,0.04117456078529358,-0.05979502201080322,0.6527498628607173,-0.05506378175817079,-0.7118293472654809,0.2533467533102282,-0.4473358421117736,-1.5923885331597494,0.2836824153112922
1781552376535669760,3.4721999168395996,1.242140769958496,-0.5852236747741699,0.9791901707649231,-0.8970938324928284,0.44144943356513977,0.018574314191937447,0.022429585456848145,-0.05119067430496216,-0.026279928162693977,0.6498457002317757,-0.05321909539870005,-0.7116564377660917,0.2615595272643737,-0.4572133964945344,-1.5914983547039498,0.29887219394373526
1781552376545704960,3.4822349548339844,1.0214155912399292,-0.6164004802703857,1.0168105363845825,-0.8925158977508545,0.4506189823150635,0.018920965492725372,0.03202694654464722,-0.08764290809631348,0.02938830852508545,0.6466729025200461,-0.052318344977177064,-0.7118449787793092,0.2689864154459754,-0.46745857395946727,-1.5919927368401725,0.3112664905928739
1781552376555739648,3.49226975440979,0.9027808308601379,-0.5918448567390442,1.0578911304473877,-0.8876531720161438,0.46007877588272095,0.019983064383268356,0.014743626117706299,-0.06299933791160583,0.08496677875518799,0.6433324367030966,-0.052103606157761224,-0.7122336316759148,0.2759199296773516,-0.47808393270675414,-1.593304768261157,0.3217801111778758
1781552376565774592,3.502304792404175,0.9420204162597656,-0.48298361897468567,1.0638904571533203,-0.882573664188385,0.4697244465351105,0.020557327196002007,-0.036417365074157715,-0.012250721454620361,0.12926864624023438,0.6401412736897143,-0.0522270346628367,-0.7124261368425404,0.28273744335989326,-0.4889786248676286,-1.5940845930722027,0.3317948772712466
1781552376575808768,3.512338876724243,1.1889030933380127,-0.2957831025123596,1.0362290143966675,-0.8774871826171875,0.4792242646217346,0.018978724256157875,-0.09518420696258545,0.04235157370567322,0.15512406826019287,0.6375097071506297,-0.05203869924297659,-0.7118857601646296,0.289986073342542,-0.4997706635706266,-1.5924214463740114,0.3435644642171344
1781552376585843712,3.522373914718628,1.483829379081726,-0.1078701838850975,0.9637582302093506,-0.8725862503051758,0.48825302720069885,0.014228763058781624,-0.14297783374786377,0.09885945916175842,0.15184783935546875,0.6356687660954533,-0.05105275146756917,-0.7102872644921311,0.29801164231561666,-0.5100868323244486,-1.587101308063302,0.3586764038443721
1781552376595878912,3.5324089527130127,1.6697485446929932,0.04444770887494087,0.9179611802101135,-0.8679428100585938,0.49661996960639954,0.0066339606419205666,-0.17713165283203125,0.15236684679985046,0.13634097576141357,0.634532313961236,-0.04926868031172594,-0.7077355278913138,0.30667870044253237,-0.5197002230673265,-1.5784394932627728,0.3769122222066132
1781552376605913600,3.5424437522888184,1.7044119834899902,0.19743725657463074,0.8793538808822632,-0.863440752029419,0.5044419169425964,-0.00291931233368814,-0.19715183973312378,0.15516501665115356,0.10982239246368408,0.633977584795221,-0.04726240841857147,-0.7044903182872906,0.315487149214037,-0.5287354787145726,-1.567415317538391,0.396469519964049
1781552376615948800,3.552478790283203,1.6585265398025513,0.3668489456176758,0.8878637552261353,-0.8589197397232056,0.5119191408157349,-0.01399157289415598,-0.22633111476898193,0.06736552715301514,0.0856163501739502,0.6339546545920197,-0.04544690614077373,-0.7006702450842301,0.3241871499406406,-0.5374173696119234,-1.554508034611531,0.4162719232344343
1781552376625983744,3.562513828277588,1.490126132965088,0.514256477355957,0.9023206830024719,-0.8541918992996216,0.5193068385124207,-0.026014788076281548,-0.2401685118675232,-0.07243788242340088,0.04223489388823509,0.6343988556797027,-0.044290341259365,-0.6964416498030569,0.33248397129163043,-0.5460396632971979,-1.5403503005292616,0.43504052330565846
1781552376636018688,3.5725488662719727,1.2949843406677246,0.603945255279541,0.9234856367111206,-0.8492141366004944,0.5266715288162231,-0.038110893219709396,-0.23254245519638062,-0.16332924365997314,0.02511042356491089,0.6351238701061981,-0.04400064649433597,-0.6921043968517891,0.3401075049933259,-0.5546802539865736,-1.5259485818301985,0.45178279964232454
1781552376646053888,3.5825839042663574,1.1962822675704956,0.6912795901298523,0.9195795655250549,-0.8440092206001282,0.533971905708313,-0.050222333520650864,-0.22273260354995728,-0.20447367429733276,0.009283013641834259,0.6360497092816553,-0.044359989792271556,-0.6876925368877087,0.34720572162035973,-0.5632912972928823,-1.5113619241167286,0.46701982519071517
1781552376656087552,3.5926177501678467,1.171371579170227,0.8224791288375854,0.8743457794189453,-0.8387282490730286,0.5408968329429626,-0.06297324597835541,-0.20723122358322144,-0.18953269720077515,0.0380098819732666,0.6373334492058262,-0.045014689664995375,-0.6829985756310307,0.3539671498414303,-0.5715030443181174,-1.4958551118311254,0.4817472269783794
1781552376666122752,3.6026527881622314,1.2747440338134766,0.9288489818572998,0.8069753050804138,-0.8335151672363281,0.5471110939979553,-0.07695399969816208,-0.1912497878074646,-0.10337024927139282,0.10200893878936768,0.6390940755837613,-0.045578476716916,-0.6778241668479509,0.36060474504312423,-0.5789090723457401,-1.4787326581486657,0.49704070433359776
