time,seconds_elapsed,rotationRateX,rotationRateY,rotationRateZ,gravityX,gravityY,gravityZ,accelerationX,accelerationY,accelerationZ,quaternionW,quaternionX,quaternionY,quaternionZ,pitch,roll,yaw
1780770681475117056,0.13825488090515137,0.5704600811004639,0.10976584255695343,0.3654026687145233,0.17819763720035553,-0.40147560834884644,-0.8983668088912964,-0.00781799852848053,-0.07783347368240356,0.05362498760223389,-0.5784196117832714,-0.048736195719078695,-0.2200940103991012,-0.7839732974131998,0.4131274210900225,0.19581555910966536,1.8291317890699945
1780770681485150976,0.14828896522521973,0.4971911907196045,0.13777591288089752,0.419365793466568,0.17773063480854034,-0.4070141613483429,-0.8959639072418213,-0.00048454105854034424,-0.1337420642375946,0.07392716407775879,-0.5766026740103138,-0.050237081293316145,-0.22247310332040493,-0.7845453569386307,0.41918281162413823,0.19582590891850898,1.8322096447900267
1780770681495185152,0.15832304954528809,0.41733843088150024,0.21218223869800568,0.47343939542770386,0.1774715632200241,-0.41192200779914856,-0.8937696218490601,-0.002239629626274109,-0.18408629298210144,0.10513436794281006,-0.5745391605647542,-0.05137178702727726,-0.22466894391763476,-0.7853595703489418,0.42456234029356266,0.19601558856546963,1.836024518421445
1780770681505220096,0.16835808753967285,0.3076489567756653,0.28419479727745056,0.5402767658233643,0.17761854827404022,-0.4160710573196411,-0.8918164372444153,-0.011328265070915222,-0.2050226926803589,0.12648135423660278,-0.5721634487009727,-0.0519969865482366,-0.2266894486715086,-0.7864713614571341,0.4291203493551967,0.19659247708361285,1.8407213816396746
1780770681515254016,0.1783919334411621,0.244266539812088,0.3254953622817993,0.6112399101257324,0.17794425785541534,-0.4195280969142914,-0.890130341053009,-0.015682294964790344,-0.20531931519508362,0.13826876878738403,-0.5694633216746465,-0.052221111796432296,-0.22849025084737265,-0.7878937734006399,0.432925404585132,0.19730718800271083,1.8463831937910575
1780770681525288960,0.18842697143554688,0.21545405685901642,0.3819791376590729,0.7045314908027649,0.1783410608768463,-0.4227783977985382,-0.888511598110199,-0.007549449801445007,-0.1952788233757019,0.13986968994140625,-0.5663989434782005,-0.05223448449297344,-0.23025151152630022,-0.7895872019554425,0.4365090211596935,0.1980867074751828,1.8529902609181712
1780770681535323136,0.19846105575561523,0.18454435467720032,0.423810750246048,0.8206543922424316,0.17870958149433136,-0.42593589425086975,-0.886928141117096,0.000703275203704834,-0.17623695731163025,0.14028507471084595,-0.562856610809596,-0.05208009338333096,-0.23199913329333546,-0.791616445466827,0.4399960686893816,0.1988304689281388,1.8608212386016296
1780770681545358080,0.20849609375,0.16567212343215942,0.44043615460395813,0.9608684778213501,0.17876417934894562,-0.42910635471343994,-0.8853875398635864,0.009559780359268188,-0.16333138942718506,0.14957821369171143,-0.5587711003487089,-0.05188841992624252,-0.2336959905839681,-0.7940205708603519,0.443503173138465,0.19922663118259407,1.8700922001193505
1780770681555392000,0.21852993965148926,0.12320296466350555,0.4497116804122925,1.1234855651855469,0.1782357394695282,-0.4322960674762726,-0.8839412331581116,0.015779763460159302,-0.17988654971122742,0.16415369510650635,-0.5540454418072266,-0.0517429336183195,-0.2352701403360906,-0.7968716236596062,0.4470375174482868,0.1989696265496161,1.881125118225413
1780770681565426176,0.22856402397155762,-0.0011424283729866147,0.4703473150730133,1.2526636123657227,0.17712777853012085,-0.4350646138191223,-0.8828049302101135,0.023754194378852844,-0.20838326215744019,0.16712194681167603,-0.5487093545869453,-0.051511628520207346,-0.23652504091837145,-0.8002002217293165,0.45011002731252414,0.1980128221320271,1.8939713627855712
1780770681575461120,0.23859906196594238,-0.19434809684753418,0.48128625750541687,1.3716081380844116,0.17562000453472137,-0.4365270137786865,-0.882384181022644,0.026619985699653625,-0.23241829872131348,0.15891921520233154,-0.5428883282515593,-0.050883140395001726,-0.23710507934152042,-0.8040301781754614,0.45173483333267633,0.19646168774639391,1.9085238873911377
1780770681585495040,0.24863290786743164,-0.38103172183036804,0.4839731454849243,1.4493132829666138,0.17371968924999237,-0.43646377325057983,-0.8827915191650391,0.025499075651168823,-0.25558334589004517,0.15708351135253906,-0.5366725415897289,-0.049828842024156786,-0.23689940339183949,-0.8083182709027076,0.4516645553173869,0.1943018247666995,1.9245970004903037
1780770681595529984,0.2586679458618164,-0.4573456645011902,0.48116645216941833,1.5339325666427612,0.17147520184516907,-0.43524307012557983,-0.8838324546813965,0.030245989561080933,-0.26374679803848267,0.13902044296264648,-0.5301488907798284,-0.04848941315743548,-0.23607744652401913,-0.8129320509603118,0.45030823502198997,0.1916324916958315,1.9418119535640381
1780770681605564160,0.26870203018188477,-0.4316786527633667,0.5226088166236877,1.6251327991485596,0.16901643574237823,-0.43398916721343994,-0.8849219679832458,0.024495527148246765,-0.22114691138267517,0.11857980489730835,-0.5231992703456853,-0.0471365730601524,-0.23519603352987364,-0.8177551582770951,0.4489159849320768,0.18872294154010882,1.9600428910473235
1780770681615599104,0.27873706817626953,-0.3584270775318146,0.6003882884979248,1.6820240020751953,0.1668553501367569,-0.4332500994205475,-0.8856939077377319,0.011565670371055603,-0.15924867987632751,0.09476983547210693,-0.5158186819617118,-0.04571918677960679,-0.23465466532257134,-0.8226652662882185,0.4480957906898958,0.18620701220962568,1.9789588589260458
1780770681625633024,0.2887709140777588,-0.2321266382932663,0.6331936120986938,1.7647998332977295,0.164815753698349,-0.43349480628967285,-0.8859559893608093,-0.006826251745223999,-0.10149359703063965,0.07447832822799683,-0.5080156169643585,-0.04444587979382532,-0.23462005581446144,-0.8275857093894667,0.4483673196544174,0.18392898398549268,1.9984553691425682
1780770681635667200,0.29880499839782715,-0.11739180237054825,0.68068927526474,1.7755757570266724,0.16294094920158386,-0.4349308907985687,-0.88559889793396,-0.0015945136547088623,-0.06763258576393127,0.07381606101989746,-0.49988550889670685,-0.043371493393452136,-0.23520092841049808,-0.8324144960658074,0.44996152233496367,0.1819545931153292,2.0182316705854064
1780770681645702144,0.3088400363922119,-0.008790494874119759,0.7034374475479126,1.761838436126709,0.16137030720710754,-0.43723157048225403,-0.8847531676292419,0.017371147871017456,-0.04671618342399597,0.06767553091049194,-0.4916744091139394,-0.0423941349945053,-0.23627558879760144,-0.837038091030604,0.4525180884491423,0.18040716011543373,2.037752284936254
1780770681655736064,0.31887388229370117,0.1905638873577118,0.6821401715278625,1.7484371662139893,0.1598030924797058,-0.4408164620399475,-0.8832575082778931,0.03909522294998169,-0.01713031530380249,0.07124578952789307,-0.4834278444017218,-0.04176127569163817,-0.23796478291744283,-0.8413836300662132,0.4565080907888381,0.17898846868953647,2.0568965185959027
1780770681665771008,0.32890892028808594,0.447912335395813,0.6797510385513306,1.704831838607788,0.1581358015537262,-0.4464256763458252,-0.8807367086410522,0.08461625874042511,0.033629655838012695,0.034758925437927246,-0.4752387034025258,-0.041732594024706665,-0.2406034667180583,-0.8452907645886906,0.4627668691039387,0.17765650682308295,2.0752796186150313
1780770681675805184,0.3389430046081543,0.6464768648147583,0.7246868014335632,1.684518575668335,0.1566607654094696,-0.4540126919746399,-0.8771145343780518,0.1088574230670929,0.07307702302932739,-0.009588956832885742,-0.4670805692793049,-0.04213550905449491,-0.24426899460382806,-0.8487596479756689,0.4712637993779459,0.17674550504610936,2.09289129291115
1780770681685839104,0.34897708892822266,0.6964675784111023,0.8121857047080994,1.6744310855865479,0.15563999116420746,-0.4626941680908203,-0.8727486729621887,0.08933988213539124,0.05400276184082031,-0.047035813331604004,-0.4588138648953374,-0.04255182960538948,-0.24862621657584758,-0.8519765963469403,0.481031848942335,0.17647788835842607,2.1102162108731815
1780770681695874048,0.3590118885040283,0.5767877697944641,0.8574190139770508,1.6316306591033936,0.1553502231836319,-0.4708901345729828,-0.8684058785438538,0.0594782680273056,-0.024394899606704712,-0.06840747594833374,-0.4505475414512565,-0.04245178358015151,-0.25297213445748606,-0.8551081158367955,0.4902995206350709,0.1770187791853363,2.1273428269446546
1780770681705907968,0.3690459728240967,0.43773719668388367,0.8665239810943604,1.605991005897522,0.1551373302936554,-0.4778461754322052,-0.8646360039710999,0.033720701932907104,-0.0926646888256073,-0.061892926692962646,-0.4423679733277597,-0.041956726480863196,-0.2567520684124782,-0.8582706831320415,0.4982012024091104,0.17753593939387297,2.144507806552823
1780770681715943168,0.37908101081848145,0.3102615177631378,0.8716872930526733,1.5118376016616821,0.1551276296377182,-0.4835277199745178,-0.8614733815193176,0.04728022217750549,-0.12239879369735718,-0.04134339094161987,-0.4344214076898366,-0.04105748632688402,-0.25995690865324417,-0.8614028125367952,0.504680419032351,0.17816311633650048,2.1613491366070368
1780770681725977088,0.3891150951385498,0.28242748975753784,0.8963660597801208,1.4193787574768066,0.15567541122436523,-0.4882972240447998,-0.8586797714233398,0.07534265518188477,-0.1046135425567627,-0.034783363342285156,-0.4268582566977496,-0.039744804029640174,-0.26283161199038985,-0.8643679477236266,0.5101374919675852,0.1793482148451316,2.1772980894408596
1780770681736012032,0.39914989471435547,0.4737042486667633,0.9080368280410767,1.3652430772781372,0.15650884807109833,-0.493633508682251,-0.855471134185791,0.07203729450702667,-0.036639899015426636,-0.03622192144393921,-0.4195488124250665,-0.0384850607019502,-0.2660513550338077,-0.8670145528990636,0.5162628627971984,0.18094933045428283,2.1923257515684913
1780770681746045952,0.40918397903442383,0.8446181416511536,0.9755010604858398,1.3654953241348267,0.15775054693222046,-0.5014238357543945,-0.8506990671157837,0.05202728509902954,0.03162097930908203,-0.06101357936859131,-0.41222505177106494,-0.03760239470504906,-0.27062246168854365,-0.8691490925866052,0.5252436572301737,0.18335365315409208,2.2064422684373564
1780770681756080128,0.4192180633544922,1.143160343170166,0.9916718006134033,1.375099778175354,0.15910546481609344,-0.5121350288391113,-0.844039797782898,0.039274051785469055,0.07899904251098633,-0.06771862506866455,-0.4046799384398674,-0.037258011697312556,-0.2767524887005858,-0.8707778295124005,0.5376686796762923,0.18631833926991356,2.2200459676216644
1780770681766115072,0.42925310134887695,1.2870690822601318,1.0231252908706665,1.3731005191802979,0.1604924499988556,-0.5247509479522705,-0.8359895944595337,0.04460093379020691,0.08128476142883301,-0.09720742702484131,-0.39703751850885327,-0.03725456732885723,-0.28393187134459436,-0.871983917857145,0.5524225460735739,0.18967129931392515,2.233130825588382
1780770681776148992,0.4392869472503662,1.1856266260147095,1.0480356216430664,1.371163010597229,0.1618124395608902,-0.5374094247817993,-0.8276520371437073,0.0397561639547348,0.005625367164611816,-0.155364990234375,-0.3892920690812378,-0.037169649364033316,-0.29119136766820847,-0.8730851292651722,0.5673621971987733,0.19307245265225909,2.246296390684997
1780770681786184192,0.449321985244751,0.9585079550743103,1.037833333015442,1.3670088052749634,0.16299650073051453,-0.5485939979553223,-0.8200467824935913,0.01917816698551178,-0.11209625005722046,-0.17897659540176392,-0.3815462083952999,-0.036703396960853465,-0.2977070105466199,-0.8743259293459361,0.5806816703745741,0.19620765869879075,2.259841945595243
1780770681796218112,0.45935606956481934,0.8140543699264526,0.9465707540512085,1.3434478044509888,0.16362138092517853,-0.5579339861869812,-0.8135955333709717,0.003401339054107666,-0.1822546124458313,-0.18115544319152832,-0.37392320802261175,-0.036021937760854585,-0.3031578228143559,-0.8757733949198343,0.5918941960505752,0.19846168133991043,2.273835534726816
1780770681806253312,0.4693911075592041,0.9820849299430847,0.9288454055786133,1.3215726613998413,0.16366808116436005,-0.567400336265564,-0.8070127964019775,0.014218881726264954,-0.12043535709381104,-0.17377638816833496,-0.36648043887535847,-0.035637673022387045,-0.3085831588213345,-0.8770395856855921,0.6033453092406248,0.20009342357809623,2.2875249852618307
1780770681816286976,0.47942495346069336,1.2466154098510742,0.9035634994506836,1.278050422668457,0.1635517179965973,-0.5784948468208313,-0.7991211414337158,0.06343801319599152,0.0664098858833313,-0.12424921989440918,-0.3591038611641179,-0.035665918685285035,-0.3149085296390531,-0.8778410970714079,0.6168822075074673,0.20187660026402734,2.3004637582600083
1780770681826321152,0.4894590377807617,1.5411783456802368,0.9096130132675171,1.2508491277694702,0.16341008245944977,-0.5917772054672241,-0.7893648743629456,0.13532647490501404,0.2816575765609741,-0.11317723989486694,-0.35186493330999646,-0.03618745976453397,-0.32250277486048495,-0.8779940472964559,0.6332617826559802,0.20413122356226154,2.3121773233086182
1780770681836356096,0.4994940757751465,1.6135337352752686,0.8978836536407471,1.29156494140625,0.16286255419254303,-0.6063821911811829,-0.7783164381980896,0.17588256299495697,0.32642918825149536,-0.0788002610206604,-0.34447575601653546,-0.03707255697578194,-0.33085859883266994,-0.8777782834677408,0.6515029300995584,0.206273577978872,2.3237517281334137
1780770681846390016,0.5095279216766357,1.4237816333770752,0.8889412879943848,1.2573459148406982,0.1619306057691574,-0.6204802393913269,-0.7673218250274658,0.1687731295824051,0.1792723536491394,0.01399540901184082,-0.33704791734196415,-0.0379288827010705,-0.3389697569746462,-0.8775303867041063,0.6693549142547022,0.20798183640272677,2.3356082316796853
1780770681856424960,0.5195629596710205,0.997975766658783,0.8646295666694641,1.1801444292068481,0.16098706424236298,-0.6317359805107117,-0.7582828402519226,0.12909777462482452,-0.08364182710647583,0.05582922697067261,-0.32993272121217704,-0.03818416922603152,-0.3455438498587173,-0.8776593179316097,0.6837906080300159,0.20919858904039837,2.34774703573245
1780770681866459136,0.5295970439910889,0.6605239510536194,0.8245987892150879,1.0174736976623535,0.16033785045146942,-0.6397976875305176,-0.7516320943832397,0.11697538197040558,-0.2616000175476074,0.07925355434417725,-0.32342451676870393,-0.03774742900591656,-0.3503699455010593,-0.8781871565801687,0.6942349599640519,0.2101694438678453,2.359572699099229
1780770681876494080,0.5396320819854736,0.4738597571849823,0.7188616991043091,0.8465110063552856,0.16010943055152893,-0.6455878615379333,-0.7467136383056641,0.14708051085472107,-0.18929678201675415,0.04293251037597656,-0.3178643289530052,-0.03692790742781879,-0.35394843788822006,-0.8788169166347979,0.7017928241160918,0.21122054413490915,2.3699148541732447
1780770681886528000,0.5496659278869629,0.6871374249458313,0.5690497756004333,0.7147654891014099,0.15966542065143585,-0.6510229706764221,-0.742075502872467,0.19320932030677795,0.05927187204360962,-0.041127562522888184,-0.31321363690298837,-0.03647181150531813,-0.35725627279315425,-0.8791672881615219,0.7089313749740563,0.2119296728368812,2.3784194044245215
1780770681896562176,0.5597000122070312,0.5753624439239502,0.43522995710372925,0.4966805577278137,0.1595112532377243,-0.6567933559417725,-0.7370065450668335,0.2303050309419632,0.25805068016052246,-0.037178635597229004,-0.30941010350732046,-0.03626730009057599,-0.3608066314643314,-0.8790725229917596,0.7165583634099514,0.2131437951611307,2.3846588457946956
1780770681906597120,0.569735050201416,0.5778666138648987,0.2477535456418991,-0.19604413211345673,0.16074112057685852,-0.6616138815879822,-0.7324133515357971,0.25123095512390137,0.3280567526817322,-0.02278989553451538,-0.3079309168432811,-0.03610847859369499,-0.3639910789935951,-0.8782853550151085,0.7229690376501604,0.2160425812943997,2.3852071442994633
1780770681916631040,0.5797688961029053,0.43014371395111084,0.09184329956769943,-0.45026522874832153,0.16457562148571014,-0.6642084121704102,-0.7292064428329468,0.27922624349594116,0.48943424224853516,-0.13521921634674072,-0.3092721420786784,-0.03533688797596296,-0.36626232407668985,-0.8769001771166082,0.7264344215651308,0.22197243014154616,2.3787928674723156
1780770681926665984,0.58980393409729,1.1757137775421143,0.03757913410663605,-0.37068626284599304,0.16757211089134216,-0.6694817543029785,-0.7236806750297546,0.18295279145240784,0.9426751136779785,-0.2865884304046631,-0.3107367682858738,-0.03564450813187461,-0.3699852955585907,-0.8748045222699332,0.7335108806133318,0.22754506277098385,2.3712495310237474
1780770681936700160,0.5998380184173584,1.1462651491165161,0.027272166684269905,-0.539746105670929,0.17093238234519958,-0.6774789690971375,-0.7154050469398499,0.12267723679542542,1.0813333988189697,-0.23952049016952515,-0.3124415013980288,-0.036521419718949906,-0.37545128840919006,-0.8718273065475141,0.7443297770627928,0.2345338864212389,2.361450449610652
1780770681946735104,0.6098730564117432,0.7115107178688049,0.00958571583032608,-0.5592893958091736,0.17489798367023468,-0.6831645369529724,-0.7090112566947937,-0.02308829128742218,0.5540446639060974,-0.1313818097114563,-0.31469122856481785,-0.03684465278159581,-0.3796535905706402,-0.86918069956353,0.7520872955988709,0.2418503193826688,2.3509604398749455
1780770681956769024,0.6199069023132324,0.3669471740722656,0.11859183013439178,-0.4143431782722473,0.17867685854434967,-0.6860170960426331,-0.7053049802780151,-0.10422921180725098,0.07363611459732056,0.03454387187957764,-0.31391702918764486,-0.03529602805936499,-0.3822325161648754,-0.8683942682993053,0.7560006920099133,0.24811290460963806,2.348889884609276
1780770681966803200,0.6299409866333008,0.36893975734710693,0.4776388108730316,-0.143965482711792,0.18271148204803467,-0.687919020652771,-0.7024129629135132,-0.13370023667812347,-0.1242300271987915,0.13040673732757568,-0.31193728557875744,-0.032861453558259986,-0.3843353305194934,-0.8682750987127174,0.7586179382306576,0.2544802134643086,2.349888955236632
1780770681976838144,0.6399760246276855,0.6489586234092712,0.6548871397972107,0.09083211421966553,0.18692657351493835,-0.6913318037986755,-0.6979389786720276,-0.21500276029109955,-0.13282591104507446,0.2002430558204651,-0.3082787294743591,-0.029927897985619043,-0.38747237265602924,-0.8682936002254312,0.7633307013309585,0.26168494722300717,2.353746393096541
1780770681986872320,0.6500101089477539,0.9639738202095032,0.7216092348098755,0.21993044018745422,0.19072593748569489,-0.6972856521606445,-0.6909531950950623,-0.2318636178970337,-0.11019420623779297,0.24564069509506226,-0.30367033601160826,-0.02732942447431663,-0.39214346768770303,-0.8679060525738754,0.7716036900909503,0.26932638927872676,2.358498028840471
1780770681996907008,0.6600449085235596,1.1940374374389648,0.6462159752845764,0.4540262818336487,0.19315007328987122,-0.7054430246353149,-0.6819406747817993,-0.07034733891487122,-0.05546694993972778,0.1704661250114441,-0.2983163577153027,-0.025537134441194,-0.3979667107567157,-0.8671664211163105,0.7830480183061167,0.27600679620384116,2.364380864303006
1780770682006941184,0.6700789928436279,0.9722240567207336,0.48214393854141235,0.7339202761650085,0.19281306862831116,-0.7142267227172852,-0.6728322505950928,0.03793033957481384,-0.13510793447494507,-0.02756136655807495,-0.29208282928000495,-0.02481392762485238,-0.4036931321572843,-0.8666623484370322,0.7955186624305393,0.2790899713950196,2.373570863635285
1780770682016975104,0.6801130771636963,0.11889956146478653,0.3369174897670746,0.7971304059028625,0.18989019095897675,-0.719694197177887,-0.6678187847137451,0.06224602460861206,-0.48161494731903076,-0.1376773715019226,-0.28550134005937383,-0.02443982715949066,-0.40680866770919594,-0.8674089715412866,0.8033617445729536,0.2770322200669401,2.387347130321563
1780770682027010304,0.690148115158081,-1.0797878503799438,0.22072231769561768,0.8650618195533752,0.18587003648281097,-0.7179693579673767,-0.670799732208252,0.06185638904571533,-0.665682315826416,-0.07268470525741577,-0.2792605111830129,-0.023185741240291588,-0.40504635036846687,-0.8702949986492733,0.8008806246900939,0.2703056374236635,2.4055914213524865
1780770682037043968,0.7001819610595703,-2.1124045848846436,0.02495681494474411,0.9358254671096802,0.18023106455802917,-0.7087993025779724,-0.6819972991943359,0.14604762196540833,-0.4575367569923401,0.026708602905273438,-0.27303353791237345,-0.02124778924850791,-0.3981832428605759,-0.8754720628841566,0.7877946602423527,0.25836302519315507,2.429093958071587
1780770682047079168,0.7102169990539551,-3.0030722618103027,-0.20806191861629486,0.7721267938613892,0.17347650229930878,-0.6924378275871277,-0.7003111839294434,0.22546453773975372,-0.23349601030349731,-0.04819345474243164,-0.26759642711997966,-0.018953167690005355,-0.38663314530479753,-0.8823535273648463,0.7648625513968609,0.24282547463576615,2.4545970592673214
1780770682057113088,0.7202510833740234,-3.24202561378479,-0.3295377492904663,0.649234414100647,0.16680756211280823,-0.6710851192474365,-0.7223711013793945,0.19783172011375427,0.013705968856811523,-0.05620861053466797,-0.2632028452513885,-0.016367323203752223,-0.37221842995603216,-0.8898931169042839,0.7356714270481525,0.22693887222980194,2.4786736869850854
1780770682067148032,0.7302858829498291,-3.1086807250976562,-0.41903018951416016,0.6677854657173157,0.15969528257846832,-0.6486514806747437,-0.7441428899765015,0.08551345765590668,0.28730809688568115,0.023638129234313965,-0.2592308246505038,-0.014265165220954303,-0.35738641655608816,-0.8971459446453558,0.7058112711043177,0.21139664401011432,2.5009002710288724
1780770682077181952,0.7403199672698975,-2.5250566005706787,-0.3867098093032837,0.6749826669692993,0.15230415761470795,-0.6282176375389099,-0.7629849314689636,-0.005606174468994141,0.4825115203857422,0.0432736873626709,-0.25515582509521056,-0.012864664000261455,-0.3440087581011028,-0.9035419309273529,0.6792602762343108,0.1970264866520461,2.521324818094084
1780770682087216128,0.7503540515899658,-2.0444319248199463,-0.32285627722740173,0.568078339099884,0.14563678205013275,-0.6117936372756958,-0.7774949669837952,-0.05104754865169525,0.4555283784866333,0.07061630487442017,-0.2530569338253177,-0.012692427808894149,-0.3333037826238862,-0.9081352359684319,0.658326108415348,0.1851696149802647,2.534657264937013
1780770682097251072,0.7603890895843506,-1.9165499210357666,-0.22866053879261017,0.5553457736968994,0.14015023410320282,-0.5970418453216553,-0.7898727655410767,-0.10554330050945282,0.2794606685638428,0.17309725284576416,-0.2511403781397585,-0.012355625218145393,-0.3238995964956427,-0.912066317268732,0.6398084850221893,0.17560629668016944,2.5458947749799763
1780770682107284992,0.7704229354858398,-1.812741994857788,-0.09097578376531601,0.5889489650726318,0.13544689118862152,-0.5830287933349609,-0.8010815382003784,-0.17225109040737152,0.09180259704589844,0.22228515148162842,-0.2488662158092078,-0.01169300789067852,-0.31515474748483735,-0.9157546096893412,0.6224517205563489,0.1674958918655587,2.5568949895028683
1780770682117319936,0.7804579734802246,-1.8744192123413086,0.04002644494175911,0.5693718194961548,0.13196447491645813,-0.5689588189125061,-0.8117088675498962,-0.22087743878364563,-0.041896283626556396,0.18518298864364624,-0.24634252919511776,-0.010398848563757036,-0.3066552256548019,-0.9193312251866053,0.6052392041910578,0.16116606078167275,2.56756078253056
1780770682127354112,0.790492057800293,-2.1477484703063965,0.08007505536079407,0.6126375198364258,0.1291908174753189,-0.553399920463562,-0.8228355050086975,-0.2065681368112564,-0.07237827777862549,0.1275840401649475,-0.24360835239243298,-0.008535963007296947,-0.2975052661946044,-0.9230779022089709,0.5864406999505064,0.15573547697556597,2.578434346115886
1780770682137389056,0.8005270957946777,-2.6960289478302,0.0843193382024765,0.6386188268661499,0.1264757513999939,-0.5341483354568481,-0.83587646484375,-0.1597551703453064,-0.09819114208221436,0.0668792724609375,-0.24068293426870846,-0.006139262351401579,-0.28639846704774424,-0.9273672470966118,0.5635000189599003,0.15017003081001198,2.5901887618173074
1780770682147422976,0.810560941696167,-3.287144184112549,0.04416446387767792,0.7302249073982239,0.12352366745471954,-0.5096539258956909,-0.8514662384986877,-0.13646312057971954,-0.13141357898712158,0.07436662912368774,-0.23748324667177645,-0.0031667457336493517,-0.27250111232782254,-0.9323812493440469,0.5347825398570257,0.14406666230712614,2.6032559615735384
1780770682157457152,0.8205950260162354,-3.833310127258301,-0.017288241535425186,0.8479259610176086,0.11970853805541992,-0.47986090183258057,-0.8691394329071045,-0.08101225644350052,-0.11462149024009705,0.06146126985549927,-0.23378346661110697,5.756058362400956e-05,-0.2557934323360043,-0.9380378229148428,0.5004961764179335,0.13687110599397567,2.6180561581014663
1780770682167492096,0.8306300640106201,-4.253516674041748,-0.1047762855887413,0.9706681370735168,0.11500175297260284,-0.44510766863822937,-0.8880618214607239,-0.042278364300727844,-0.13095739483833313,0.05738860368728638,-0.22954120689957908,0.00339164325234396,-0.23655357824651854,-0.9441089759838043,0.4612944940201643,0.1287807858802535,2.63430722728725
1780770682177526016,0.8406639099121094,-4.1369428634643555,-0.2785421907901764,1.0817493200302124,0.10885162651538849,-0.4081924855709076,-0.9063830375671387,-0.03379364311695099,-0.1917831003665924,0.06449460983276367,-0.2247517347218028,0.006125360268198748,-0.21626594679420727,-0.950093736924279,0.42047319052323867,0.11952209242441701,2.6514840564650353
1780770682187560960,0.8506989479064941,-4.0237507820129395,-0.2690601646900177,1.1478389501571655,0.10190100967884064,-0.3721916675567627,-0.9225451350212097,-0.05339331924915314,-0.2105872631072998,-0.04133731126785278,-0.21958419083621436,0.008136618950252047,-0.19662456225707536,-0.955539317282332,0.38136920563761495,0.11001044035511341,2.6685773739131213
1780770682197595136,0.8607330322265625,-4.107081413269043,-0.23621885478496552,1.2182925939559937,0.09537477046251297,-0.3353137671947479,-0.9372664093971252,-0.08412903547286987,-0.057432204484939575,-0.040440499782562256,-0.21392246987546565,0.01026792707058449,-0.17680883890011032,-0.9606613924707862,0.34193826201133753,0.10140937915102081,2.6858542225289987
1780770682207630080,0.8707680702209473,-3.88747239112854,-0.27430617809295654,1.2894349098205566,0.08901134878396988,-0.29852110147476196,-0.9502431750297546,-0.058936282992362976,0.08581361174583435,-0.039106130599975586,-0.20786652153052315,0.012242134349217074,-0.1572530906549635,-0.9653564312808239,0.30314272797117015,0.0933996395530968,2.703140524450008
1780770682217664000,0.8808019161224365,-3.6529617309570312,-0.31427356600761414,1.3504031896591187,0.08245426416397095,-0.2635437250137329,-0.9611170887947083,-0.008525431156158447,0.11791384220123291,-0.03332871198654175,-0.20140804838991874,0.013697432378489844,-0.13875824010193877,-0.9695325900977442,0.2666939661308414,0.08558049047053197,2.720457699295204
1780770682227698176,0.8908360004425049,-3.563262462615967,-0.2901902198791504,1.3344532251358032,0.07616393268108368,-0.22976082563400269,-0.970262348651886,-0.004218742251396179,0.10988777875900269,0.054094135761260986,-0.1947932202999454,0.01490642611981889,-0.12102324543763944,-0.9732352266519951,0.2318319312732516,0.07833764695261505,2.737386641179153
1780770682237733120,0.9008710384368896,-3.6929328441619873,-0.23845165967941284,1.317508339881897,0.07073890417814255,-0.19544342160224915,-0.9781604409217834,-0.04496680945158005,0.07845430076122284,0.07854807376861572,-0.188187311040094,0.016328643040909325,-0.10321409564718355,-0.9765580585265492,0.19670957632794275,0.07219262192567164,2.7537238806460644
1780770682247767040,0.9109048843383789,-4.014085292816162,-0.2401486188173294,1.3417404890060425,0.06609776616096497,-0.15840376913547516,-0.9851595759391785,-0.08070043474435806,0.03981247544288635,0.05988186597824097,-0.18145117424224022,0.018138663059047357,-0.08420935604192047,-0.9796199232477554,0.15907379380449765,0.06699305847296386,2.769950221363391
1780770682257801984,0.9209399223327637,-4.2195024490356445,-0.26565396785736084,1.3600728511810303,0.061676688492298126,-0.11835208535194397,-0.991054356098175,-0.07530279457569122,-0.02332577109336853,0.05181485414505005,-0.17447978062797642,0.020059885762216657,-0.06379979823057973,-0.9823869390987351,0.11863014151854609,0.06215324887761053,2.786350461969431
1780770682267836160,0.930974006652832,-4.1866536140441895,-0.19754257798194885,1.3640891313552856,0.05802424997091293,-0.07719696313142776,-0.9953259825706482,-0.04792293161153793,-0.06907378882169724,0.06199163198471069,-0.16739402149551072,0.022158990384227837,-0.042964950009476026,-0.9847041495965116,0.07727384467689676,0.05823082460931758,2.8025719537359732
1780770682277871104,0.9410090446472168,-4.179238319396973,-0.09189204126596451,1.326158046722412,0.05581622198224068,-0.03620433807373047,-0.997784435749054,0.0027012303471565247,-0.06337451934814453,0.06718146800994873,-0.16023104857437695,0.024658645786020734,-0.022354628261950227,-0.9865182712752799,0.03621225094674137,0.05588191696778371,2.8185510892954
1780770682287905024,0.951042890548706,-4.222733020782471,-0.043968722224235535,1.1584886312484741,0.055014435201883316,0.005166360642760992,-0.9984722137451172,0.07317465543746948,-0.05373508483171463,0.10383415222167969,-0.15349811496175716,0.027588181724389885,-0.0016720151039302685,-0.9877622911147668,-0.005166383823236255,0.055042957714158645,2.8334013546188364
1780770682297938944,0.9610769748687744,-4.328115940093994,-0.04590563848614693,0.9365248084068298,0.054787591099739075,0.04746721684932709,-0.997369110584259,0.13628296554088593,-0.046154964715242386,0.1315549612045288,-0.14767912886823886,0.030620445365561147,0.019437665314910896,-0.988370130535116,-0.04748506012211768,0.054876957992286625,2.846257047583475
1780770682307974144,0.9711120128631592,-4.028836727142334,-0.043224234133958817,0.8354698419570923,0.05475669726729393,0.08909659087657928,-0.9945167303085327,0.17353004217147827,-0.0007176920771598816,0.15874707698822021,-0.14265543545536766,0.03350730757981363,0.040235571257698464,-0.9883865539319343,-0.08921489524241678,0.05500306566756458,2.8573650084750506
1780770682318008064,0.9811460971832275,-3.498319625854492,0.18703480064868927,0.8365779519081116,0.05625142902135849,0.12603870034217834,-0.9904292225837708,0.1696549355983734,0.047682613134384155,0.18938857316970825,-0.13786909034482192,0.036652917325923524,0.0586682025605266,-0.9880317362740616,-0.12637481243332857,0.05673405116938415,2.8678954595577015
1780770682328043008,0.9911808967590332,-3.1729838848114014,0.3130984306335449,0.8322455286979675,0.060026854276657104,0.1585278958082199,-0.9855281114578247,0.1361859142780304,0.06754632294178009,0.1593409776687622,-0.13318128329141432,0.04048571615826102,0.07481205892656997,-0.9874345232331173,-0.1591995187669319,0.06083316064806227,2.8783127127916592
1780770682338077184,1.0012149810791016,-3.047860860824585,0.36050403118133545,0.8573160171508789,0.064848393201828,0.18849122524261475,-0.9799314737319946,0.130891352891922,0.00178585946559906,0.1600767970085144,-0.1284871942824044,0.044547337990583,0.08972059457302634,-0.9866391017205234,-0.1896255992365789,0.06608010878867109,2.8888822473359994
1780770682348110080,1.0112478733062744,-3.2342379093170166,0.32060083746910095,0.85029536485672,0.06995556503534317,0.2185167819261551,-0.9733224511146545,0.18752121925354004,-0.15856501460075378,0.08156836032867432,-0.12368986074524084,0.04863620354998445,0.1047534487696,-0.9855769906741783,-0.22029426704904204,0.07174958397090025,2.8998366936470057
1780770682358145024,1.0212829113006592,-3.7854208946228027,0.21465496718883514,0.7953625917434692,0.07461528480052948,0.2518313229084015,-0.9648904204368591,0.23265095055103302,-0.3312380611896515,0.04333585500717163,-0.11884771026912413,0.052600114043284324,0.12160597136391378,-0.9840327062234364,-0.25457208965280115,0.07717672287922143,2.911086349305556
1780770682368179200,1.0313169956207275,-4.3956756591796875,0.038537606596946716,0.6510618925094604,0.07783778756856918,0.290817528963089,-0.9536070823669434,0.2623111307621002,-0.392929345369339,0.09269094467163086,-0.11424124315522849,0.05612050329119522,0.1415872690745074,-0.9817089631258498,-0.29508119253312176,0.08144403974132884,2.922006055381866
1780770682378214144,1.0413520336151123,-4.594033241271973,-0.15024696290493011,0.5297706127166748,0.0791383683681488,0.33331361413002014,-0.9394887685775757,0.2856687605381012,-0.30412355065345764,0.16660058498382568,-0.10998162882636588,0.05883137394361583,0.1636902001410025,-0.9785951561756251,-0.33981599466445694,0.0840371716456063,2.9321832372577403
1780770682388248064,1.0513858795166016,-4.4425578117370605,-0.2795611321926117,0.4582689702510834,0.07879515737295151,0.3753143548965454,-0.9235423803329468,0.2791760265827179,-0.11486208438873291,0.16298329830169678,-0.10605700469752324,0.06063077803601805,0.18588364782141628,-0.9749477916472887,-0.38473588395588554,0.08511228670143599,2.9414678455480066
1780770682398283008,1.0614209175109863,-4.214416027069092,-0.20498384535312653,0.44246044754981995,0.07837367802858353,0.41469573974609375,-0.9065787196159363,0.21042943000793457,0.10405731201171875,0.07874363660812378,-0.10227636294148693,0.06216051615827513,0.2069944429366384,-0.970993820375392,-0.4276084253778322,0.08623553537378362,2.9504381038917935
1780770682408317184,1.0714550018310547,-3.9253222942352295,-0.02079589106142521,0.48935791850090027,0.07924550026655197,0.4510157108306885,-0.8889909982681274,0.09583384543657303,0.23732352256774902,0.05160391330718994,-0.09863597432383867,0.06411018206531559,0.22670331326447732,-0.9668331702952868,-0.46790303856271676,0.08890595681897963,2.9594576840448705
1780770682418350848,1.081488847732544,-3.6331260204315186,0.14077915251255035,0.5245193839073181,0.0823047086596489,0.48399803042411804,-0.8711898922920227,0.005830049514770508,0.23148658871650696,0.021199047565460205,-0.09491861919896097,0.06689132706251485,0.24480728677618044,-0.9625930310835419,-0.5052177992834025,0.09419433166827662,2.9693442024611385
1780770682428386048,1.0915238857269287,-3.346754789352417,0.21949899196624756,0.3739762008190155,0.08632119745016098,0.5139406323432922,-0.853471577167511,-0.03250344097614288,0.18605631589889526,-0.11002939939498901,-0.09186703659600473,0.07010297588786842,0.26143792969712465,-0.9582777948550898,-0.5397722449378439,0.10079849087433486,2.978349465692003
1780770682438419968,1.101557970046997,-2.605294704437256,0.13043276965618134,0.3629150092601776,0.0898304283618927,0.5392096042633057,-0.8373669981956482,0.0025462806224823,0.25838255882263184,-0.15887928009033203,-0.08927029796084476,0.07285522862767439,0.2756965809532562,-0.9543135425050456,-0.5694982744330971,0.10686853769234866,2.986355541189336
1780770682448455168,1.1115930080413818,-2.023874044418335,0.01987111009657383,0.23458261787891388,0.09222302585840225,0.557735025882721,-0.8248797059059143,0.11512865871191025,0.38229793310165405,-0.22730529308319092,-0.08713246944249682,0.0747022289723878,0.2863209987012765,-0.9512349117169165,-0.5916544844037415,0.11133941957039838,2.9928685860184174
1780770682458488832,1.121626853942871,-2.050276041030884,-0.09663046896457672,0.23483535647392273,0.09320627897977829,0.5744033455848694,-0.8132486939430237,0.1394292116165161,0.4206070303916931,-0.08950704336166382,-0.08522832049968225,0.0757464972622124,0.29603736111141493,-0.9483462709442873,-0.6118750686451379,0.11411191687657747,2.998411262786557
1780770682468524032,1.1316618919372559,-1.8050334453582764,-0.25191566348075867,0.26546570658683777,0.09332279860973358,0.5898697376251221,-0.8020876049995422,0.13163751363754272,0.32765650749206543,0.07450276613235474,-0.08303145516492445,0.0761468622613573,0.30521773034341115,-0.9455947451765615,-0.6308975101557548,0.11582909110261431,3.0042626581241025
1780770682478557952,1.1416959762573242,-1.4250906705856323,-0.45537981390953064,0.2823794484138489,0.09221044182777405,0.6026418805122375,-0.7926663756370544,0.11720117926597595,0.20480746030807495,0.09022802114486694,-0.08056230598835218,0.07560453158936582,0.31297087275293894,-0.943314841727897,-0.6468075763481875,0.11580892507918669,3.010053671369503
1780770682488592128,1.1517300605773926,-0.6170463562011719,-0.48082205653190613,0.23233836889266968,0.08976706117391586,0.6105568408966064,-0.7868686318397522,0.07760659605264664,0.26236796379089355,0.0692630410194397,-0.07817070257905498,0.07403247584894132,0.31793850106730853,-0.9419785632626275,-0.6567635136116925,0.11359030544660408,3.014739837842735
1780770682498627072,1.1617648601531982,-0.2184225469827652,-0.1509431004524231,0.37901541590690613,0.08926287293434143,0.6134295463562012,-0.7846886515617371,-0.01141253113746643,0.33215761184692383,-0.15049201250076294,-0.07611249994824551,0.07325466464180608,0.3198271685945837,-0.9415684542542626,-0.6603958683456965,0.11326887396286356,3.019130818846894
1780770682508660992,1.1717989444732666,0.011136341840028763,-0.13422724604606628,0.43297773599624634,0.09090938419103622,0.6136744022369385,-0.7843080759048462,-0.05030575394630432,0.23750662803649902,0.03861105442047119,-0.07391107629204142,0.07339624429599553,0.3200920942009155,-0.9416427893514433,-0.6607059772607573,0.11539535286686699,3.024540680641663
1780770682518696192,1.1818339824676514,-0.10907235741615295,-0.2868759036064148,0.3067534863948822,0.09165934473276138,0.613699734210968,-0.7842010259628296,-0.016036778688430786,-0.05998879671096802,0.11226499080657959,-0.07180256873806576,0.07307916258200728,0.32024822389983826,-0.9417775854064506,-0.6607380532427577,0.11635451684297339,3.0293460767315983
1780770682528730112,1.1918680667877197,-0.023870112374424934,-0.47021883726119995,0.16163544356822968,0.0900578498840332,0.6140458583831787,-0.7841156721115112,0.07876540720462799,-0.08769392967224121,-0.06091606616973877,-0.07001896845601158,0.0716429726137917,0.3206391331186428,-0.9418892382046701,-0.6611764726920384,0.11435170517758474,3.032469163848596
1780770682538765056,1.2019028663635254,0.14863935112953186,-0.6222578883171082,0.1364440619945526,0.08656515181064606,0.6138429641723633,-0.7846676111221313,0.08500467240810394,0.11285686492919922,-0.021408438682556152,-0.06850666112346292,0.06926186872598998,0.3207319481760854,-0.9421468255487098,-0.6609194770119959,0.10987646778388485,3.0341467893277874
1780770682548798976,1.2119369506835938,0.8253786563873291,-0.5582944750785828,0.11868558079004288,0.08266949653625488,0.6097104549407959,-0.7883012890815735,-0.08152508735656738,0.2842714786529541,0.038484394550323486,-0.06701982785028535,0.06645300592110623,0.3184860316983108,-0.9432173342044137,-0.6556952083686678,0.10448849981148518,3.035289531032667
1780770682558833152,1.221971035003662,1.223643183708191,-0.052308276295661926,0.14449773728847504,0.08081749081611633,0.6013315320014954,-0.7949018478393555,-0.30364158749580383,0.32914942502975464,-0.24118518829345703,-0.06633369011062049,0.06477355776950988,0.31361357534637996,-0.9450135759122522,-0.6451665381864657,0.10132162271880588,3.0353291971704963
1780770682568868096,1.2320060729980469,1.4023953676223755,0.3305927515029907,0.25707221031188965,0.08329925686120987,0.5904797315597534,-0.8027421236038208,-0.40916597843170166,0.3138934373855591,-0.1518782377243042,-0.06599396874407588,0.0653790673899372,0.3071718083515285,-0.9471092121283952,-0.6316531550558728,0.103398327354059,3.0362725736602925
1780770682578902016,1.2420399188995361,1.1925904750823975,0.5051925182342529,0.3094232976436615,0.0884324312210083,0.5795240998268127,-0.8101429343223572,-0.3904954195022583,0.09802716970443726,0.004646658897399902,-0.06577252324265319,0.06742333006262155,0.3006370596954295,-0.9490761155005737,-0.6181446238831714,0.10872611330739756,3.0379581738824264
1780770682588936960,1.252074956893921,0.8691146969795227,0.5292279720306396,0.4084912836551666,0.09488857537508011,0.570798397064209,-0.8155889511108398,-0.2324770838022232,-0.12984991073608398,-0.041085243225097656,-0.06516669284286468,0.0701664953413678,0.2954355980787618,-0.9505512550421072,-0.6074778853240219,0.11582291709709862,3.041033295341743
1780770682598971136,1.2621090412139893,0.19413891434669495,0.4275285005569458,0.2817903459072113,0.10089876502752304,0.566011369228363,-0.8181995749473572,-0.06667330861091614,-0.3134632110595703,-0.04982709884643555,-0.06441111093810845,0.0728420195853385,0.2925649680230358,-0.9512890470987625,-0.601659536845669,0.12269856416263707,3.0444903491335036
1780770682609005824,1.272143840789795,-0.4771731495857239,0.1871863305568695,0.23107044398784637,0.10493533313274384,0.5670903325080872,-0.8169437646865845,0.06193477660417557,-0.34321337938308716,0.07419168949127197,-0.06362002924797339,0.07478113266627552,0.2931482769054456,-0.9510122110494922,-0.6029689211787819,0.12774915425450303,3.0477715508521475
1780770682619040000,1.2821779251098633,-0.303966760635376,0.008059191517531872,0.28115785121917725,0.10712411999702454,0.5705510973930359,-0.8142455816268921,0.19071218371391296,-0.1839544177055359,0.10257565975189209,-0.062386730220254774,0.0757361195587855,0.2951969741504932,-0.9503845147859817,-0.607176768246905,0.13081115525689713,3.0515256990720925
1780770682629074176,1.2922120094299316,0.248528391122818,-0.0955851823091507,0.3080587089061737,0.10847970098257065,0.5702219605445862,-0.8142967224121094,0.21795158088207245,-0.09855753183364868,0.015773773193359375,-0.060874184891899344,0.07596404071179853,0.29509509111206067,-0.9504960964033461,-0.6067760246255874,0.13243908519018857,3.055193176874446
1780770682639109120,1.3022470474243164,0.38795870542526245,-0.09709598869085312,0.2788078784942627,0.10931070894002914,0.5673144459724426,-0.8162141442298889,0.14134542644023895,-0.07312804460525513,0.06749594211578369,-0.05944131582165035,0.07580951494857992,0.2935061113753632,-0.951090931817589,-0.60324102507281,0.1331318852142327,3.0582333068667924
1780770682649143040,1.3122808933258057,0.5744199752807617,0.009082244709134102,0.19541338086128235,0.1102912649512291,0.5630200505256653,-0.8190508484840393,0.0387565940618515,0.016493499279022217,0.013554632663726807,-0.05839269297964271,0.07578821660565847,0.29108541316487896,-0.9519011942252772,-0.598035557937698,0.13385225272778606,3.0603769191653094
1780770682659177984,1.3223159313201904,0.5355745553970337,0.09243732690811157,0.12885671854019165,0.11165649443864822,0.5582371950149536,-0.8221338391304016,-0.057625122368335724,0.08586674928665161,-0.1746770739555359,-0.057935075094096955,0.07613103983136452,0.2883351311912688,-0.9527384115008634,-0.5922596364225677,0.134987131313053,3.0613656994995377
1780770682669212160,1.3323500156402588,0.5524606108665466,0.10433246195316315,0.08980413526296616,0.11311685293912888,0.553602397441864,-0.8250629901885986,-0.09102213382720947,0.07454085350036621,-0.1954142451286316,-0.057755923983658704,0.07661802808383197,0.28565394827476387,-0.9535175423202893,-0.5866837857746079,0.13625141414714845,3.06181111554308
1780770682679247104,1.3423850536346436,0.3132229447364807,0.09012183547019958,0.060720812529325485,0.11436600238084793,0.5498286485671997,-0.8274109363555908,-0.06782670319080353,-0.04309952259063721,-0.17631220817565918,-0.05770648213942049,0.07707593428711676,0.2834675181172942,-0.9541358995152639,-0.5821590620288177,0.13735123528556792,3.0619869752264104
1780770682689281024,1.3524188995361328,0.30672377347946167,0.07468495517969131,0.011644881218671799,0.1153465136885643,0.5473453402519226,-0.8289199471473694,-0.028371423482894897,-0.1428195834159851,-0.07018893957138062,-0.05774277045387347,0.07748116241946877,0.28202252687466445,-0.9545290420225967,-0.5791889442367619,0.138264914955732,3.0620118486137975
1780770682699315968,1.3624539375305176,0.34700700640678406,0.025404758751392365,-0.0325622633099556,0.1156829446554184,0.5446139574050903,-0.8306702375411987,0.007028229534626007,-0.16608917713165283,-0.01439201831817627,-0.05799709225100598,0.07759999668292678,0.280433807549214,-0.9549719354551375,-0.5759287790744227,0.1383745919486349,3.0613241421954878
1780770682709350144,1.372488021850586,0.34644800424575806,-0.021390710026025772,-0.1168861910700798,0.11528505384922028,0.5417888164520264,-0.8325708508491516,0.03835570067167282,-0.07596850395202637,-0.005884349346160889,-0.05847725565443858,0.07739415721272207,0.27879151663838275,-0.9554401902269352,-0.5725639149837596,0.13759381638512194,3.0598978172723195
1780770682719384064,1.3825218677520752,0.42354121804237366,-0.04893258959054947,-0.14349330961704254,0.11424504965543747,0.5388090014457703,-0.8346453905105591,0.030255675315856934,0.06813985109329224,-0.03892028331756592,-0.059222528964686244,0.0769198751216664,0.27705710597035754,-0.9559369285775843,-0.5690227184846333,0.13603319647232434,3.0576845629697504
1780770682729419008,1.39255690574646,0.6677728295326233,-0.0449955053627491,-0.10316851735115051,0.11317329853773117,0.534505307674408,-0.8375535011291504,0.01660270243883133,0.17403656244277954,-0.06129598617553711,-0.05996658985384579,0.0763622895461043,0.27457611947058774,-0.956650765510657,-0.5639222879706441,0.13431017565476172,3.0553491702253104
1780770682739453184,1.4025909900665283,0.8899952173233032,-0.04649166762828827,-0.0857706218957901,0.11229833960533142,0.5279138088226318,-0.8418408632278442,-0.005090095102787018,0.12681031227111816,-0.03572261333465576,-0.06064725531586711,0.07577623407654595,0.27080902857114814,-0.9577276589491901,-0.5561423443507497,0.1326132648315246,3.05302107277183
1780770682749488128,1.412626028060913,0.9257103204727173,-0.016364658251404762,-0.05337939411401749,0.11161939054727554,0.5202810168266296,-0.8466691970825195,-0.04663220793008804,0.07313328981399536,-0.01790904998779297,-0.06130620029428142,0.07523456294842594,0.26646793815777325,-0.9589452962421522,-0.5471800087875601,0.13107763550331453,3.0507372105143062
1780770682759522048,1.4226598739624023,1.0729879140853882,0.04537593573331833,0.0011578851845115423,0.11166824400424957,0.5118387937545776,-0.8517929315567017,-0.08299699425697327,0.1253224015235901,-0.042936623096466064,-0.061807840139652265,0.07498941556907301,0.26168706347286275,-0.960247975717458,-0.5373238701605852,0.13035448217757387,3.048972901230449
1780770682769555968,1.4326939582824707,1.050485610961914,0.03670881316065788,-0.0010514733148738742,0.11205022782087326,0.5024356842041016,-0.8573232293128967,-0.10225408524274826,0.05190086364746094,-0.02446693181991577,-0.062272978267720866,0.07486150981024205,0.25638669095046385,-0.9616567613054154,-0.526413556809998,0.12996110847133585,3.0473262337329152
1780770682779591168,1.4427289962768555,0.8153673410415649,0.02639918215572834,0.022409910336136818,0.11239777505397797,0.4945271611213684,-0.8618640899658203,-0.09768829494714737,-0.022343933582305908,-0.03198051452636719,-0.06261234923874955,0.07475395346484907,0.2519520103557632,-0.9628145528637373,-0.5172907357571289,0.1296805440359389,3.0460690266774417
1780770682789624832,1.4527628421783447,0.7105855345726013,0.02363295666873455,0.013504566624760628,0.11273940652608871,0.48782259225845337,-0.8656321167945862,-0.062263332307338715,-0.01657015085220337,-0.03105062246322632,-0.06283084974687103,0.07466963727041423,0.24821035599113733,-0.9637782486639243,-0.5095936855770882,0.12951041846714983,3.045168467113033
1780770682799660032,1.4627978801727295,0.538168728351593,-0.009870674461126328,-0.006386317778378725,0.11281187832355499,0.48242104053497314,-0.8686445951461792,-0.015582866966724396,-0.045638203620910645,0.004096865653991699,-0.06306260238359765,0.0745110938860528,0.24520562565695886,-0.9645441973137722,-0.5034165664085902,0.12914829798800273,3.0442723013693955
1780770682809693952,1.4728319644927979,0.5227130651473999,-0.0220680832862854,-0.041459351778030396,0.11256314814090729,0.47794443368911743,-0.8711479306221008,0.03416536748409271,-0.04763132333755493,0.05049973726272583,-0.06333854566193803,0.07424073510181575,0.24272279830058732,-0.9651747637336124,-0.49831307294700516,0.12850045751161676,3.043271019005197
1780770682819729152,1.4828670024871826,0.7286060452461243,-0.020734639838337898,-0.11728939414024353,0.11202779412269592,0.47260791063308716,-0.8741233348846436,0.051287032663822174,-0.022366821765899658,0.06478190422058105,-0.06391249150128059,0.07385532816246433,0.23975763953747,-0.9659073782790631,-0.492247682857232,0.12746532910585756,3.041510752485253
1780770682829762816,1.4929008483886719,0.7928891777992249,0.005581386387348175,-0.16428221762180328,0.11129681020975113,0.4659854769706726,-0.8777645230293274,0.043885067105293274,0.029604732990264893,0.04901391267776489,-0.06489670722598682,0.07340689921848835,0.23607027218722854,-0.9667836450866052,-0.48474809269587243,0.1261227289833673,3.038761689630386
1780770682839798016,1.5029358863830566,0.7464660406112671,0.012314923107624054,-0.1921873390674591,0.11059483140707016,0.45922285318374634,-0.881409764289856,0.04498378187417984,0.007619798183441162,0.029908299446105957,-0.06604693018880288,0.07300224039214351,0.2323053940967141,-0.9676480281311798,-0.4771201600631168,0.12482259560174344,3.0356866963123927
1780770682849831936,1.512969970703125,0.3059051036834717,-0.036651287227869034,-0.21328437328338623,0.10961085557937622,0.4546186923980713,-0.883915901184082,0.056221671402454376,-0.1723005771636963,0.06450366973876953,-0.06726420988966174,0.0725648334503702,0.2297311220350267,-0.9682115483183471,-0.47194405144351903,0.12337614286665195,3.0325717836666826
1780770682859866112,1.5230040550231934,-0.007918575778603554,-0.12867654860019684,-0.18214750289916992,0.10796838253736496,0.4536589980125427,-0.8846108317375183,0.06798071414232254,-0.2907561957836151,0.1560494303703308,-0.06815958002835498,0.07188223886252199,0.22918883763296147,-0.9683283242425564,-0.47086689655447544,0.12145115108367856,3.0302143842315963
1780770682869901056,1.533038854598999,-0.3048700988292694,-0.16301894187927246,-0.18007582426071167,0.10580500960350037,0.45525887608528137,-0.8840501308441162,0.050338178873062134,-0.27557137608528137,0.1479966640472412,-0.06883435194420631,0.0710018611450829,0.23007317269663136,-0.9681358043695285,-0.47266295881930237,0.11911556598074272,3.0283505894704676
1780770682879934976,1.5430729389190674,-0.3370125889778137,-0.13948538899421692,-0.1220782920718193,0.10376551747322083,0.4584060311317444,-0.8826645016670227,-0.017797499895095825,-0.15733486413955688,0.1019180417060852,-0.06926963441105144,0.07020495308251515,0.23181676480627658,-0.9677468314022314,-0.4762008474631129,0.11702228958681483,3.027112220540731
1780770682889970176,1.5531079769134521,-0.24469169974327087,0.06200578063726425,-0.11674930900335312,0.10299859941005707,0.46086573600769043,-0.881472647190094,-0.055101267993450165,-0.01395106315612793,-0.116726815700531,-0.06963884070600343,0.0700176475283574,0.23315489439581705,-0.9674123448557206,-0.4789704685543798,0.11632083934248831,3.0263035944865777
1780770682900004096,1.5631420612335205,-0.1454884111881256,0.03456803038716316,-0.19407711923122406,0.10266168415546417,0.4628261923789978,-0.8804842233657837,0.030791684985160828,0.0759769082069397,-0.08387124538421631,-0.07046079978227926,0.07013881879717726,0.2341760506070649,-0.9670974651420192,-0.48118078582926926,0.11607274095858655,3.0246413175173554
1780770682910039040,1.5731768608093262,0.13869696855545044,-0.09180708229541779,-0.12575691938400269,0.10165409743785858,0.46332165598869324,-0.880340576171875,0.15145869553089142,0.05282214283943176,0.1414794921875,-0.07122256333951157,0.06982720333513016,0.2344224451787479,-0.9670044580274073,-0.481739770970809,0.11496218421820274,3.0228210429057834
1780770682920072960,1.5832109451293945,0.0814850777387619,-0.13940976560115814,-0.17713409662246704,0.09995753318071365,0.46213704347610474,-0.8811571002006531,0.18725866079330444,0.004980266094207764,0.016655147075653076,-0.07185232777735369,0.06904337627008318,0.23378292542035412,-0.9671689971820103,-0.480403510473431,0.11295607326279417,3.020976410271924
1780770682930107136,1.593245029449463,-0.11046198755502701,-0.09454108774662018,-0.15396565198898315,0.09801426529884338,0.4624188542366028,-0.8812275528907776,0.07819423079490662,0.008009612560272217,-0.07954210042953491,-0.07251629086323383,0.06821406198061376,0.23395096216473837,-0.9671376888883458,-0.48072130275582486,0.11076941834544043,3.019087707080066
1780770682940142080,1.6032800674438477,-0.3425873816013336,0.03122136928141117,-0.09198883175849915,0.09719870984554291,0.46447423100471497,-0.8802363872528076,-0.04913352429866791,0.054416149854660034,-0.12656903266906738,-0.07301608623170976,0.06801806829005143,0.23506454996922935,-0.9668438217750116,-0.4830408354069857,0.10997786273203823,3.017955130355911
1780770682950176000,1.613313913345337,-0.4723089039325714,0.05737347528338432,-0.040558136999607086,0.09733379632234573,0.4685574471950531,-0.878054678440094,-0.08955182135105133,0.03846156597137451,-0.08654487133026123,-0.0732389350700868,0.06835086381685856,0.23727792785904442,-0.9662625716818467,-0.4876571789801163,0.11040090157954768,3.0177813121380477
1780770682960210944,1.6233489513397217,-0.20694617927074432,-0.01755482517182827,-0.013411203399300575,0.097455233335495,0.4713781774044037,-0.876530110836029,-0.030545443296432495,-0.019183963537216187,-0.022609233856201172,-0.07329308734409021,0.06857191226977565,0.23881546077164562,-0.9658639545118581,-0.4908528165357318,0.11072821209995651,3.017877384818083
1780770682970245120,1.63338303565979,-0.1963454782962799,-0.10306772589683533,0.04870329797267914,0.09698282182216644,0.4731828570365906,-0.8756096959114075,0.02072346955537796,0.027717411518096924,0.05848628282546997,-0.07304808535030002,0.06835964705908867,0.23983769837426674,-0.9656442072019826,-0.4929002042979427,0.11031071424763982,3.0183628468639245
1780770682980280064,1.6434180736541748,-0.02192280814051628,-0.14699311554431915,0.017742453143000603,0.0960734635591507,0.47415775060653687,-0.8751824498176575,0.025951072573661804,0.054345667362213135,0.02691584825515747,-0.07268020493567992,0.06784764088655948,0.2404276896458764,-0.9655614174082257,-0.4940071751419028,0.10933755895511163,3.0189265496352604
1780770682990313984,1.653451919555664,0.041531797498464584,-0.0981852188706398,-0.021878458559513092,0.09495441615581512,0.47393879294395447,-0.8754231333732605,-0.009779863059520721,-0.044159770011901855,-0.029621362686157227,-0.07254156962769949,0.06722295707123495,0.24035287746901565,-0.9656341292702616,-0.4937584959534304,0.10804448099157582,3.018882085864981
1780770683000348160,1.6634860038757324,0.11056306958198547,-0.02922532893717289,-0.03618282824754715,0.0942726656794548,0.473412424325943,-0.8757815361022949,-0.0363350510597229,-0.03382200002670288,0.016025125980377197,-0.07263705737090709,0.06686720585506226,0.240079168050311,-0.9657196648076617,-0.4931608127509423,0.1072311405794417,3.0184590246910386
1780770683010383104,1.6735210418701172,0.12802940607070923,-0.009426059201359749,-0.043868180364370346,0.09392933547496796,0.47221511602401733,-0.8764646053314209,-0.028392836451530457,-0.026902616024017334,0.009811162948608398,-0.07285241044309385,0.0666820472540346,0.23941847895497168,-0.9658803989356481,-0.4918020461378019,0.10676095952364868,3.0178446970690778
1780770683020417024,1.6835548877716064,-0.09793288260698318,0.0016596154309809208,-0.053668878972530365,0.09365986287593842,0.4720143675804138,-0.8766015768051147,-0.012788280844688416,-0.06895345449447632,-0.07556211948394775,-0.07307304854296129,0.06658712423345138,0.2393018614503947,-0.9658991555314062,-0.4915743216592145,0.10644047461330797,3.0172998005592984
1780770683030451968,1.6935899257659912,-0.31720373034477234,0.0022444454953074455,-0.1438847929239273,0.09321772307157516,0.47409704327583313,-0.87552410364151,-0.013353221118450165,-0.10108068585395813,-0.07607501745223999,-0.07346793556659477,0.06656328790286237,0.24043144372820913,-0.9655902498050156,-0.49393821978934116,0.10607116033512248,3.016478940918341
1780770683040486144,1.7036240100860596,-0.21448080241680145,-0.012221844866871834,-0.19723962247371674,0.09236966818571091,0.476742148399353,-0.8741766214370728,-0.008690468966960907,-0.06930196285247803,-0.10206544399261475,-0.07420992998591225,0.06644666176123311,0.24186055633359538,-0.9651845410284523,-0.49694483339296275,0.10527413248167808,3.0148538099527626
1780770683050521088,1.7136590480804443,0.03999169170856476,-0.03705102950334549,-0.21637630462646484,0.09118504822254181,0.4776849150657654,-0.8737862706184387,0.019151262938976288,0.05800539255142212,-0.07866734266281128,-0.07516000941090051,0.06612134266763665,0.24235269940352405,-0.9650099828151042,-0.49801763645145414,0.10397987409362176,3.012599040141813
1780770683060555008,1.7236928939819336,0.31135767698287964,-0.07579603046178818,-0.19218868017196655,0.08969900757074356,0.47637641429901123,-0.8746539950370789,0.045280247926712036,0.15028679370880127,0.005833804607391357,-0.07616306707087123,0.06553519795169553,0.24161568086341517,-0.965156068010576,-0.4965288143262438,0.10219642527893777,3.0100209495571306
1780770683070589184,1.733726978302002,0.5257829427719116,-0.11214737594127655,-0.1439545750617981,0.08807053416967392,0.47264957427978516,-0.8768386244773865,0.04715284705162048,0.07311153411865234,0.08834069967269897,-0.07699218055398117,0.0647025086941012,0.23957103651230394,-0.965655988966513,-0.49229498404530014,0.10010525628383872,3.0076387402601568
1780770683080624128,1.7437620162963867,0.36364057660102844,-0.07896678894758224,-0.15077652037143707,0.08650407195091248,0.4687257707118988,-0.8790979385375977,0.021757036447525024,-0.0677553117275238,0.040444374084472656,-0.07772104577476781,0.06386498936152535,0.2374284993723276,-0.9661823895454168,-0.4878477256966947,0.09808518633510241,3.0054853386005624
1780770683090658048,1.753795862197876,0.16193784773349762,-0.029996715486049652,-0.14224748313426971,0.08532160520553589,0.46657660603523254,-0.8803558945655823,-0.00017755478620529175,-0.061043769121170044,0.0011444687843322754,-0.07846173457287002,0.06332167736602144,0.23624650891654536,-0.9664480503567043,-0.4854163044718673,0.09661542161074337,3.0035150460309956
1780770683100692992,1.7638309001922607,0.01169240940362215,-0.022122014313936234,-0.10826021432876587,0.08454278856515884,0.46599987149238586,-0.8807364106178284,0.023535214364528656,0.019885748624801636,0.02233797311782837,-0.07907928976417537,0.06303978185492787,0.23591900577592909,-0.9664960800704607,-0.48476434784208483,0.09569781258501167,3.0019927467375003
1780770683110727168,1.773864984512329,0.055437225848436356,-0.06732024997472763,-0.09184342622756958,0.0837327167391777,0.4658653140068054,-0.8808849453926086,0.0635603740811348,0.03120499849319458,0.05616271495819092,-0.07950215409278061,0.06271779347659234,0.23584739581886227,-0.966499807144078,-0.4846122870827414,0.09477047642603188,3.00088676293207
1780770683120762112,1.7839000225067139,-0.03726235032081604,-0.08853951841592789,-0.09583816677331924,0.08258367329835892,0.4656704068183899,-0.8810964822769165,0.061794981360435486,-0.008303463459014893,-0.033286452293395996,-0.07988640195290371,0.06220826390285689,0.23575813075877539,-0.9665228147766193,-0.4843920249754503,0.09345527092706506,2.9997642314265525
1780770683130796032,1.7939338684082031,-0.08107374608516693,-0.048415135592222214,-0.05160333216190338,0.08163123577833176,0.46648314595222473,-0.8807552456855774,0.012896962463855743,0.01982972025871277,-0.03451269865036011,-0.08012852247440302,0.06181996205196456,0.23622164677582178,-0.9664145549159484,-0.48531064827726544,0.09241919820676342,2.9990367848549577
1780770683140830976,1.803968906402588,0.04483358561992645,-0.02811705693602562,-0.04973645508289337,0.08112183213233948,0.46652549505233765,-0.8807799220085144,-0.03148499131202698,0.022030413150787354,-0.044406235218048096,-0.0803294121849695,0.061608586385928865,0.23625078223556714,-0.9664042874982682,-0.4853585173682362,0.09184316163226056,2.998481603143511
1780770683150865152,1.8140029907226562,-0.0343262143433094,-0.04060927778482437,-0.03626458719372749,0.08060820400714874,0.4665379822254181,-0.8808204531669617,-0.05363066494464874,0.02235361933708191,-0.02582627534866333,-0.0805001133384908,0.061386066584303914,0.23626581144650405,-0.9664005189195384,-0.48537262175183377,0.09126070905434075,2.9979863142751237
1780770683160899072,1.8240370750427246,-0.018818095326423645,-0.010050570592284203,-0.003405175171792507,0.08027569949626923,0.46681466698646545,-0.8807042241096497,-0.04539410024881363,0.058377593755722046,-0.03128308057785034,-0.08055360616890087,0.06124264695264359,0.23642596527591303,-0.9663660081926952,-0.485685466280012,0.09089826273675473,2.9977956581049643
1780770683170934016,1.8340718746185303,0.032159868627786636,0.004397877492010593,0.014136268757283688,0.08031325787305832,0.4667987823486328,-0.8807092308998108,-0.015600726008415222,-0.010499954223632812,0.03567749261856079,-0.08048664375028997,0.061244770942858184,0.23642011448414676,-0.9663729299053079,-0.4856674926430117,0.09094004192885942,2.9979439854807484
1780770683180967936,1.8441059589385986,0.1595066338777542,-0.0632605329155922,-0.058122217655181885,0.08001943677663803,0.4659479558467865,-0.8811863660812378,0.040265604853630066,-0.112813800573349,0.06874740123748779,-0.08057846949778949,0.06106956636060383,0.23596041996039122,-0.9664887241129874,-0.4847056722117883,0.0905603703019137,2.997634619411298
1780770683191003136,1.8541409969329834,0.35583963990211487,-0.12521204352378845,-0.0881914347410202,0.07870914787054062,0.4638999104499817,-0.8823841214179993,0.08510921150445938,-0.09939795732498169,-0.009797275066375732,-0.08092151050693534,0.06036658354715492,0.2348697640841019,-0.9667698143041625,-0.48239240904344827,0.08896508998037436,2.9964736769332343
1780770683201037056,1.8641748428344727,0.6319059133529663,-0.07748366892337799,-0.2716009318828583,0.07717950642108917,0.45953869819641113,-0.884797990322113,0.11184637248516083,0.023264646530151367,-0.17016416788101196,-0.08169292142506868,0.05952841016730384,0.2325023996919083,-0.9673289182035929,-0.47747572660439397,0.08700815944382766,2.9942769363786166
1780770683211072000,1.8742098808288574,0.6639969944953918,-0.29643332958221436,-0.28735488653182983,0.07388090342283249,0.45475253462791443,-0.8875481486320496,0.08491731435060501,0.08405056595802307,0.04265373945236206,-0.08325874629940305,0.05794389987574012,0.22993134969004095,-0.9679059871412232,-0.4720943343938079,0.08305010215783368,2.9899631488326976
1780770683221106176,1.8842439651489258,1.2036980390548706,-0.06264294683933258,-0.1252698302268982,0.07132886350154877,0.4457532465457916,-0.8923094868659973,-0.04821179807186127,0.12524589896202087,0.017675697803497314,-0.08410474693589316,0.05633965054391498,0.22510240713013507,-0.9690619827700168,-0.46201554046518245,0.07976774287013666,2.9872181207774235
1780770683231140096,1.8942780494689941,0.8422855138778687,0.21624913811683655,-0.17398011684417725,0.07153639197349548,0.4365309178829193,-0.8968407511711121,-0.23479017615318298,0.01848617196083069,-0.30616217851638794,-0.08526208677639764,0.05620876737549649,0.22004592134264916,-0.9701292550840744,-0.4517391911515948,0.07959635305171954,2.9845681028291464
1780770683241175040,1.9043128490447998,0.7140015363693237,0.22461706399917603,-0.13050374388694763,0.07293614000082016,0.42973172664642334,-0.900006115436554,-0.24894627928733826,-0.06976166367530823,-0.034808337688446045,-0.08649656756859735,0.05683103080959994,0.21625722691728663,-0.9708354018189035,-0.4441956450516996,0.08086289319773746,2.9821420951974975
1780770683251208960,1.9143469333648682,0.527402937412262,0.16781091690063477,-0.13223719596862793,0.07424759864807129,0.4242675304412842,-0.9024878740310669,-0.09493851661682129,-0.04441523551940918,-0.035042643547058105,-0.08750216577217439,0.057423376473540975,0.21321028281910576,-0.971384184231071,-0.43815285615063787,0.0820850512651371,2.9802038157860147
1780770683261244160,1.924381971359253,0.6636403799057007,0.025359753519296646,-0.17204585671424866,0.0745101273059845,0.41908377408981323,-0.9048850536346436,0.021620236337184906,0.04989507794380188,-0.01232069730758667,-0.08853392515360091,0.05749433220483298,0.2103612680911864,-0.971907472191593,-0.4324359675234249,0.08215674005033062,2.977963675164057
1780770683271278080,1.9344160556793213,0.8519229292869568,0.048297956585884094,-0.12254887074232101,0.07410302013158798,0.41228973865509033,-0.908034086227417,0.047768935561180115,0.09454619884490967,0.003416776657104492,-0.08950633496588369,0.057114925567291704,0.20669019229347854,-0.9726282652794539,-0.42496592919392745,0.08142774255966873,2.9756355911260974
1780770683281313024,1.944450855255127,0.9172159433364868,0.15904417634010315,-0.13745646178722382,0.07461133599281311,0.40417972207069397,-0.9116314649581909,-0.00928846001625061,0.05663570761680603,0.003504633903503418,-0.09046947651741578,0.05712258614917306,0.20229010145234735,-0.9734633898361171,-0.41608185423693195,0.08166173701741518,2.973501232139915
1780770683291346944,1.9544849395751953,0.8269898891448975,0.1588038206100464,-0.20418381690979004,0.07542802393436432,0.3962811827659607,-0.9150255918502808,-0.01752091944217682,-0.04838079214096069,0.01600825786590576,-0.09106463307010285,0.05721863804979667,0.19802330510978713,-0.974279251917431,-0.40746286007578264,0.08224673692713025,2.9721979386907424
1780770683301382144,1.96451997756958,0.8043444752693176,0.06492793560028076,-0.2167784422636032,0.07563560456037521,0.3890027403831482,-0.9181264042854309,0.05171424150466919,-0.07047554850578308,0.061848998069763184,-0.09178938900279326,0.05706169603329267,0.1941153186932464,-0.9750065763100614,-0.3995488228415924,0.082194778544742,2.970512680850783
1780770683311416064,1.9745540618896484,0.6897244453430176,0.018588930368423462,-0.21335893869400024,0.07513720542192459,0.3821999430656433,-0.9210198521614075,0.09142773598432541,-0.04067772626876831,0.11025935411453247,-0.09243858802566803,0.05655351032209658,0.1905039857017112,-0.9756869257255265,-0.39217582038525794,0.08140017300684259,2.968850377025771
1780770683321449984,1.9845879077911377,0.5184754729270935,0.039316046983003616,-0.19033858180046082,0.07462600618600845,0.37669652700424194,-0.9233258962631226,0.06595321744680405,-0.05455297231674194,0.10513436794281006,-0.0929815484866088,0.056089132191105194,0.18759282700532864,-0.9762260744659939,-0.38622753059326614,0.08064773697732766,2.967452681455347
1780770683331484928,1.9946229457855225,0.22985191643238068,0.039165180176496506,-0.16047123074531555,0.07436896860599518,0.37333476543426514,-0.9247109889984131,0.03221367299556732,-0.08901774883270264,0.13151335716247559,-0.0933438282980643,0.055838630977681894,0.18581321827387565,-0.9765461686261775,-0.3826010940006709,0.0802512872950308,2.966550550406346
1780770683341519104,2.004657030105591,0.0013460293412208557,-0.02056339755654335,-0.1584264487028122,0.07388695329427719,0.3724263906478882,-0.9251158237457275,0.03986731916666031,-0.09348046779632568,0.11937546730041504,-0.09352332452664447,0.05557637958878101,0.18534656963864427,-0.9766326139097603,-0.3816221188199355,0.079698613069251,2.9660553744256917
1780770683351553792,2.0146915912628174,-0.19034963846206665,-0.08070822060108185,-0.16740024089813232,0.07278668880462646,0.3734300136566162,-0.9247984290122986,0.056470513343811035,-0.04809737205505371,0.062463223934173584,-0.09365528105369544,0.05509808614296246,0.1859166145315391,-0.9765387390728132,-0.38270376998725625,0.07854354639067765,2.9655899818432894
1780770683361587712,2.0247256755828857,-0.14324043691158295,-0.11548405885696411,-0.10434803366661072,0.07131968438625336,0.37522077560424805,-0.9241876602172852,0.037658579647541046,0.034889668226242065,0.09409433603286743,-0.09358932274113892,0.05443980476274176,0.18692905799380843,-0.9763886338284758,-0.3846349500725678,0.07701748934361304,2.965475764910786
1780770683371622912,2.0347607135772705,-0.15345606207847595,-0.047046538442373276,-0.07468467950820923,0.07018423825502396,0.3765270411968231,-0.9237432479858398,-0.010858073830604553,0.01949957013130188,0.06551265716552734,-0.0932975085679337,0.05387939101266763,0.1876843089664866,-0.9763027565485983,-0.38604457515978685,0.07583238834037188,2.9658758361232023
1780770683381656832,2.044794797897339,-0.19896629452705383,0.018857110291719437,-0.08340040594339371,0.06983058899641037,0.3783537745475769,-0.9230233430862427,-0.05475491285324097,-0.030682265758514404,0.0026589632034301758,-0.0930249557949856,0.05374926509689247,0.18867788129562033,-0.9761444629695568,-0.3880172269599694,0.07551035548633142,2.9664128657834055
1780770683391691776,2.0548295974731445,-0.04629259556531906,-0.005309344734996557,-0.11492104828357697,0.06954476237297058,0.3795218765735626,-0.9225652813911438,-0.02158638834953308,-0.04088357090950012,-0.0206262469291687,-0.09290860801425914,0.05364665650797053,0.18931297743689746,-0.9760382358280012,-0.3892794587906475,0.07523964697398122,2.9666246620904584
1780770683401725696,2.064863681793213,-0.029111478477716446,-0.024640431627631187,-0.14375722408294678,0.06893068552017212,0.37991568446159363,-0.9224492311477661,0.03847591578960419,-0.019014835357666016,-0.03426152467727661,-0.09350225380479965,0.053471377847957025,0.18951565944274443,-0.9759517636617902,-0.3897051323467021,0.07458710048215685,2.965290059421868
1780770683411759872,2.0748977661132812,0.07162898033857346,-0.07891485840082169,-0.22916027903556824,0.06781435757875443,0.3799513578414917,-0.9225172996520996,0.06518124788999557,0.0196458101272583,-0.03559732437133789,-0.09381910568482908,0.05296668084975743,0.1895676049379975,-0.9759388830413596,-0.3897437195224367,0.07337814041135782,2.964406742364771
1780770683421794816,2.084932804107666,0.2652812600135803,-0.13455814123153687,-0.27563750743865967,0.0658222958445549,0.3785487413406372,-0.9232379198074341,0.0632060244679451,0.009131282567977905,-0.05532342195510864,-0.09444937085002389,0.051995833216983645,0.18888477755859584,-0.9760627245634252,-0.3882278362747293,0.07117461640121349,2.962659852466899
1780770683431828736,2.0949666500091553,0.3626301884651184,-0.0734240785241127,-0.32873159646987915,0.06369299441576004,0.37583088874816895,-0.9244968295097351,0.022458121180534363,0.003411024808883667,-0.09146386384963989,-0.09535521676521236,0.050933165961823304,0.1875030980207575,-0.9762969694647847,-0.38529324422861655,0.06878607609772835,2.9602925719253905
1780770683441863680,2.10500168800354,0.3862827718257904,-0.051544081419706345,-0.38358181715011597,0.061852578073740005,0.3725360929965973,-0.9259541630744934,-0.020897988229990005,0.01500663161277771,-0.07674664258956909,-0.09662947715397217,0.050052999165979155,0.18578916661870332,-0.9765448540740455,-0.38174034042769006,0.06669965790954673,2.9572265040632693
1780770683451897856,2.1150357723236084,0.5446538329124451,-0.10382632911205292,-0.3832683563232422,0.05970212072134018,0.36853912472724915,-0.9276931285858154,-0.00811215490102768,0.038992613554000854,-0.06341099739074707,-0.09807608514576922,0.04900398254458853,0.18371728367590046,-0.9768457514354909,-0.3774370508827056,0.0642668365623378,2.9537402098632923
1780770683461932800,2.125070810317993,0.5668520331382751,-0.11513198167085648,-0.3869413733482361,0.057237327098846436,0.36338451504707336,-0.929879367351532,0.007215801626443863,0.06874439120292664,-0.04302102327346802,-0.09947506797074765,0.04771472368296089,0.18106251137640902,-0.9772637289465799,-0.3718981760135996,0.06147593557703719,2.9502811693902595
1780770683471966720,2.1351046562194824,0.5334429740905762,-0.143380805850029,-0.3757459819316864,0.05467493459582329,0.3586644232273102,-0.9318640232086182,0.00990026444196701,0.11199292540550232,-0.037633657455444336,-0.10089143178845249,0.04639964510682402,0.17864790308636758,-0.9776262404709171,-0.36683671332348783,0.05860546810295593,2.9467944655669913
1780770683482001664,2.145139694213867,0.7111170887947083,-0.17003397643566132,-0.32507428526878357,0.05185635760426521,0.3529398739337921,-0.9342078566551208,0.0068899765610694885,0.093486487865448,0.012104034423828125,-0.10204923583239538,0.04484431218521286,0.17574142729932546,-0.9781052623306945,-0.36071134036605923,0.05545146717183997,2.943791072290576
1780770683492035840,2.1551737785339355,0.6230162382125854,-0.12458779662847519,-0.3812376856803894,0.04927820339798927,0.3467753231525421,-0.9366528391838074,-0.0028609633445739746,0.032008856534957886,-0.04001647233963013,-0.10328756898866859,0.04339509204679875,0.17259908653291603,-0.9786001164021713,-0.35413089357080746,0.0525624984326841,2.940686436737685
1780770683502069760,2.165207624435425,0.6533493995666504,-0.21216639876365662,-0.3682044446468353,0.04648048058152199,0.3410896360874176,-0.9388809204101562,-0.010118786245584488,0.01292949914932251,0.07697302103042603,-0.10462814576157035,0.04187632540472469,0.16972301773776938,-0.9790267828572493,-0.3480758125766746,0.04946586960712387,2.9373603911833324
1780770683512104704,2.1752426624298096,0.6583532094955444,-0.18337175250053406,-0.3600650429725647,0.04330065846443176,0.3348535895347595,-0.9412747025489807,-0.0017204582691192627,-0.06002753973007202,0.08762180805206299,-0.10585376867128178,0.04010703687386257,0.16659549733757542,-0.9795061874163719,-0.34144985941805395,0.04596973879785263,2.9342178947115896
1780770683522138880,2.185276746749878,0.4408509433269501,-0.09435640275478363,-0.39482781291007996,0.040772680193185806,0.3298306465148926,-0.9431592226028442,-0.02856564149260521,-0.11893892288208008,0.05174076557159424,-0.10718345090317566,0.038752963097676264,0.1640688422258641,-0.979842599248957,-0.3361241643159811,0.04320299931012586,2.931013255964468
1780770683532173824,2.1953117847442627,0.27984529733657837,-0.07047796249389648,-0.42935383319854736,0.038680192083120346,0.32660096883773804,-0.9443705081939697,-0.004805680364370346,-0.11139100790023804,0.10364174842834473,-0.1087264368044772,0.03775825337214066,0.16244710525235642,-0.9799815257998922,-0.33270508520608866,0.040935822383319644,2.927475802223395
1780770683542207744,2.205345630645752,-0.00826185755431652,-0.17450076341629028,-0.46097034215927124,0.036134976893663406,0.32526737451553345,-0.9449314475059509,0.09238980710506439,-0.12989383935928345,0.12075847387313843,-0.11033650229730263,0.03665894988585835,0.1618345063960019,-0.9799446672148279,-0.33129445271111624,0.03822222263836809,2.923738555199043
1780770683552242688,2.2153806686401367,-0.19263169169425964,-0.33917468786239624,-0.5204275250434875,0.032138798385858536,0.326657235622406,-0.9445962905883789,0.17098620533943176,-0.189755380153656,0.1338663101196289,-0.11206409982525958,0.03501587265350631,0.16271367531220107,-0.9796631511261601,-0.33276461362542775,0.03401072432839605,2.9195140319178283
1780770683562276864,2.225414752960205,-0.39017513394355774,-0.45942065119743347,-0.5253839492797852,0.026570569723844528,0.3293018639087677,-0.9438507556915283,0.13854478299617767,-0.2776966691017151,0.1188843846321106,-0.11377891028775064,0.032660688600175077,0.16434077385611132,-0.9792751082043123,-0.33556409356541655,0.028143807615241816,2.915023301413061
1780770683572311808,2.23544979095459,-0.543596088886261,-0.3874913454055786,-0.4999336898326874,0.020743414759635925,0.3341163098812103,-0.9423035383224487,0.022454217076301575,-0.21087110042572021,0.165127694606781,-0.11538577531825078,0.03030096880186869,0.16712291624658668,-0.9786919485718356,-0.3406675001286504,0.022009960392551705,2.9106661217771372
1780770683582345728,2.245483636856079,-0.535596489906311,-0.22543078660964966,-0.48125216364860535,0.01628967933356762,0.33918848633766174,-0.9405773878097534,-0.05684753879904747,-0.011155039072036743,0.019831538200378418,-0.11696097923699196,0.028653410051314988,0.16997143548619165,-0.9780638679605123,-0.34605412578456196,0.017317076655862056,2.90658133504806
1780770683592379904,2.2555177211761475,-0.6540797352790833,-0.264548659324646,-0.5353150963783264,0.012413645163178444,0.3448406159877777,-0.9385792016983032,0.00272307638078928,0.10533943772315979,-0.014500021934509277,-0.1186673276711435,0.027367337085070793,0.17309373335634948,-0.9773473111033859,-0.352068971197182,0.013225225568207967,2.9022924975930615
1780770683602414848,2.2655527591705322,-0.785907506942749,-0.5403328537940979,-0.5448138117790222,0.006771574262529612,0.35166797041893005,-0.9361003041267395,0.15716885030269623,0.13791027665138245,0.0843852162361145,-0.12040515826325243,0.02528540321225305,0.17694771205472115,-0.9765003214863809,-0.3593523024717923,0.007233686380982663,2.897539598185307
1780770683612448768,2.2755866050720215,-0.7951886653900146,-0.6742238998413086,-0.5334082841873169,-0.0010050267446786165,0.35929185152053833,-0.9332247376441956,0.23313698172569275,0.07387465238571167,0.02608966827392578,-0.12189222610591403,0.022146623132678126,0.1813757780141163,-0.9755791585645497,-0.3675089733867293,-0.0010769393141387988,2.8927938889994596
1780770683622483712,2.2856216430664062,-0.6080501675605774,-0.574297308921814,-0.5285922288894653,-0.008875899016857147,0.3657139241695404,-0.9306849837303162,0.16242508590221405,-0.0633152425289154,-0.012476027011871338,-0.12337794690028997,0.01888932386506749,0.1852044967595865,-0.9747411336788869,-0.3743997589454969,-0.00953666424775364,2.887975100596811
1780770683632517888,2.2956557273864746,-0.6076205968856812,-0.37453120946884155,-0.5014104247093201,-0.015153223648667336,0.3713359236717224,-0.9283749461174011,0.08377199620008469,-0.12031358480453491,0.04426544904708862,-0.12489216789363675,0.016396387920057275,0.18853035491458955,-0.9739555441958025,-0.3804474138593111,-0.01632086101142989,2.8833781826572853
1780770683642552832,2.3056907653808594,-0.5669927597045898,-0.32077687978744507,-0.5555466413497925,-0.020264362916350365,0.3766259253025055,-0.9261437654495239,0.13595649600028992,-0.0992821753025055,-0.040103793144226074,-0.12663997950866784,0.014524094935974655,0.19161724276659797,-0.9731568522303763,-0.3861513184923502,-0.02187687289443059,2.8785034304045665
1780770683652586752,2.3157246112823486,-0.6473637819290161,-0.40428856015205383,-0.6126556992530823,-0.025782659649848938,0.3821663558483124,-0.9237338304519653,0.26011189818382263,-0.04877707362174988,-0.09178435802459717,-0.12860112116085953,0.012516830107991393,0.19487540523391703,-0.9722802053662595,-0.39213946582074005,-0.027904106636495053,2.873041554751077
1780770683662621696,2.3257596492767334,-0.6346604824066162,-0.502280056476593,-0.6870439052581787,-0.032468583434820175,0.3879336714744568,-0.9211152195930481,0.381574422121048,0.07297331094741821,-0.1255461573600769,-0.1308237026863929,0.010001410693474159,0.19834907432342017,-0.9713099043762529,-0.3983886480692857,-0.03523461940860076,2.866714708000941
1780770683672655872,2.3357937335968018,-0.6056277751922607,-0.6326507329940796,-0.7171608209609985,-0.040450941771268845,0.3933710753917694,-0.9184895157814026,0.42727649211883545,0.1085209846496582,-0.04318040609359741,-0.13317598638259626,0.006847818970503986,0.20176313889081754,-0.9703138694192222,-0.4042954119980298,-0.04401228423293859,2.8597746968555082
1780770683682689792,2.34582781791687,-0.5788866877555847,-0.7452654242515564,-0.759264349937439,-0.04970221966505051,0.3985960781574249,-0.9157788157463074,0.4329267144203186,0.07927867770195007,0.018119513988494873,-0.13558908624211916,0.0030639651612228667,0.20518577695426723,-0.9692806637850429,-0.4099855686419428,-0.05421997556252345,2.852348103956661
1780770683692724736,2.355862617492676,-0.5464102625846863,-0.7939439415931702,-0.747826337814331,-0.05979566276073456,0.4031270146369934,-0.9131883978843689,0.39771682024002075,0.008463561534881592,-0.0012097358703613281,-0.13801743958864704,-0.00118114189350359,0.20833720979771245,-0.9682693139471484,-0.4149312531200912,-0.06538674850639634,2.8446512936941364
1780770683702758912,2.365896701812744,-0.7318501472473145,-0.7719637751579285,-0.8094819784164429,-0.06997408717870712,0.4085511267185211,-0.9100492000579834,0.3511020243167877,-0.090176522731781,0.004699528217315674,-0.140522306893576,-0.005372237032961238,0.2120059610351388,-0.9670977511887484,-0.4208661127899954,-0.07673945166585293,2.836607234477524
1780770683712793856,2.375931739807129,-0.78792405128479,-0.7865679860115051,-0.8666917085647583,-0.08051253110170364,0.4147707223892212,-0.9063569903373718,0.34970808029174805,-0.1299959421157837,-0.002425968647003174,-0.14335555764018307,-0.00959599912812368,0.21616989771873693,-0.9657264807817769,-0.42769080045432095,-0.08859837657945643,2.82760592034733
1780770683722828032,2.3859658241271973,-1.0216097831726074,-0.8395662307739258,-0.9058138132095337,-0.09159086644649506,0.4221438467502594,-0.9018900394439697,0.37514495849609375,-0.10321992635726929,0.0332682728767395,-0.146414606658416,-0.01393120844819918,0.22104501228153206,-0.9641097786718503,-0.43580892242474273,-0.10120738370381387,2.817738078612726
1780770683732862720,2.396000623703003,-1.0284346342086792,-0.9369692206382751,-0.9685062170028687,-0.10356215387582779,0.43069252371788025,-0.8965371251106262,0.4051215946674347,0.01695457100868225,0.04773646593093872,-0.14961814198773413,-0.01856594389950759,0.22668643895824636,-0.9622280839706129,-0.44525996350028324,-0.11500380723924065,2.80701833372508
1780770683742896896,2.4060347080230713,-0.8206146359443665,-0.9674477577209473,-0.9962108135223389,-0.11646174639463425,0.4379144608974457,-0.891441285610199,0.40799617767333984,0.08483636379241943,-0.03099822998046875,-0.15297564581952164,-0.023715584470878435,0.23176911586262064,-0.9603744425302045,-0.45327755470126163,-0.12990856468286535,2.795674746877764
1780770683752931840,2.416069746017456,-0.7048675417900085,-0.9325820803642273,-1.030197024345398,-0.12933193147182465,0.4434487819671631,-0.8869196176528931,0.38107144832611084,0.10069489479064941,-0.09513604640960693,-0.15650237611588277,-0.028925647199246278,0.23601587421721187,-0.9586275528551701,-0.4594428192054644,-0.14480089415408162,2.784016872082068
1780770683762965760,2.4261035919189453,-0.4424617886543274,-0.9744395017623901,-1.0193651914596558,-0.14237737655639648,0.4471825361251831,-0.8830382227897644,0.365964412689209,0.0734778642654419,-0.044406235218048096,-0.1600949621907515,-0.034341541596996955,0.23937743440593576,-0.9570207516412218,-0.463612875670501,-0.15985999041821458,2.7722817453357758
1780770683773000704,2.43613862991333,-0.5085832476615906,-0.9515346884727478,-1.0257642269134521,-0.15546520054340363,0.44953498244285583,-0.8796299695968628,0.37047678232192993,-0.047923654317855835,-0.04213821887969971,-0.1639046182577628,-0.03982895478341685,0.24207162008012234,-0.9554843156211135,-0.46624467731129937,-0.17493279542101242,2.760181766614322
1780770683783034880,2.4461727142333984,-0.7389909029006958,-1.0010015964508057,-1.033252477645874,-0.16859453916549683,0.45351263880729675,-0.8751583695411682,0.3689729571342468,-0.08276984095573425,-0.026346147060394287,-0.16780655134313932,-0.045156350008021484,0.24572691930422338,-0.9536352166467,-0.4707026400529001,-0.1903131720041847,2.7474622654178718
1780770683793068800,2.456206798553467,-0.8128336668014526,-1.0245078802108765,-1.000164270401001,-0.18216904997825623,0.4584408402442932,-0.8698542714118958,0.3449345529079437,-0.03253751993179321,0.03432875871658325,-0.17156898386163988,-0.050641872233510826,0.25001653181049566,-0.9515730360585857,-0.4762400147291578,-0.20644121277535726,2.734548327362441
1780770683803103744,2.4662415981292725,-1.014380931854248,-0.9783491492271423,-1.0190799236297607,-0.19546282291412354,0.4643658399581909,-0.8638047575950623,0.26724016666412354,-0.007349848747253418,0.043339669704437256,-0.17534143108759953,-0.05586903853388094,0.25490444370057913,-0.9492933078644558,-0.48291844449745136,-0.22253363048086863,2.7212797460643623
1780770683813137664,2.476275682449341,-1.3347687721252441,-0.922288179397583,-1.0279042720794678,-0.20844900608062744,0.47256720066070557,-0.8562880754470825,0.21487295627593994,0.048383116722106934,0.06258690357208252,-0.1793360433016133,-0.060638168018736435,0.2611110430186917,-0.9465635774082477,-0.49220148387317203,-0.23878872592663355,2.7068606421389645
1780770683823172864,2.4863107204437256,-1.3316733837127686,-0.9221038818359375,-1.028035283088684,-0.22123052179813385,0.4817691743373871,-0.8479124307632446,0.22770024836063385,0.08114281296730042,0.09766829013824463,-0.1833911478668779,-0.06515147477450886,0.2679534663443026,-0.9435697931874898,-0.5026725262884046,-0.2552221006774018,2.691795048491763
1780770683833206784,2.496344804763794,-1.2404636144638062,-0.7952115535736084,-1.0464202165603638,-0.23348276317119598,0.4903777539730072,-0.8396520018577576,0.24645274877548218,0.013955742120742798,0.06001943349838257,-0.18756321184745425,-0.06937553916453726,0.274519658775826,-0.9405562398523551,-0.5125231525645725,-0.2712189411309636,2.676448302770712
1780770683843241728,2.5063796043395996,-1.084010124206543,-0.7563115954399109,-0.9952989816665649,-0.24502669274806976,0.49763748049736023,-0.832056999206543,0.26120102405548096,-0.01776382327079773,0.012705802917480469,-0.1917160314238987,-0.07333583219086333,0.2803450659667746,-0.9376958039407243,-0.5208729078373187,-0.2863877279056351,2.6614354154360504
1780770683853275648,2.516413688659668,-1.056087851524353,-0.7758113741874695,-0.9497746229171753,-0.25617673993110657,0.5040671229362488,-0.8247967958450317,0.28146058320999146,-0.025307416915893555,-0.015733540058135986,-0.19559379445495098,-0.07722580636900316,0.2857232351236762,-0.9349552994942317,-0.5283014928753338,-0.301147273842691,2.647111763890541
1780770683863310848,2.5264487266540527,-1.0664952993392944,-0.7966780662536621,-0.9120789170265198,-0.2673513889312744,0.5103715062141418,-0.8173396587371826,0.2625449001789093,-0.05866563320159912,-0.024151980876922607,-0.1992353650798765,-0.08118338471566208,0.2911003870127791,-0.9321882701501552,-0.5356167694535048,-0.316129643075378,2.633051169381311
1780770683873345024,2.536482810974121,-1.033141851425171,-0.8213036060333252,-0.8860382437705994,-0.27856722474098206,0.5165449976921082,-0.8096798658370972,0.21629613637924194,-0.08913111686706543,0.030108392238616943,-0.20266988854545895,-0.08521360165204898,0.2964771576013347,-0.9293894500435075,-0.5428110540786568,-0.3313608912182,2.6191850716135296
1780770683883379712,2.5465176105499268,-1.0835107564926147,-0.7684377431869507,-0.8443989157676697,-0.28947919607162476,0.5226956605911255,-0.8018672466278076,0.15382859110832214,0.009164690971374512,0.03502154350280762,-0.2059667994531473,-0.08910843429479819,0.3018709293935108,-0.9265589220887315,-0.5500098753293289,-0.34644622508546763,2.6054608903383656
1780770683893413888,2.556551694869995,-0.9025704860687256,-0.6895685195922852,-0.8362768292427063,-0.2997620403766632,0.5280717015266418,-0.7945331931114197,0.1073792576789856,0.16844618320465088,-0.03198963403701782,-0.2091763004776833,-0.09276908089134235,0.30680174895895534,-0.9238570443035449,-0.5563282645781398,-0.3607687062794394,2.592206411830567
1780770683903447808,2.5665857791900635,-0.9607357978820801,-0.6696432828903198,-0.8007941842079163,-0.30941537022590637,0.5329975485801697,-0.7875123620033264,0.09184029698371887,0.14652210474014282,-0.02599465847015381,-0.21238987779051183,-0.0961315907738125,0.31145228081306625,-0.9212202675385328,-0.5621393465614859,-0.37437266314854334,2.579148351642287
1780770683913483008,2.5766208171844482,-0.8726480007171631,-0.6413772702217102,-0.7474308609962463,-0.31868529319763184,0.5378463268280029,-0.780487596988678,0.09895876049995422,0.0656844973564148,0.018341660499572754,-0.2153541434541312,-0.0993682279546312,0.3160413713993323,-0.9186219353235525,-0.5678804102945959,-0.3876544199747949,2.566605195439776
1780770683923516672,2.5866546630859375,-0.8196284770965576,-0.6200874447822571,-0.7023562788963318,-0.3275361955165863,0.5420873165130615,-0.7738613486289978,0.0803285539150238,-0.0045506954193115234,0.0355800986289978,-0.218133513444806,-0.10250408743707907,0.32025339387693547,-0.9161596022944858,-0.5729190419565056,-0.4003867765421234,2.55470815146966
1780770683933551872,2.5966897010803223,-0.6953544616699219,-0.47265055775642395,-0.6324925422668457,-0.33535733819007874,0.5458745956420898,-0.767825722694397,0.059951454401016235,-0.0032262802124023438,0.008197426795959473,-0.22069026362666813,-0.10522136766631016,0.3240611117901462,-0.9138974295560921,-0.5774325673530581,-0.4117911029208752,2.5437922762864225
1780770683943585792,2.6067237854003906,-0.566757321357727,-0.46822652220726013,-0.6008078455924988,-0.3422584533691406,0.548525869846344,-0.7628751993179321,0.09463885426521301,0.007122933864593506,-0.03959977626800537,-0.2230915046984422,-0.10763890258032383,0.3270722729728494,-0.9119582805503704,-0.5806002035119329,-0.42172471194296557,2.5340450831165517
1780770683953620992,2.6167588233947754,-0.4582042694091797,-0.5028943419456482,-0.5373963713645935,-0.3490368127822876,0.5504910945892334,-0.7583751082420349,0.14984861016273499,0.0456392765045166,0.009962081909179688,-0.225186097297412,-0.11017739942251013,0.3296564475541422,-0.9102081245451212,-0.5829523994124891,-0.4313392605157492,2.5252646320673713
1780770683963654656,2.6267926692962646,-0.40248027443885803,-0.4827856421470642,-0.5128300189971924,-0.35569289326667786,0.5518179535865784,-0.7543072700500488,0.13971999287605286,0.044693827629089355,-0.019252240657806396,-0.22694841200557458,-0.11284611483219127,0.33183146457611185,-0.9086517370367441,-0.5845425947065165,-0.4406289176168511,2.5175155768826474
1780770683973689856,2.6368277072906494,-0.39264869689941406,-0.3994876742362976,-0.47594210505485535,-0.3616786301136017,0.5531675219535828,-0.7504627704620361,0.06854203343391418,-0.016363322734832764,0.03821301460266113,-0.22872073723240235,-0.11515543494612247,0.3339279184878985,-0.9071484185814588,-0.5861616538639999,-0.44909616070370006,2.509993826031131
1780770683983723776,2.6468617916107178,-0.3277972638607025,-0.36723119020462036,-0.45083966851234436,-0.367083340883255,0.554122805595398,-0.7471262812614441,0.03670006990432739,-0.040161073207855225,0.06460070610046387,-0.23038066643575472,-0.11724842183324616,0.3356928062725015,-0.9058078496972874,-0.5873088427381292,-0.456685194544371,2.503158575687771
1780770683993758720,2.6568965911865234,-0.41033634543418884,-0.32670122385025024,-0.4217555522918701,-0.37208542227745056,0.5551443099975586,-0.7438865303993225,0.02864059805870056,-0.0653219223022461,-0.0033974051475524902,-0.23196442416634439,-0.11914807921003867,0.3374321724890671,-0.9045085455405774,-0.588536488094146,-0.4638004879899068,2.496611839594617
1780770684003792640,2.666930675506592,-0.33287349343299866,-0.2633984088897705,-0.4046647250652313,-0.37657007575035095,0.5564464330673218,-0.740649938583374,0.011320441961288452,-0.07217824459075928,0.03828787803649902,-0.2335511739632243,-0.12073718508772346,0.33926032287465135,-0.9032047158100935,-0.5901027803872579,-0.47037038713133694,2.490121748557463
1780770684013827840,2.6769657135009766,-0.31991881132125854,-0.22764775156974792,-0.3586660623550415,-0.3804861009120941,0.5574566125869751,-0.7378836870193481,0.020470261573791504,-0.03250855207443237,0.05499190092086792,-0.23508572777796763,-0.12208162811476662,0.34081406266072595,-0.9020401466808392,-0.5913191059691181,-0.47608519609627653,2.4841598258143844
1780770684023861760,2.686999797821045,-0.21938474476337433,-0.2946811020374298,-0.30401375889778137,-0.38421332836151123,0.5580462217330933,-0.7355029582977295,0.05289924144744873,0.03646671772003174,0.011763334274291992,-0.23625228301134005,-0.12351773021802816,0.3420407945060725,-0.9010750990535296,-0.5920294084039966,-0.4813923004040609,2.4793209793907294
1780770684033895680,2.697033643722534,-0.27586987614631653,-0.3031925559043884,-0.28804701566696167,-0.38802796602249146,0.5587963461875916,-0.7329263091087341,0.05027469992637634,0.015956401824951172,-0.006926596164703369,-0.23726655187405216,-0.12503569905839182,0.34336996279978294,-0.9000931484252901,-0.5929336608442488,-0.4869079366261768,2.474659078289512
1780770684043930880,2.707068681716919,-0.12560632824897766,-0.2947050631046295,-0.15325379371643066,-0.39147618412971497,0.5594683289527893,-0.73057621717453,0.043789416551589966,0.0024365782737731934,0.13415592908859253,-0.23785057442141969,-0.12653540730703194,0.34452964914469514,-0.8992859710686788,-0.5937441971576298,-0.4919113392345544,2.471167129523027
1780770684053964800,2.7171027660369873,-0.1568412035703659,-0.2811722159385681,-0.09220721572637558,-0.3941749334335327,0.559985339641571,-0.7287266850471497,0.047449469566345215,0.011593639850616455,0.10606122016906738,-0.2379846611725613,-0.12783475570114938,0.3453909934838176,-0.8987361389332214,-0.5943680736590143,-0.49583691256333146,2.469144470916789
1780770684064000000,2.727137804031372,-0.2001948058605194,-0.3464316427707672,0.01126111950725317,-0.39667779207229614,0.5611144304275513,-0.7264966368675232,0.030085384845733643,0.06834113597869873,0.05895519256591797,-0.23773628915353498,-0.1291003617595324,0.3465324884418962,-0.8981814243257024,-0.5957315134243922,-0.4997782597548437,2.467700054119144
1780770684074033664,2.7371716499328613,-0.30741608142852783,-0.254804790019989,0.14104999601840973,-0.3984014391899109,0.5631692409515381,-0.7239590287208557,-0.0430048406124115,0.038103342056274414,0.06506925821304321,-0.23703408074160423,-0.13001405985434325,0.3480184408211978,-0.8976604667560324,-0.598216107491249,-0.5030806942326238,2.467106780834246
1780770684084068864,2.747206687927246,-0.3605418801307678,-0.23652565479278564,0.21830937266349792,-0.39899390935897827,0.5663676857948303,-0.7211321592330933,-0.12877708673477173,-0.13158375024795532,0.01831233501434326,-0.2360164672984865,-0.13031059522538213,0.34993295579779365,-0.8971412417705187,-0.6020918078689135,-0.5053642232235294,2.467106638242493
1780770684094102784,2.7572407722473145,-0.3786678910255432,-0.19900718331336975,0.26037079095840454,-0.39925336837768555,0.5702256560325623,-0.717941164970398,-0.11649370193481445,-0.16457074880599976,0.06819140911102295,-0.23478414698718117,-0.1304356157409262,0.3521590201002798,-0.8965751831171809,-0.606780508980697,-0.5075211581475673,2.467332100114743
1780770684104137984,2.767275810241699,-0.0705457329750061,-0.11645503342151642,0.28690388798713684,-0.39871421456336975,0.5729383826255798,-0.7160786390304565,-0.08231911063194275,0.07185226678848267,0.03234755992889404,-0.23341840939909247,-0.13034251160258248,0.353513114341151,-0.8964123805742427,-0.6100865290386692,-0.5080507010122866,2.468983046512315
1780770684114171648,2.7773096561431885,0.12666800618171692,-0.09513311088085175,0.3388485610485077,-0.3976718485355377,0.5737782120704651,-0.7159857749938965,-0.03297695517539978,0.1596049666404724,0.012235164642333984,-0.23178322065992815,-0.1303298754172771,0.3535834403191063,-0.896810623248939,-0.6111115849879186,-0.5069938954941656,2.4726790982603197
1780770684124206848,2.7873446941375732,0.2127821147441864,-0.1726641058921814,0.3987521231174469,-0.3962669372558594,0.5739592909812927,-0.7166193723678589,-0.057285308837890625,0.036819517612457275,0.04279124736785889,-0.2298178650561242,-0.13033794189951894,0.3531321918611069,-0.8974929209102513,-0.6113327166527972,-0.5051183692143467,2.4777203883227226
1780770684134240768,2.7973787784576416,0.633277177810669,0.24261191487312317,0.49036937952041626,-0.3938344419002533,0.5730329751968384,-0.7186986207962036,-0.1559092104434967,-0.07300245761871338,-0.1380823850631714,-0.2275590747197511,-0.1300514367510442,0.35176316312038514,-0.8986469172785363,-0.6102019728664262,-0.5012931491183832,2.4846535828570397
1780770684144275968,2.8074138164520264,-0.2514849007129669,0.2303704172372818,0.48153913021087646,-0.38874828815460205,0.5735327005386353,-0.7210651636123657,-0.17883285880088806,-0.16749632358551025,0.05092966556549072,-0.22578292176469322,-0.12799246742985415,0.35083519549404674,-0.8997525972027668,-0.6108118837767882,-0.49445989338567364,2.4910592557257383
1780770684154309632,2.8174476623535156,0.7725932598114014,-0.021565813571214676,0.5613410472869873,-0.3852033019065857,0.5734212398529053,-0.7230536341667175,-0.03299430012702942,-0.012096166610717773,0.044037461280822754,-0.22311959369345352,-0.12716643570359928,0.34971687290394005,-0.9009686264990603,-0.6106757596996069,-0.48949929220524585,2.498952465686068
1780770684164343808,2.827481746673584,-0.24288980662822723,0.3407817482948303,0.28661707043647766,-0.38157564401626587,0.5734641551971436,-0.7249405980110168,-0.15683072805404663,-0.14933085441589355,-0.27118366956710815,-0.22166281905077553,-0.12580656216424968,0.3488587185782528,-0.9018513758685279,-0.6107281760416823,-0.4845081402223511,2.504100656855769
1780770684174378752,2.8375167846679688,0.836365818977356,0.3526999354362488,0.5593809485435486,-0.3765260875225067,0.5726163983345032,-0.7282435297966003,-0.3176724910736084,0.02023327350616455,0.21783703565597534,-0.21992911076416638,-0.12390599597077814,0.34716790129924946,-0.9031904727657551,-0.6096937435939084,-0.47718114679598367,2.5111195593190327
1780770684184412672,2.847550630569458,0.21014532446861267,0.45435547828674316,0.41140106320381165,-0.3705742061138153,0.5716259479522705,-0.7320646047592163,-0.3000190556049347,-0.022401094436645508,-0.008612275123596191,-0.2184561630596042,-0.12144342207778104,0.3452813305224533,-0.9046045021407039,-0.6084861307060443,-0.4685986729099067,2.5180701581379927
1780770684194447872,2.8575856685638428,1.1789772510528564,0.3924024701118469,0.5964614748954773,-0.3651181161403656,0.5677484273910522,-0.7378011345863342,-0.333307147026062,0.030151963233947754,0.06176048517227173,-0.21619699025105207,-0.11987452139513026,0.3416570290059292,-0.9067301531456404,-0.6037681417758555,-0.4595378883897813,2.5280450151491927
1780770684204481792,2.867619752883911,0.4434262216091156,1.0639762878417969,0.5971262454986572,-0.3558775782585144,0.563420832157135,-0.745592474937439,-0.3644440770149231,-0.2267661690711975,-0.08213579654693604,-0.2141741027470923,-0.11626353734539857,0.33717436963031266,-0.9093545462689714,-0.5985205513349477,-0.44533014203759413,2.5394912581278435
1780770684214516992,2.877654790878296,1.038260817527771,0.7429995536804199,0.6870795488357544,-0.34506121277809143,0.5611196160316467,-0.7523812055587769,-0.23092752695083618,-0.066475510597229,0.21318143606185913,-0.21258377437821657,-0.11143117528318999,0.333755124398362,-0.9115912611215189,-0.595737775852561,-0.4300037051824524,2.549495706940896
1780770684224550656,2.887688636779785,0.047319911420345306,0.6129360795021057,0.4778120517730713,-0.33666524291038513,0.5577971339225769,-0.7586296200752258,0.10447227954864502,0.00960087776184082,-0.26190871000289917,-0.21048546287818867,-0.10817108364562193,0.3301275795936929,-0.913789202948108,-0.5917293221855685,-0.4176700163664563,2.559788583755019
1780770684234585856,2.89772367477417,0.25564461946487427,0.34392988681793213,0.4551791846752167,-0.3303156793117523,0.5596060752868652,-0.7600873112678528,0.01233777403831482,-0.11273717880249023,0.05436825752258301,-0.20928487869912205,-0.10507691462283415,0.33002303142605705,-0.914463556463943,-0.5939103759360965,-0.40995355245220844,2.5645575989333
1780770684244619776,2.9077577590942383,-0.12852860987186432,0.47745999693870544,0.46588027477264404,-0.32521146535873413,0.5599167346954346,-0.7620569467544556,-0.23223787546157837,-0.31248021125793457,0.13295233249664307,-0.20758577358813152,-0.10298429493058421,0.3291895640101783,-0.9153887832189703,-0.5942852833081135,-0.4033560659638706,2.570539280975236
1780770684254654976,2.917792797088623,0.45501017570495605,0.8290873765945435,0.6101887822151184,-0.31717100739479065,0.5600067973136902,-0.7653723955154419,-0.5881329774856567,-0.3788086771965027,0.0798712968826294,-0.20602381433380754,-0.09933251773766728,0.32779085942893527,-0.9166462339710914,-0.5943939899193489,-0.3928589611825026,2.5776827236039264
1780770684264688640,2.9278266429901123,-0.15932407975196838,1.0942330360412598,0.7076524496078491,-0.3059004545211792,0.5618448853492737,-0.7686060070991516,-0.7183762788772583,-0.3817911744117737,0.09404551982879639,-0.20471540164332055,-0.09371415729699582,0.3269780443346361,-0.9178205853793637,-0.5966142923920869,-0.37877571452042347,2.5849433168036478
1780770684274723840,2.937861680984497,0.09288234263658524,1.1279828548431396,0.536845326423645,-0.29341769218444824,0.5629386901855469,-0.7726616859436035,-0.5302517414093018,-0.003582000732421875,-0.031995296478271484,-0.2034530724711124,-0.08754033109349921,0.32558538802095843,-0.9192048962422142,-0.5979370741636132,-0.36292788048220614,2.5929636440107546
1780770684284757760,2.9478957653045654,0.3188299834728241,0.8878525495529175,0.5508407354354858,-0.2828730642795563,0.5648228526115417,-0.7752147912979126,-0.2378331422805786,0.25568801164627075,-0.2190021276473999,-0.20268987266337357,-0.08211875618095094,0.3250371071471285,-0.920067455645044,-0.6002185631500331,-0.3498833955979135,2.598638885362867
1780770684294791680,2.9579296112060547,-0.06638241559267044,0.7793283462524414,0.4663758873939514,-0.27341020107269287,0.5627496838569641,-0.7801023721694946,-0.04591044783592224,0.2132512927055359,-0.010760664939880371,-0.20140339963485995,-0.077892213913248,0.3223067150684163,-0.9216767024196444,-0.5977084167958927,-0.33710229896540206,2.60656543231174
1780770684304826624,2.9679646492004395,0.08512774854898453,0.3688446581363678,0.47547218203544617,-0.2661064565181732,0.5659729242324829,-0.7802960872650146,-0.12268748879432678,0.05753171443939209,0.25151801109313965,-0.20037925958195862,-0.07410466262972117,0.3230487045590034,-0.9219523314841418,-0.6016129189900303,-0.3286638812799696,2.6107694170073543
1780770684314860800,2.977998733520508,-0.2352593094110489,0.33751869201660156,0.378346711397171,-0.26133105158805847,0.5662179589271545,-0.7817310094833374,-0.23938611149787903,-0.06057220697402954,-0.2392040491104126,-0.19873054375110868,-0.07217972041971507,0.32237337911190816,-0.9226981040272269,-0.6019101791822113,-0.32261844712898397,2.6163872389902014
1780770684324895744,2.9880337715148926,-0.13272202014923096,0.4706035256385803,0.4064667522907257,-0.2558222711086273,0.5698029398918152,-0.7809479236602783,-0.5041569471359253,-0.06719362735748291,0.02540898323059082,-0.19779839163623641,-0.06925389656540404,0.32362004374709896,-0.9226862517655896,-0.606266004586502,-0.31656291024064565,2.619475988270671
1780770684334929664,2.998067617416382,0.17112761735916138,0.39868593215942383,0.4379810094833374,-0.24999795854091644,0.5699710249900818,-0.7827094197273254,-0.5314046144485474,-0.011133134365081787,0.24683600664138794,-0.19646351939891213,-0.06668595311019983,0.3227975836493218,-0.9234483040486411,-0.606470619316709,-0.3091592488806666,2.6249117547687453
1780770684344964864,3.0081026554107666,0.49987033009529114,0.4992378354072571,0.49745792150497437,-0.24378815293312073,0.5688203573226929,-0.7855002880096436,-0.4364181458950043,-0.07883012294769287,0.08100199699401855,-0.1948992256257671,-0.06414334752034066,0.32114713774743003,-0.9245347169210987,-0.6050708859265448,-0.3009344094048957,2.6314895925833777
1780770684354999040,3.018136978149414,-0.405731201171875,0.5176140069961548,0.4151079058647156,-0.23696660995483398,0.569131076335907,-0.7873605489730835,-0.4102349281311035,-0.18929404020309448,0.1392587423324585,-0.19358564434469205,-0.06103567997310479,0.3203035419655476,-0.9253134482641833,-0.6054487136950548,-0.2923402860824585,2.637224171609867
1780770684365033984,3.028172016143799,0.08883672952651978,0.15342304110527039,0.3552403151988983,-0.23204244673252106,0.571829080581665,-0.786872148513794,-0.33971965312957764,-0.05975937843322754,-0.0003287792205810547,-0.1923850405910347,-0.05860973426962783,0.3211367874595561,-0.9254317776348598,-0.6087337282315007,-0.28676417300488527,2.641017001210844
1780770684375067904,3.038205862045288,-0.4870356321334839,0.09907525032758713,0.2576064467430115,-0.2296137809753418,0.5733616948127747,-0.7864692211151123,-0.3249669075012207,-0.12852221727371216,-0.3440544605255127,-0.1911566364420999,-0.05761278070252863,0.3216304525784181,-0.9255775124936562,-0.6106031147973302,-0.2840599956682575,2.6441969472714644
1780770684385103104,3.048240900039673,-0.49099841713905334,0.35205531120300293,0.3634479343891144,-0.22610671818256378,0.5787461996078491,-0.7835359573364258,-0.5082225203514099,-0.17289292812347412,0.13309955596923828,-0.19035101809044172,-0.05549241511031526,0.3242724401114367,-0.9249510961926861,-0.6171904308208261,-0.28093991167677906,2.645577838104577
1780770684395137024,3.058274984359741,-1.071698546409607,0.5346694588661194,0.41312065720558167,-0.22011306881904602,0.5846987366676331,-0.7808185815811157,-0.5492961406707764,-0.27026087045669556,0.15899240970611572,-0.1893716799193531,-0.05208334325438544,0.3269220518987388,-0.9244174944677855,-0.6245086157195597,-0.27477006008420507,2.6482705407845724
1780770684405172224,3.068310022354126,-1.0115978717803955,0.3080291450023651,0.36311396956443787,-0.21439211070537567,0.5949568152427673,-0.77463698387146,-0.38727718591690063,-0.13792556524276733,0.11303114891052246,-0.18862490144073948,-0.048256741075513004,0.3321939191422958,-0.9228971605455245,-0.6372119043129545,-0.2700060244584778,2.648834264258222
1780770684415205888,3.0783438682556152,-1.0299299955368042,0.08834350854158401,0.1974826455116272,-0.2111566811800003,0.6025675535202026,-0.7696266174316406,-0.182687908411026,0.07112318277359009,-0.2043265700340271,-0.18781497558494176,-0.04602825043009102,0.3362559743229545,-0.921704264717393,-0.6467144134157208,-0.2677734304827077,2.649343280116688
1780770684425241088,3.08837890625,-0.6494942903518677,-0.35557878017425537,0.08480244874954224,-0.2113383710384369,0.6102017760276794,-0.7635377049446106,-0.14071239531040192,0.20454120635986328,-0.14559614658355713,-0.18721551625665897,-0.04549305648565233,0.34082476904441605,-0.9201734029859843,-0.6563152380916956,-0.27002809649220183,2.6477255371340704
1780770684435275008,3.0984129905700684,-0.14047501981258392,-0.41923701763153076,0.010367895476520061,-0.21435709297657013,0.6125768423080444,-0.7607895135879517,-0.29856711626052856,0.16168463230133057,-0.31184232234954834,-0.18628618339503972,-0.047144449616831445,0.342611502284338,-0.919615262895388,-0.6593165824937421,-0.2746363922372212,2.6473725919933564
1780770684445309184,3.1084470748901367,-0.36628392338752747,-0.04047612100839615,-0.11330370604991913,-0.2164679765701294,0.6147403717041016,-0.7584430575370789,-0.6038597822189331,0.05418962240219116,-0.14490771293640137,-0.18626866501490866,-0.04801009476309795,0.34419979937635686,-0.91898068433149,-0.662056764323108,-0.27801921857234535,2.645535857770371
1780770684455343872,3.1184818744659424,0.050377752631902695,0.09292654693126678,-0.12162342667579651,-0.21686629951000214,0.615297794342041,-0.7578770518302917,-0.7102882266044617,0.07735961675643921,0.03845566511154175,-0.1868711825890016,-0.047929733198284134,0.34462185946528806,-0.9187043234977275,-0.66276370438459,-0.278702178327357,2.643809596377556
1780770684465378048,3.1285159587860107,-0.15116360783576965,0.06451727449893951,-0.19893953204154968,-0.21721535921096802,0.6155292987823486,-0.7575891017913818,-0.512520968914032,0.013346433639526367,-0.15404725074768066,-0.18780323226377518,-0.04773583973876078,0.3448575685492677,-0.9184359606550466,-0.6630573869018752,-0.2792285043391274,2.6415167322228665
1780770684475412992,3.1385509967803955,0.01280534453690052,-0.20372776687145233,-0.2571043074131012,-0.2191382646560669,0.6154293417930603,-0.7571163773536682,-0.2632836103439331,0.0024600625038146973,-0.03579133749008179,-0.18877282128940875,-0.04838401636167522,0.3451098422731922,-0.9181084540766138,-0.662930582187952,-0.28173896478500876,2.638490548878627
1780770684485446912,3.1485848426818848,-0.10168793797492981,-0.3562869429588318,-0.3495636582374573,-0.22327609360218048,0.6151314377784729,-0.7561488747596741,-0.15453152358531952,-0.1126595139503479,-0.0018772482872009277,-0.189659597985513,-0.05023858225251457,0.3455454381420999,-0.9176620719145511,-0.662552651106845,-0.28712147616380385,2.6346197505839264
1780770684495481856,3.1586198806762695,0.11180569976568222,-0.298738956451416,-0.3849512040615082,-0.22813770174980164,0.6144068241119385,-0.7552863955497742,-0.2506678104400635,-0.08807015419006348,-0.008065104484558105,-0.19079321522951637,-0.05242530767083379,0.34584447706187615,-0.9171920109482844,-0.661633894238999,-0.2933406616207407,2.630018735803981
1780770684505516032,3.168653964996338,0.2368621528148651,-0.196784108877182,-0.4247516095638275,-0.2325206845998764,0.6120675206184387,-0.7558488845825195,-0.3636859655380249,0.04781407117843628,-0.18232250213623047,-0.192184756083966,-0.054448969580134544,0.34512443402263016,-0.9170547799736272,-0.6586723768053727,-0.29844068005983765,2.625761425990436
1780770684515550976,3.1786890029907227,0.49232372641563416,-0.2780916094779968,-0.4682522118091583,-0.23691965639591217,0.6081587672233582,-0.757635772228241,-0.344440221786499,0.13265544176101685,-0.29258090257644653,-0.19375557687683084,-0.05659377384973904,0.34348109799757254,-0.917211333243657,-0.653739084702552,-0.3030754276796571,2.6217721653368393
1780770684525584896,3.188722848892212,0.14762094616889954,-0.48968401551246643,-0.524959921836853,-0.24301421642303467,0.6043781042098999,-0.7587299942970276,-0.22987091541290283,0.0020214319229125977,-0.06467998027801514,-0.1952882780021604,-0.05962309662364374,0.3421696577820834,-0.9171845897543079,-0.6489850270876799,-0.309966675940074,2.617001749346062
1780770684535620096,3.1987578868865967,0.0064262752421200275,-0.4292197525501251,-0.5630820393562317,-0.2499481439590454,0.6025776863098145,-0.7579089999198914,-0.2446197271347046,-0.04314470291137695,0.26370733976364136,-0.19695959851174852,-0.06281315276100723,0.3421987958633631,-0.9166031909975386,-0.6467271543865075,-0.318555010627389,2.6107054914670424
1780770684545654016,3.208791971206665,-0.06139245256781578,-0.3081313967704773,-0.5858646035194397,-0.25628480315208435,0.6012439131736755,-0.756851315498352,-0.35981932282447815,-0.013109147548675537,0.01998913288116455,-0.1989965514107146,-0.06550312532655425,0.34246705663222726,-0.9158744914175597,-0.6450568802642862,-0.3265007694141818,2.603708976400505
1780770684555689216,3.21882700920105,-0.04149278253316879,-0.2614114284515381,-0.5925211310386658,-0.2619776725769043,0.6002776622772217,-0.7556682229042053,-0.3721013069152832,0.04022526741027832,-0.20066112279891968,-0.20127095613883828,-0.06772651651339777,0.34289794674423607,-0.9150542284447545,-0.6438482423852372,-0.33371715370927096,2.596347517729098
1780770684565722880,3.228860855102539,0.1863398551940918,-0.24349074065685272,-0.5897557139396667,-0.26754575967788696,0.5980690717697144,-0.7554685473442078,-0.29022401571273804,0.014571309089660645,-0.15880757570266724,-0.20350994684256962,-0.07004325254543713,0.34257798293944114,-0.9145042973967353,-0.6410896346314415,-0.34036311028555194,2.589678608326707
1780770684575758080,3.238895893096924,0.28325626254081726,-0.1765264868736267,-0.5798404812812805,-0.2727086842060089,0.5946311354637146,-0.7563357353210449,-0.2325098216533661,-0.15897750854492188,-0.029797017574310303,-0.20575171446941048,-0.07229523149699948,0.34147553620353455,-0.9142395511101004,-0.6368067966748785,-0.34605623715209244,2.5837726552190228
1780770684585792000,3.248929977416992,0.10581571608781815,-0.071896493434906,-0.613491952419281,-0.2772950530052185,0.5914066433906555,-0.7571958899497986,-0.234225332736969,-0.23813515901565552,0.09484237432479858,-0.20818891106755735,-0.074153384279735,0.3404457839231999,-0.9139229897026468,-0.6328021207722799,-0.35104490527298265,2.577645579121246
1780770684595827200,3.258965015411377,0.10225826501846313,-0.03552410751581192,-0.6650211811065674,-0.28147003054618835,0.5890004634857178,-0.7575308680534363,-0.21012234687805176,-0.03441983461380005,-0.017691850662231445,-0.21103887659213172,-0.07555014351057042,0.3398922367918197,-0.9133607935843678,-0.6298214205401909,-0.35575352433650886,2.5704562544208986
1780770684605860864,3.268998861312866,0.3871661424636841,-0.15733736753463745,-0.6777753233909607,-0.286210834980011,0.5852037072181702,-0.7586961984634399,-0.10986152291297913,0.13731515407562256,-0.12599307298660278,-0.21388884213045467,-0.07741344996694394,0.33861341589114,-0.9130167840321043,-0.6251312633762486,-0.3607333551521701,2.5636411917879642
1780770684615896064,3.279033899307251,0.19754403829574585,-0.14237864315509796,-0.6779977083206177,-0.29151326417922974,0.5807497501373291,-0.7600985169410706,-0.07642191648483276,-0.0352022647857666,0.016415655612945557,-0.21661112812108438,-0.07970262290828163,0.3370433645785625,-0.9127589738306723,-0.6196493778988728,-0.3662195658280046,2.5571549961612825
1780770684625929984,3.2890679836273193,-0.04834136739373207,-0.060040369629859924,-0.666329562664032,-0.296249121427536,0.5782179236412048,-0.760197639465332,-0.176468163728714,-0.21022170782089233,0.17450428009033203,-0.21951183753253423,-0.08140053179239538,0.3365637231587619,-0.9120928221711426,-0.6165427979909636,-0.3715957775868719,2.549676536716496
1780770684635964160,3.2991020679473877,-0.25483569502830505,-0.07395219057798386,-0.6597965955734253,-0.30061864852905273,0.5773425102233887,-0.7591469287872314,-0.24277734756469727,-0.18802976608276367,0.035620927810668945,-0.22250040032262697,-0.08267004200638069,0.33703442959707575,-0.9110801153726996,-0.615470192351361,-0.37704933886692005,2.541407163859071
1780770684645998848,3.3091368675231934,-0.19550497829914093,-0.053598180413246155,-0.6483210325241089,-0.3050462305545807,0.5772552490234375,-0.7574451565742493,-0.23715955018997192,-0.037338316440582275,-0.16308701038360596,-0.2255152664383653,-0.08385631367334734,0.338002274965791,-0.9098711407620037,-0.6153633675620686,-0.3828579891644626,2.5326619456995583
1780770684656033024,3.3191709518432617,0.011831693351268768,0.04740087315440178,-0.5785360932350159,-0.30869588255882263,0.5760394930839539,-0.7568919062614441,-0.18163001537322998,0.024821102619171143,-0.10092669725418091,-0.22836480232474177,-0.08484294313546281,0.33816522918352454,-0.9090079848216954,-0.6138752641393223,-0.38725245304260225,2.5251927770779155
1780770684666067968,3.3292059898376465,0.12902836501598358,0.10144146531820297,-0.5544821619987488,-0.3114745616912842,0.5735607147216797,-0.7576355934143066,-0.08209538459777832,-0.04540824890136719,0.07895517349243164,-0.23102089881228471,-0.08561670195647134,0.33741957927932315,-0.9085412669191093,-0.6108460634417907,-0.39005049173611583,2.519192336261491
1780770684676102144,3.339240074157715,0.18301568925380707,0.06868285685777664,-0.604003369808197,-0.31408384442329407,0.5706592798233032,-0.7587485313415527,0.0028655827045440674,0.023014426231384277,0.044759273529052734,-0.23378126753373654,-0.08632447843641936,0.33641315892501716,-0.9081412647633468,-0.6073084344026617,-0.3924739528048209,2.513255052406719
1780770684686137088,3.3492748737335205,0.6558764576911926,-0.15599073469638824,-0.663173496723175,-0.31811174750328064,0.5655713081359863,-0.7608771324157715,0.06069597601890564,0.20446348190307617,-0.18927240371704102,-0.23643451411091587,-0.08810252642728045,0.3343641213162068,-0.9080404053246169,-0.6011258366479092,-0.3959994991512974,2.507936081704785
1780770684696171008,3.359308958053589,0.9589071869850159,-0.20281337201595306,-0.6611683964729309,-0.3235323429107666,0.5569795966148376,-0.7649186849594116,0.0340273380279541,0.18999916315078735,-0.22772657871246338,-0.23878034319441485,-0.09119174329850338,0.3304916475872596,-0.9085391130608954,-0.5907445977958664,-0.40014408367434157,2.504333506811613
1780770684706206208,3.3693439960479736,0.8511964082717896,0.10379982739686966,-0.5218584537506104,-0.32737401127815247,0.5478502511978149,-0.7698612809181213,-0.14517542719841003,-0.04760611057281494,0.11225324869155884,-0.2409883024699732,-0.09360104922844172,0.32604937793923544,-0.909315866948518,-0.5797923453415671,-0.40207192566860267,2.5020301318500455
1780770684716239872,3.379377841949463,0.44995391368865967,0.26031792163848877,-0.4826045334339142,-0.3285636007785797,0.5410614609718323,-0.7741436958312988,-0.2431221902370453,-0.22491461038589478,0.25061464309692383,-0.2432766391033071,-0.09431425959272927,0.3225414404576643,-0.9098836509476732,-0.5716987570854789,-0.40138096595007694,2.499639989943418
1780770684726275072,3.3894128799438477,0.5658208727836609,0.0557544119656086,-0.4688623547554016,-0.3299099802970886,0.5359593629837036,-0.7771145105361938,-0.09950286149978638,-0.009012341499328613,0.028777718544006348,-0.24555647376615627,-0.09489464668807272,0.32005898172481034,-0.9100874929423263,-0.5656436954659417,-0.40147417563191107,2.4963828800559527
1780770684736308992,3.399446964263916,0.7408968210220337,-0.0314372181892395,-0.43671107292175293,-0.33254849910736084,0.528973400592804,-0.7807679772377014,0.09344327449798584,0.20419615507125854,-0.07779830694198608,-0.2472807431298561,-0.0965997494161432,0.31667727492938985,-0.9106240928380004,-0.5573904023154113,-0.4026537598416064,2.4946131466247734
1780770684746344192,3.409482002258301,0.7979268431663513,0.01268763281404972,-0.38302308320999146,-0.3347434997558594,0.5216330289840698,-0.7847583889961243,0.06312179565429688,0.15071499347686768,0.0032489895820617676,-0.2487926079236092,-0.0982070433912527,0.31301147658509487,-0.911307504212833,-0.5487639208994337,-0.40318798099579206,2.493643160347649
1780770684756377856,3.41951584815979,0.7602835893630981,0.0019850535318255424,-0.39628320932388306,-0.33691367506980896,0.5140635371208191,-0.7888141870498657,-0.00172463059425354,0.08249408006668091,-0.023594260215759277,-0.2501887922051509,-0.09987903363987123,0.3092201304228361,-0.9120375970809462,-0.5399155308011505,-0.4036599791999076,2.493008668312485
1780770684766413056,3.429550886154175,1.020687222480774,0.2152765542268753,-0.2785398066043854,-0.33793970942497253,0.5058727264404297,-0.7936557531356812,-0.03670930862426758,0.07054316997528076,-0.06523090600967407,-0.25149980948509226,-0.10108589715807142,0.304883195471425,-0.913003620058534,-0.5303934280411424,-0.4025492219438083,2.4932797896427368
1780770684776446976,3.439584970474243,0.802359402179718,0.4218447804450989,-0.12833592295646667,-0.3364836275577545,0.4974655508995056,-0.7995666861534119,-0.019549697637557983,-0.18385165929794312,0.09564816951751709,-0.2524443428166681,-0.10118267821496067,0.2999645600049154,-0.9143605719724377,-0.5206747018413741,-0.3983354277867673,2.49540519072864
1780770684786482176,3.449620008468628,0.019331421703100204,0.4561433792114258,-0.04358268901705742,-0.3333229124546051,0.49380621314048767,-0.8031508326530457,0.07193988561630249,-0.44394055008888245,0.34413594007492065,-0.2532805922118615,-0.09980044033484173,0.2974297701878185,-0.9151088916097826,-0.5164614655237715,-0.3933864466094963,2.4963902276446355
1780770684796515840,3.459653854370117,-0.38924703001976013,0.31757616996765137,-0.006308286916464567,-0.33031243085861206,0.49546128511428833,-0.8033753037452698,0.17490166425704956,-0.20638352632522583,0.06581121683120728,-0.25412588061594976,-0.09776398372443597,0.29791704250707046,-0.9149359317347211,-0.5183658137382726,-0.39008632009774213,2.495079368613504
1780770684806551040,3.469688892364502,-0.5134611129760742,0.042016226798295975,0.028473129495978355,-0.32890990376472473,0.499168336391449,-0.8016541004180908,0.24675658345222473,0.14048010110855103,-0.05396723747253418,-0.2545669262201432,-0.09639178578869795,0.2998025790339612,-0.914342811976948,-0.5226387291143471,-0.38934468718798115,2.493153380716418
