time,seconds_elapsed,rotationRateX,rotationRateY,rotationRateZ,gravityX,gravityY,gravityZ,accelerationX,accelerationY,accelerationZ,quaternionW,quaternionX,quaternionY,quaternionZ,pitch,roll,yaw
1781555781676770304,0.3944063186645508,-4.462803363800049,-1.5244951248168945,0.06540451943874359,-0.6833119988441467,0.35891032218933105,-0.6358208060264587,-0.015189588069915771,-0.19355082511901855,0.052187442779541016,-0.7865934822970264,-0.013842375201212382,0.4264949921293373,-0.4462971039917609,-0.3671001603030857,-0.8213844286125,0.8708526611308793
1781555781686805248,0.40444135665893555,-5.0103230476379395,-1.5291739702224731,0.06053093448281288,-0.6926259994506836,0.3888944685459137,-0.607478678226471,-0.02383512258529663,-0.2260831892490387,0.09000736474990845,-0.7832739882191546,0.001571700175924662,0.44301036613102435,-0.4361436601003428,-0.39943129657748816,-0.8507974340827134,0.8332292883624512
1781555781696839936,0.4144761562347412,-5.257394790649414,-1.5194898843765259,0.05764779448509216,-0.7014456391334534,0.41995465755462646,-0.5758576393127441,-0.014389872550964355,-0.19690170884132385,0.11502701044082642,-0.779417616076095,0.018631719080337887,0.46013481118254695,-0.4247786232260115,-0.433395342165932,-0.8834059319638885,0.79052628116358
1781555781706876160,0.4245121479034424,-5.253223419189453,-1.4592176675796509,0.011948752216994762,-0.7096560001373291,0.449714720249176,-0.5423513650894165,0.013733148574829102,-0.13626867532730103,0.078743577003479,-0.7751214968880865,0.03609634465292606,0.4769920121135953,-0.41274969521557303,-0.4664459131941837,-0.9182403230725967,0.7448193558548841
1781555781716911104,0.43454718589782715,-5.309340000152588,-1.3872913122177124,-0.03979353979229927,-0.7172207236289978,0.47737860679626465,-0.5076455473899841,0.04552888870239258,-0.05170416831970215,0.11259549856185913,-0.7705009784658101,0.05359159294193111,0.4932597402446407,-0.4001886019490063,-0.49766900942243264,-0.9548576859372385,0.6966563395325502
1781555781726946048,0.4445822238922119,-5.2797322273254395,-1.3106399774551392,-0.04004227742552757,-0.7242600917816162,0.5030362606048584,-0.4715949594974518,0.051881611347198486,-0.00036603212356567383,0.12238231301307678,-0.7654870585766617,0.07116417706665856,0.5090561628299317,-0.3870749079134998,-0.5271082953685933,-0.9936198647656695,0.645801817582037
1781555781736981248,0.4546172618865967,-5.308713436126709,-1.215828537940979,-0.10069257766008377,-0.7303391098976135,0.5264781713485718,-0.4352303147315979,0.0726395845413208,-0.07091182470321655,0.1464119851589203,-0.7602294764727604,0.08869822273518921,0.5239441528284093,-0.37371936105292347,-0.5544527989392022,-1.0333755297988574,0.5932128781482643
1781555781747017216,0.46465325355529785,-5.996690273284912,-1.2437810897827148,-0.11864467710256577,-0.7360602021217346,0.5491311550140381,-0.3958161473274231,0.07504945993423462,-0.15684294700622559,0.2181580662727356,-0.7544070490943741,0.10755590215898357,0.5390024637159558,-0.3588566807736877,-0.581324238061125,-1.0774069726267288,0.5341790183734073
1781555781757052160,0.4746882915496826,-6.464175701141357,-1.2947832345962524,-0.0886729285120964,-0.7413997650146484,0.5718526840209961,-0.3511565029621124,0.08431053161621094,-0.1672964096069336,0.24431449174880981,-0.7473815599704249,0.12862714529391364,0.5548664727443543,-0.34205125968057654,-0.6087624483530866,-1.1284583063534184,0.46592395775924944
1781555781767087104,0.4847233295440674,-6.6618852615356445,-1.278879165649414,-0.11327521502971649,-0.746202826499939,0.592685878276825,-0.3031582534313202,0.07309186458587646,-0.19936001300811768,0.1346859633922577,-0.7393085462059459,0.1506938302567131,0.5707120465712484,-0.3240402801059937,-0.6343894359677109,-1.1848982977548093,0.3912209837082067
1781555781777123328,0.49475932121276855,-6.739731311798096,-1.2554265260696411,-0.12414037436246872,-0.7504897117614746,0.6105015277862549,-0.25308752059936523,0.05249154567718506,-0.1585513949394226,0.07411715388298035,-0.7303662042508249,0.17308192684736248,0.5860877770144803,-0.30513786687147826,-0.6566936669033773,-1.2455430210110683,0.3116329017484261
1781555781787158272,0.5047943592071533,-6.567202568054199,-1.2077250480651855,-0.1263369470834732,-0.7540760636329651,0.6248313784599304,-0.20237402617931366,0.03892713785171509,-0.04511946439743042,0.024639606475830078,-0.7207033081170948,0.19518170117732928,0.6005972803818389,-0.2859613280565005,-0.6749155544797907,-1.308601108961486,0.2296575725463853
1781555781797192960,0.514829158782959,-6.25627326965332,-1.1714365482330322,-0.17823342978954315,-0.757205069065094,0.6350427269935608,-0.1528441458940506,0.014193594455718994,0.01946777105331421,-0.007647812366485596,-0.7106751604191864,0.21601403590318308,0.6139347365054639,-0.2671384168214964,-0.688063829575964,-1.3716196189997902,0.14872061780556126
1781555781807228928,0.5248651504516602,-5.950897693634033,-1.1602054834365845,-0.22730323672294617,-0.759967029094696,0.6414567828178406,-0.1048019751906395,-0.005551159381866455,0.044654667377471924,0.009114086627960205,-0.7003855127470061,0.23556138389830572,0.6261867517263805,-0.2487191025916349,-0.6963956832786359,-1.4337573538656398,0.06964768630396054
1781555781817264128,0.5349001884460449,-5.545195579528809,-1.1421916484832764,-0.2556278109550476,-0.7624989151954651,0.6443005204200745,-0.05892550200223923,-0.018476366996765137,0.02008235454559326,0.027278725057840347,-0.6899715161441544,0.25341161485922736,0.6374321948398398,-0.2310888352613927,-0.7001083042951207,-1.493670164197458,-0.005460495646417416
1781555781827299072,0.5449352264404297,-5.3635077476501465,-1.1115585565567017,-0.27278390526771545,-0.7646058201789856,0.6443225741386414,-0.015043798834085464,-0.030514419078826904,-0.03697705268859863,-0.007295072078704834,-0.6794728779692183,0.2700358145742175,0.6477335560230882,-0.21409927510142268,-0.700137168946476,-1.5511236310378085,-0.07705946880577236
1781555781837334272,0.5549702644348145,-5.1682915687561035,-1.094728708267212,-0.3046041429042816,-0.7664059996604919,0.6417691707611084,0.027465447783470154,-0.03876984119415283,-0.06866425275802612,-0.05923425778746605,-0.6688082668111798,0.28578879663931384,0.6573108001441352,-0.1973901364579094,-0.6968029450514875,-1.606617679181252,-0.14613453960224423
1781555781847370240,0.5650062561035156,-4.971076965332031,-1.1025824546813965,-0.2809715270996094,-0.7677521109580994,0.6370837092399597,0.06841906160116196,-0.01671755313873291,-0.11059445142745972,-0.10182058811187744,-0.6579877055259155,0.30062546208556723,0.6662085725323839,-0.18122553010584774,-0.6907088493294536,-1.6596776208570052,-0.21184474601802472
1781555781857405184,0.5750412940979004,-4.848810195922852,-1.1107628345489502,-0.3085267245769501,-0.7686185240745544,0.6304960250854492,0.10816798359155655,0.02194499969482422,-0.11262798309326172,-0.07432401180267334,-0.646941181891647,0.3147498594793485,0.6745491226152996,-0.16547848837327558,-0.6821921018435974,-1.7106085423428543,-0.27466012962278447
1781555781867440128,0.5850763320922852,-4.804354667663574,-1.0995211601257324,-0.36427414417266846,-0.7693136930465698,0.6216980218887329,0.14713168144226074,0.039714813232421875,-0.03568434715270996,-0.00942113995552063,-0.6356268135710009,0.3282984016802594,0.6824851630317612,-0.14970838872742798,-0.6709087674050501,-1.7597649870887977,-0.3353913924672011
1781555781877476096,0.5951123237609863,-4.446716785430908,-1.0244865417480469,-0.4026537537574768,-0.7699338793754578,0.6109898090362549,0.18410111963748932,0.02011704444885254,0.05064648389816284,0.006832107901573181,-0.6244320275822965,0.3408834656898186,0.6898181081267342,-0.1342909823011468,-0.6573103194025396,-1.8055023454865347,-0.39220290925380485
1781555781887511296,0.6051473617553711,-3.9746499061584473,-0.8933489322662354,-0.37487804889678955,-0.7703697085380554,0.599470853805542,0.2171749472618103,-0.01406925916671753,0.11168020963668823,-0.024364858865737915,-0.6139978724321906,0.35201789894403507,0.6961830734389942,-0.12007930860673831,-0.6428398305583124,-1.8455753142963385,-0.4424324099169913
1781555781897545984,0.6151821613311768,-3.4746503829956055,-0.7494072318077087,-0.3690779507160187,-0.7706831097602844,0.5879519581794739,0.24568244814872742,-0.0423203706741333,0.15997278690338135,-0.017166867852211,-0.6046761563235353,0.36162829145403447,0.7014743084127004,-0.10735670359570113,-0.6285245951076561,-1.8793970131073414,-0.48555881296957726
1781555781907581952,0.6252181529998779,-2.9449644088745117,-0.6708816289901733,-0.36421021819114685,-0.7710361480712891,0.576795220375061,0.2698342502117157,-0.03153032064437866,0.13952863216400146,0.009157419204711914,-0.5965147102012347,0.36964010009640275,0.7058918629624938,-0.09619300851778183,-0.6148001007367903,-1.907438321381012,-0.5216864737347989
1781555781917617152,0.6352531909942627,-2.4575960636138916,-0.6538704633712769,-0.347610741853714,-0.7712109684944153,0.5664749145507812,0.29041266441345215,0.009782254695892334,0.0873945951461792,0.038917720317840576,-0.5892835158106412,0.3760698135359892,0.7097730804324798,-0.08682452170681008,-0.6022219108781794,-1.9309401562724218,-0.551116885799574
1781555781927652096,0.6452882289886475,-2.1866261959075928,-0.5880914330482483,-0.3409344553947449,-0.7712886333465576,0.5568719506263733,0.30823275446891785,0.024126768112182617,0.05763000249862671,0.053629398345947266,-0.5828245225081866,0.38138741833268885,0.7132040467791714,-0.07873487062384861,-0.5906149885389729,-1.950986684979962,-0.5757585292834303
1781555781937688064,0.6553242206573486,-1.9773800373077393,-0.5620318651199341,-0.35555121302604675,-0.7713900208473206,0.5475800037384033,0.32421234250068665,0.024838566780090332,0.06281733512878418,0.018530607223510742,-0.5768902098152546,0.385995294942904,0.7163196246975881,-0.07135515753591963,-0.5794693762427434,-1.9686761202165584,-0.5973920639813475
1781555781947723264,0.6653592586517334,-1.674204707145691,-0.5450105667114258,-0.34021326899528503,-0.7714376449584961,0.5388128757476807,0.3384738862514496,0.031538963317871094,0.04871147871017456,0.00954851508140564,-0.5714502604558589,0.38980253342548227,0.7192293979404922,-0.06486620950763114,-0.5690273138017877,-1.9842615810239495,-0.6157773301562254
1781555781957758208,0.6753942966461182,-1.333051323890686,-0.5139197707176208,-0.30689552426338196,-0.7713633179664612,0.53106290102005,0.35067233443260193,0.03270059823989868,0.029911279678344727,0.018285155296325684,-0.5666769236471889,0.39277380701161024,0.7218482545181975,-0.05950778092352928,-0.5598544577413495,-1.9974803863219448,-0.6305863010290245
1781555781967794176,0.6854302883148193,-1.0193562507629395,-0.4649949371814728,-0.26050034165382385,-0.7711026668548584,0.5247183442115784,0.3606541156768799,0.0213773250579834,0.03883451223373413,-0.0017216205596923828,-0.5626704705661829,0.39491056467807284,0.7241358304235648,-0.05545183723283103,-0.5523842241251222,-2.008281686566064,-0.6416962379445844
1781555781977829120,0.6954653263092041,-0.8011277318000793,-0.398851603269577,-0.25353458523750305,-0.770850658416748,0.5194047689437866,0.3687930405139923,0.015952467918395996,0.08321064710617065,0.019787341356277466,-0.5593485596846838,0.39643271656199985,0.726111303316661,-0.052276177464283244,-0.5461542606787947,-2.0170342040124125,-0.6501152288239985
1781555781987864320,0.7055003643035889,-0.5200327038764954,-0.3388087749481201,-0.241100013256073,-0.7707734107971191,0.5150120854377747,0.3750612139701843,0.0033173561096191406,0.09950512647628784,0.04240405559539795,-0.5567573263290216,0.39727071402666503,0.7278094416954884,-0.04990683373656838,-0.5410217543911793,-2.023669580112708,-0.6557973528277173
1781555781997899008,0.7155351638793945,-0.270871102809906,-0.29677531123161316,-0.21865995228290558,-0.7707535028457642,0.5117325782775879,0.3795637786388397,-0.003797769546508789,0.06504958868026733,0.046858370304107666,-0.5548611675423821,0.3974616536777292,0.7292503804922021,-0.04844736583932881,-0.5372002319732956,-2.0283921969531713,-0.6587907419591823
1781555782007934976,0.7255711555480957,0.020735464990139008,-0.2622684836387634,-0.2025424987077713,-0.770763635635376,0.5096437931060791,0.3823436200618744,-0.0051000118255615234,0.0433499813079834,0.05208933353424072,-0.5536484373176965,0.39696169790969477,0.730474650098621,-0.047975216893209605,-0.5347707471438834,-2.031285504771761,-0.6589723946023339
1781555782017970176,0.7356061935424805,0.21137571334838867,-0.19669237732887268,-0.2112766057252884,-0.7709149718284607,0.5085340142250061,0.38351428508758545,-0.009251594543457031,0.04270493984222412,0.05526742339134216,-0.5530900333834418,0.395822729777,0.7314926587158133,-0.04831410197154487,-0.5334813853145876,-2.0324253976760835,-0.6566516720472331
1781555782028005120,0.7456412315368652,0.30580076575279236,-0.11656519025564194,-0.22438707947731018,-0.7714342474937439,0.5078555941581726,0.38336896896362305,-0.022907674312591553,0.03775286674499512,0.07071727514266968,-0.5530967420080412,0.3942474336303139,0.7322932792119248,-0.048984225253503905,-0.5326936214477913,-2.032005871098529,-0.6527593906898375
1781555782038041088,0.7556772232055664,0.3498806059360504,-0.05874556303024292,-0.19652721285820007,-0.7721997499465942,0.5074639916419983,0.3823450207710266,-0.02917647361755371,0.004330992698669434,0.07592219114303589,-0.5534905112546781,0.39254045261146503,0.7328604909980957,-0.049756498795509876,-0.5322390909986693,-2.0305463170620817,-0.6482554612754313
1781555782048076032,0.7657122611999512,0.37595346570014954,-0.0385204553604126,-0.1800856590270996,-0.7729723453521729,0.5074214935302734,0.38083791732788086,-0.0161055326461792,-0.011098802089691162,0.06482559442520142,-0.5540870520504929,0.3908177872467231,0.733266944318497,-0.050682321406626325,-0.5321897890924003,-2.0285811121686517,-0.6434487043178098
1781555782058111232,0.7757472991943359,0.4023840129375458,-0.02005515992641449,-0.17536227405071259,-0.7737731337547302,0.5075193643569946,0.37907734513282776,-0.006012141704559326,-0.004101276397705078,0.0701720118522644,-0.5547902253642503,0.3890818374162596,0.7335897971505629,-0.051664939217882955,-0.5323033500133764,-2.0263374690419984,-0.6384943023088279
1781555782068147200,0.7857832908630371,0.46757766604423523,0.002755878958851099,-0.17201708257198334,-0.7746225595474243,0.5077975988388062,0.37696340680122375,-0.011281311511993408,0.004561960697174072,0.07918283343315125,-0.5556365370665217,0.3872357215940552,0.7338461665550953,-0.05278557902102015,-0.5326263406436776,-2.0237000499069047,-0.6330912928376176
1781555782078182144,0.7958183288574219,0.6056476831436157,0.03741692006587982,-0.17518703639507294,-0.7755818963050842,0.5084654688835144,0.37407931685447693,-0.02347499132156372,0.01436161994934082,0.0829823911190033,-0.5567934334925775,0.3851087211532254,0.7339829210560116,-0.05423385803072419,-0.5334017509349215,-2.0202008503110633,-0.6265982213006638
1781555782088217344,0.8058533668518066,0.6999039053916931,0.08539070188999176,-0.20372708141803741,-0.7767700552940369,0.5094630718231201,0.37023741006851196,-0.028955042362213135,0.04003643989562988,0.08154487609863281,-0.5583397376322189,0.3825884776893095,0.7339923435418283,-0.05601855147044451,-0.5345607023512503,-2.015579509420302,-0.61871954699995
1781555782098253312,0.8158893585205078,0.6558703780174255,0.13670875132083893,-0.2526312470436096,-0.778343141078949,0.5102238059043884,0.36586007475852966,-0.02954864501953125,0.0599665641784668,0.08901962637901306,-0.5601264168685188,0.37986205539883733,0.733917471010785,-0.057691962175150456,-0.5354450156605697,-2.010198032196321,-0.6103622573491376
1781555782108288000,0.8259241580963135,0.5544548034667969,0.1618974655866623,-0.26278239488601685,-0.7802407145500183,0.5103932619094849,0.36155661940574646,-0.03175574541091919,0.018659472465515137,0.10049474239349365,-0.5619198299705573,0.37725056387670325,0.7337985607812855,-0.05888819355388128,-0.5356420720884129,-2.00473035151602,-0.6026959832251816
1781555782118323200,0.8359591960906982,0.4605836868286133,0.14904318749904633,-0.2410089373588562,-0.7820857763290405,0.5102760791778564,0.3577152490615845,-0.017535805702209473,-0.034964799880981445,0.07149922847747803,-0.5635330774428223,0.374926321164947,0.7336810426791477,-0.05977346181041242,-0.5355057775193732,-1.9997756076811513,-0.5960401061166803
1781555782128358144,0.845994234085083,0.3360031247138977,0.15686967968940735,-0.2505379915237427,-0.783872663974762,0.5097911953926086,0.35448119044303894,-0.0007343888282775879,-0.022379636764526367,0.06542542576789856,-0.5649144207329904,0.37295950475238615,0.7335814883048946,-0.060259692723090647,-0.5349420608191939,-1.9954930550551309,-0.5906616030373351
1781555782138394112,0.8560302257537842,0.2888904809951782,0.17965009808540344,-0.28104954957962036,-0.7858263254165649,0.5087844133377075,0.3515903949737549,0.005339086055755615,0.02953052520751953,0.07019314169883728,-0.5661856761905399,0.37116011063440696,0.7335089382632314,-0.06032191775703526,-0.5337721890168631,-1.9914983735962397,-0.5861241741528818
1781555782148429056,0.866065263748169,0.3091803193092346,0.20328578352928162,-0.2973960340023041,-0.7879740595817566,0.5075616836547852,0.34853723645210266,0.0017191171646118164,0.057028889656066895,0.060535699129104614,-0.5675400688651392,0.369304798970228,0.7334047890016682,-0.060247162793784365,-0.5323524575470373,-1.9872458159905921,-0.5815667089699734
1781555782158464256,0.8761003017425537,0.3288474977016449,0.22169461846351624,-0.3145960569381714,-0.7902721762657166,0.5062341690063477,0.3452494144439697,0.00020247697830200195,0.05589967966079712,0.04757288098335266,-0.5689977802169554,0.36734353937388725,0.7332690013136375,-0.06014086917115092,-0.5308124792497549,-1.9826812752467795,-0.5767727427566515
1781555782168500224,0.8861362934112549,0.3485215902328491,0.2222893089056015,-0.3277432918548584,-0.7926757335662842,0.5048564672470093,0.34173858165740967,-0.00519108772277832,0.05056345462799072,0.03664875030517578,-0.5705462118772131,0.3652531864001703,0.7331162275354648,-0.06006469489675905,-0.5292156566841414,-1.9778394681811413,-0.5716445643836352
1781555782178535168,0.8961713314056396,0.35840165615081787,0.24415278434753418,-0.3504001498222351,-0.7951745390892029,0.503380298614502,0.338091641664505,-0.01254957914352417,0.04528003931045532,0.03861728310585022,-0.5721504364950061,0.36305799284794665,0.7329629713210866,-0.05998441448013004,-0.527506413299619,-1.9728187253418936,-0.5662911167574051
1781555782188570368,0.9062063694000244,0.33352187275886536,0.2933562994003296,-0.36780256032943726,-0.7978960275650024,0.501671314239502,0.3341972529888153,-0.02548348903656006,0.031196117401123047,0.051071882247924805,-0.5738758382568474,0.36082356853278025,0.7327380033763694,-0.059731758258658174,-0.5255297206342441,-1.9674447704352205,-0.5609745035063247
1781555782198606336,0.9162423610687256,0.3143809139728546,0.3266298174858093,-0.3665921688079834,-0.800783634185791,0.4998207986354828,0.3300376534461975,-0.034680843353271484,0.006801515817642212,0.034739017486572266,-0.5757275093765557,0.3586123600383397,0.7324042602290164,-0.059321610670944616,-0.5233918685182954,-1.9617270794120207,-0.5558037049392133
1781555782208641024,0.9262771606445312,0.2521575093269348,0.34009888768196106,-0.3646288812160492,-0.8037098050117493,0.49781736731529236,0.3259267807006836,-0.013199865818023682,-0.003402113914489746,0.01989838480949402,-0.5775728389031363,0.3565556782337679,0.7320050769346622,-0.05870425057012976,-0.5210803193008406,-1.956059041056582,-0.5511798138724228
1781555782218675968,0.936312198638916,0.19418874382972717,0.3204607367515564,-0.38674697279930115,-0.8066619038581848,0.4955221712589264,0.32210904359817505,0.01433408260345459,0.01268702745437622,0.01965734362602234,-0.5793090325830623,0.3546234424123684,0.7316397548612876,-0.05784884788809953,-0.5184358837135755,-1.9507086559641307,-0.5471460862918252
1781555782228712192,0.9463481903076172,0.1481005996465683,0.3046067953109741,-0.4110136926174164,-0.8096417784690857,0.49283719062805176,0.3187342882156372,0.024317800998687744,0.039343565702438354,0.013220638036727905,-0.5808713079956116,0.3527585457742827,0.7313880987290043,-0.056756835709971185,-0.515347428846681,-1.9458367004246178,-0.5436340494860599
1781555782238747136,0.956383228302002,0.10655316710472107,0.30876773595809937,-0.40831536054611206,-0.8126302361488342,0.4899289309978485,0.31559720635414124,0.016548752784729004,0.0417788028717041,0.012039393186569214,-0.5823404319441621,0.3509620293387008,0.7311800446057967,-0.055506278997375834,-0.5120082226898469,-1.9412325477485046,-0.5405101076982644
1781555782248782080,0.9664182662963867,0.06868594884872437,0.3224434554576874,-0.4052061140537262,-0.8156226873397827,0.4868624806404114,0.31260937452316284,0.0062659382820129395,0.03404206037521362,0.012585997581481934,-0.5837571073435697,0.3493112639284773,0.730948924598897,-0.05406439145487394,-0.5084941637399455,-1.9368036974064164,-0.5379318935117098
1781555782258818048,0.9764542579650879,0.0356113500893116,0.32183384895324707,-0.4007056653499603,-0.8185897469520569,0.4837409257888794,0.3096868395805359,-0.000746309757232666,0.02738279104232788,-0.0002995431423187256,-0.5851480848486432,0.3477651126840079,0.7306865601343324,-0.05252098131966941,-0.5049240045844993,-1.932472331193805,-0.5357052107808818
1781555782268852992,0.9864890575408936,0.008537122048437595,0.32343870401382446,-0.41732245683670044,-0.8215547800064087,0.4804352819919586,0.3069687783718109,0.002325594425201416,0.04069814085960388,0.0037001371383666992,-0.5864577871651603,0.3463070542218832,0.730449050701488,-0.05082240575857193,-0.5011509716549126,-1.9283774094166857,-0.5338909191736507
1781555782278887936,0.9965240955352783,0.010888692922890186,0.3358519673347473,-0.4452587366104126,-0.8246366381645203,0.47691580653190613,0.3041803240776062,0.0007078647613525391,0.04981759190559387,0.023120731115341187,-0.5877974880806959,0.34477048878344646,0.7302215225378619,-0.049029873966709776,-0.49714238674963623,-1.9241783249414548,-0.5320323915866099
1781555782288923136,1.006559133529663,0.016502903774380684,0.35089293122291565,-0.4523981511592865,-0.8278312683105469,0.4732132852077484,0.30127188563346863,-0.007328033447265625,0.03226462006568909,0.009824275970458984,-0.5891869510814209,0.3431679979269808,0.7299805990690588,-0.04714719754225218,-0.49293475874989634,-1.919825866221806,-0.5301399835475267
1781555782298959104,1.0165951251983643,0.012293243780732155,0.3202524781227112,-0.4393891394138336,-0.8309512138366699,0.46957579255104065,0.29835984110832214,-0.006329059600830078,-0.00966063141822815,-0.02513599395751953,-0.5905645673012264,0.34157033032498596,0.7297325790550914,-0.04531599312874985,-0.4888102295281199,-1.9155179198262553,-0.528234661150039
1781555782308994048,1.026630163192749,-0.00783146545290947,0.2812158763408661,-0.44081631302833557,-0.8339037895202637,0.46592316031455994,0.2958371937274933,0.009166419506072998,-0.015346437692642212,-0.03285208344459534,-0.5917662694577512,0.34001622653645674,0.7295941065759863,-0.04351933320687096,-0.4846776563999513,-1.9117069419907045,-0.5265094958943493
1781555782319028992,1.0366652011871338,-0.027286654338240623,0.2657921612262726,-0.4531182646751404,-0.8367884755134583,0.46211808919906616,0.2936520278453827,0.006680011749267578,0.018777817487716675,-0.036144793033599854,-0.5928227619520485,0.33850033362709375,0.7295502296023701,-0.0416535321554224,-0.48038213463756235,-1.9082971155160706,-0.5250453156421646
1781555782329064960,1.046701192855835,-0.01186721958220005,0.2711070477962494,-0.4550890028476715,-0.839673638343811,0.45825472474098206,0.2914632558822632,-0.003389716148376465,0.044674962759017944,-0.03485623002052307,-0.5938733887752183,0.3369475548966919,0.7295190058234796,-0.039783978983846106,-0.47603060101966227,-1.9048986402165968,-0.5235410162822796
1781555782339100160,1.0567362308502197,0.016011284664273262,0.271842360496521,-0.44910115003585815,-0.8425440788269043,0.4544287621974945,0.2891608476638794,-0.003815174102783203,0.04320612549781799,-0.033896565437316895,-0.5949602391864651,0.33534143416988016,0.729470043479742,-0.03797216389823079,-0.4717308215675817,-1.9014001464741992,-0.5218725583334417
1781555782349134848,1.0667710304260254,0.04360775649547577,0.2552475035190582,-0.44414952397346497,-0.845337450504303,0.4507427513599396,0.28676772117614746,0.0017552971839904785,0.018876999616622925,-0.02877211570739746,-0.5960688375659466,0.33366806940559124,0.7294172207142415,-0.03630602796465406,-0.4675972456534303,-1.897848608241878,-0.5199260271056404
1781555782359171072,1.0768072605133057,0.06672559678554535,0.23631271719932556,-0.4407771825790405,-0.8480329513549805,0.4471275508403778,0.2844594120979309,0.011561393737792969,0.0004585087299346924,-0.027074217796325684,-0.5971280511045691,0.331934698274345,0.7294169316629674,-0.034762362119191835,-0.46355140949584844,-1.894436630134394,-0.5177829249120364
1781555782369206016,1.0868420600891113,0.12899374961853027,0.22843973338603973,-0.43285879492759705,-0.8506395220756531,0.4436795115470886,0.2820654809474945,0.012092769145965576,-0.001479804515838623,-0.033011555671691895,-0.5982057840543372,0.330086808601227,0.7294350160977032,-0.033423012552187104,-0.4597002638360104,-1.890979111862676,-0.5152096069931155
1781555782379240960,1.096877098083496,0.17219875752925873,0.22853560745716095,-0.43450355529785156,-0.853201150894165,0.4404200315475464,0.27942439913749695,0.012014627456665039,0.006982922554016113,-0.038091421127319336,-0.599369555275265,0.3280811501875326,0.729434681756723,-0.0323101701142614,-0.45606646033611353,-1.887288795423652,-0.5120617291007438
1781555782389276928,1.1069130897521973,0.19202332198619843,0.22375032305717468,-0.42837056517601013,-0.8557431101799011,0.43722158670425415,0.2766612768173218,0.013549327850341797,0.0008888840675354004,-0.0341838002204895,-0.6005741975775384,0.32597839798771816,0.7294304121462408,-0.03130741311570064,-0.4525070026236352,-1.8834893838614664,-0.5086095172269676
1781555782399312128,1.116948127746582,0.1970771998167038,0.21345239877700806,-0.4088123142719269,-0.8581741452217102,0.43417349457740784,0.27391722798347473,0.018482983112335205,-0.023406893014907837,-0.025671958923339844,-0.6017616528350035,0.3238995259366526,0.7294160069636135,-0.030402999726858157,-0.4491205829476748,-1.8797607720039935,-0.5051222425656806
1781555782409347072,1.1269831657409668,0.18709807097911835,0.19662654399871826,-0.3908543586730957,-0.8604677319526672,0.4312642812728882,0.2713049650192261,0.02353847026824951,-0.035725921392440796,-0.022037386894226074,-0.6028870810657129,0.321884037404729,0.729412881272256,-0.02957503168326039,-0.4458935916134327,-1.8762295083364269,-0.5017208616029747
1781555782419383040,1.137019157409668,0.18331637978553772,0.17960548400878906,-0.37458404898643494,-0.8626346588134766,0.42845261096954346,0.26886799931526184,0.020822525024414062,-0.03001508116722107,-0.03130388259887695,-0.6039351084753544,0.3199540415849349,0.7294267674423227,-0.028782629986159554,-0.4427795280758616,-1.8729361237402053,-0.49849814887513155
1781555782429417984,1.1470541954040527,0.18773935735225677,0.15453796088695526,-0.35401538014411926,-0.8646469712257385,0.425791472196579,0.26662251353263855,0.019645631313323975,-0.033732056617736816,-0.03767964243888855,-0.6048964277660412,0.31807578108750834,0.7294786153962529,-0.028092432485155742,-0.43983642540589063,-1.8699050531251094,-0.4953192323594954
1781555782439453184,1.1570892333984375,0.1851441115140915,0.14154545962810516,-0.33596765995025635,-0.8665115237236023,0.4232882559299469,0.26454657316207886,0.014887988567352295,-0.0401248037815094,-0.03549695014953613,-0.6057812519606908,0.3162645379694869,0.7295546744326658,-0.027492120306599786,-0.43707170764676,-1.8671090130612815,-0.49221724334521855
1781555782449489152,1.1671252250671387,0.17816263437271118,0.13651913404464722,-0.3033556640148163,-0.8682315945625305,0.42099037766456604,0.2625667452812195,0.007330596446990967,-0.050094932317733765,-0.03185388445854187,-0.6066213056389169,0.31455936415338537,0.7296134499925222,-0.02696877158085474,-0.4345368962966153,-1.8644677808358532,-0.4892573230086243
1781555782459523840,1.1771600246429443,0.15809226036071777,0.1406097561120987,-0.2755783498287201,-0.8698120713233948,0.4189046025276184,0.26066485047340393,0.005905091762542725,-0.05011487007141113,-0.033522456884384155,-0.607426201100879,0.3130144591485464,0.7296261918748073,-0.026478110520411505,-0.43223865131526273,-1.8619590766557832,-0.48658011730089745
1781555782469559040,1.187195062637329,0.1606092005968094,0.12204139679670334,-0.2499944269657135,-0.8712577819824219,0.4170251488685608,0.2588437497615814,0.012798190116882324,-0.044466495513916016,-0.04184851050376892,-0.6081936221230301,0.31158584066780937,0.7296136960424479,-0.026052207031407842,-0.4301697971364783,-1.859583145166233,-0.48406821327311433
1781555782479593984,1.1972301006317139,0.15290042757987976,0.08773801475763321,-0.23576410114765167,-0.8725461959838867,0.41531187295913696,0.25725290179252625,0.027377188205718994,-0.03195008635520935,-0.04745987057685852,-0.6088609215093115,0.3102254894808054,0.7296482666244507,-0.025727137612075426,-0.42828561961646033,-1.8575033814640856,-0.48162624386847
1781555782489629952,1.207266092300415,0.16370433568954468,0.06409952789545059,-0.22530320286750793,-0.8737043142318726,0.41369354724884033,0.2559267282485962,0.03227365016937256,-0.024197697639465332,-0.03407919406890869,-0.6094155662122785,0.3089043955172447,0.7297543683182844,-0.025482037426079893,-0.426507331777698,-1.8557464455402761,-0.479231296349681
1781555782499664896,1.2173011302947998,0.1771961748600006,0.04038408398628235,-0.22163842618465424,-0.8747694492340088,0.41215842962265015,0.25476303696632385,0.024580061435699463,-0.02127397060394287,-0.019243568181991577,-0.6098988145780807,0.30756568737068185,0.7299211349485109,-0.02533872928937413,-0.4248218178367167,-1.8541920999016859,-0.4767318822608966
1781555782509700096,1.2273361682891846,0.13979341089725494,0.03961682319641113,-0.21685299277305603,-0.8757776618003845,0.41065552830696106,0.25372371077537537,0.011641860008239746,-0.025645703077316284,-0.015091508626937866,-0.6103299311828719,0.3062616874379782,0.730113442992689,-0.025211279337468535,-0.42317290173056804,-1.8527885118904683,-0.47430981420468193
1781555782519736064,1.2373721599578857,0.08549156039953232,0.035476941615343094,-0.209738627076149,-0.876756489276886,0.4090566635131836,0.25292468070983887,-0.00025773048400878906,-0.03378194570541382,-0.01383468508720398,-0.6106698276252154,0.30514392577814103,0.7303078299718885,-0.024902022208454264,-0.42142003605281647,-1.8516489524123332,-0.4724861413711947
1781555782529771008,1.2474071979522705,0.018066179007291794,0.015908166766166687,-0.20755642652511597,-0.8776769042015076,0.4073643684387207,0.2524636387825012,0.001822352409362793,-0.04432719945907593,-0.014716356992721558,-0.6108781084358789,0.3042237417656674,0.7305338731124019,-0.02441853073211652,-0.4195662643428055,-1.8508845732145096,-0.47129301118251044
1781555782539806208,1.2574422359466553,-0.038496967405080795,0.013320373371243477,-0.20197844505310059,-0.878555417060852,0.4055175185203552,0.2523811459541321,0.005447328090667725,-0.04977405071258545,-0.009873241186141968,-0.61093950444405,0.3035110036726049,0.7308020599927755,-0.023716266928749542,-0.4175449175523181,-1.8505321717765226,-0.47080623546800016
1781555782549842176,1.2674782276153564,-0.08059488236904144,0.005445938091725111,-0.17628905177116394,-0.8793511986732483,0.4036911427974701,0.2525370121002197,0.000704348087310791,-0.05998691916465759,-0.011799216270446777,-0.6109068443571453,0.30300123021636527,0.7310668693185569,-0.02289809786538348,-0.41554775806065214,-1.8504557518732307,-0.4708676301520837
1781555782559876864,1.277513027191162,-0.08285723626613617,0.0014855512417852879,-0.15721815824508667,-0.8800320029258728,0.4020129144191742,0.2528425455093384,0.00019496679306030273,-0.050938695669174194,-0.013279557228088379,-0.6108122772512237,0.302655886955119,0.7313143546060771,-0.022070578695130235,-0.4137141827941774,-1.8505712243726369,-0.47126597820704064
1781555782569912064,1.2875480651855469,-0.04964762181043625,0.00641972292214632,-0.14441262185573578,-0.880648136138916,0.400516539812088,0.25307202339172363,0.0010857582092285156,-0.0196571946144104,-0.016911745071411133,-0.6107435629302354,0.30230628426520273,0.7315373655728336,-0.021361393534081972,-0.4120805170302495,-1.8506262452185243,-0.4715050506931146
1781555782579948032,1.297584056854248,0.009148051030933857,0.021874312311410904,-0.1237664669752121,-0.8812295794487,0.399270236492157,0.25301703810691833,-0.0029103755950927734,-0.00243493914604187,-0.01346936821937561,-0.6107837790584296,0.3018753696921111,0.7316965035601913,-0.020848178544430745,-0.4107207474675774,-1.8503934262137074,-0.47131387199989383
1781555782589982976,1.3076190948486328,0.02110830880701542,0.03242535889148712,-0.1009567603468895,-0.881743311882019,0.3983366787433624,0.2526988387107849,-0.001664280891418457,-0.012670785188674927,-0.0059185028076171875,-0.6109244256460216,0.3014065020455672,0.7317810750535996,-0.02054132029673141,-0.40970274016840275,-1.8499054554105738,-0.4707627851198661
1781555782600017920,1.3176541328430176,-0.002697422867640853,0.039488326758146286,-0.08765746653079987,-0.8822168707847595,0.3975236713886261,0.25232580304145813,0.0075678229331970215,-0.0164659321308136,0.017388463020324707,-0.6110875405508092,0.30103763460036714,0.7318054705407062,-0.02022599114862133,-0.4088165445057934,-1.8493724721515332,-0.47038811093982874
1781555782610054144,1.3276901245117188,-0.0001708818890620023,0.02062409184873104,-0.07688338309526443,-0.8826262354850769,0.3967849612236023,0.25205737352371216,0.013317644596099854,-0.025004476308822632,0.023302704095840454,-0.6112075152286193,0.30073984747524257,0.7318362026391358,-0.0199197897967309,-0.40801161994859103,-1.8489686557633571,-0.47015248099319734
1781555782620089088,1.3377251625061035,-0.009490614756941795,0.009823909029364586,-0.07198316603899002,-0.8829677104949951,0.3961024284362793,0.25193455815315247,0.014712095260620117,-0.03222605586051941,0.020923137664794922,-0.6112666874351137,0.3004834438404517,0.7318995640940681,-0.0196416148724655,-0.40726816115993636,-1.8487379172039744,-0.46999000093398163
1781555782630124032,1.3477602005004883,-0.031639326363801956,0.03493379056453705,-0.05951264873147011,-0.8832879662513733,0.3954620361328125,0.2518181800842285,0.00499194860458374,-0.045303285121917725,0.028302699327468872,-0.6113240676254781,0.3002957655499138,0.7319368446320426,-0.01933634682549174,-0.40657082985194126,-1.8485204115234253,-0.46998224856872844
1781555782640160000,1.3577961921691895,-0.05693509802222252,0.052774038165807724,-0.03864065557718277,-0.8835961222648621,0.39491745829582214,0.2515917718410492,-0.00431293249130249,-0.05309000611305237,0.031748682260513306,-0.6114287586897758,0.30026318637520644,0.73187287211315,-0.018950259820792778,-0.4059780031351533,-1.848191447382106,-0.4703190737130819
1781555782650195200,1.3678312301635742,-0.05041620880365372,0.05276285484433174,-0.036749813705682755,-0.883881688117981,0.3944426476955414,0.25133344531059265,0.004746437072753906,-0.03441143035888672,0.0142764151096344,-0.6115466251482146,0.3002976686718719,0.7317704774767564,-0.01855129580238921,-0.4054612264769498,-1.8478359682559822,-0.47078308260310503
1781555782660229888,1.3778660297393799,-0.021169906482100487,0.06599822640419006,-0.033018458634614944,-0.8841623067855835,0.3940453827381134,0.2509690821170807,0.00940638780593872,-0.013247042894363403,3.802776336669922e-05,-0.6117053514251379,0.3002902766166273,0.7316490171211366,-0.018223935221183953,-0.4050289703896115,-1.847371135686529,-0.47106823162288053
1781555782670264832,1.3879010677337646,-0.0012971326941624284,0.07357319444417953,-0.026948047801852226,-0.8844581842422485,0.39375194907188416,0.25038599967956543,0.010556817054748535,-0.005751460790634155,-0.0004928112030029297,-0.6119506589064103,0.30022284687752077,0.7314774397923286,-0.01798333764947873,-0.4047097230093646,-1.8466730404678866,-0.4711009138286907
1781555782680301056,1.3979370594024658,0.025249524042010307,0.0794001892209053,-0.01938866451382637,-0.8847403526306152,0.39357441663742065,0.24966701865196228,0.01099163293838501,-0.003102034330368042,0.002225145697593689,-0.6122487149426441,0.3001180160321652,0.7312746974671029,-0.01783234594077526,-0.4045166063163542,-1.8458368872875006,-0.47093564114470476
1781555782690336000,1.4079720973968506,0.06348852068185806,0.07959619909524918,-0.009534968063235283,-0.8849987983703613,0.3935549557209015,0.24878054857254028,0.006199300289154053,-0.001953423023223877,-0.005341768264770508,-0.6126106856165944,0.29993408958963813,0.7310470661348462,-0.01783011720692077,-0.4044954381968633,-1.8448325047219103,-0.4704236251540361
1781555782700370944,1.4180071353912354,0.07639393955469131,0.08165934681892395,-0.006454756483435631,-0.8852292895317078,0.39366045594215393,0.2477913200855255,0.0007840991020202637,-0.0022419989109039307,-0.010791778564453125,-0.6130109122232743,0.2996968076974654,0.7308060484530295,-0.017942937933996605,-0.40461017580802067,-1.8437286793213798,-0.4696628389153088
1781555782710406912,1.4280431270599365,0.07318003475666046,0.08447644114494324,-0.0006400105776265264,-0.8854573965072632,0.39379847049713135,0.24675466120243073,-0.006189882755279541,-0.012038856744766235,0.004252314567565918,-0.6134296201529592,0.29945348846882475,0.7305511213888175,-0.018076217773886953,-0.40476034513862685,-1.842575745533515,-0.46885767959473285
1781555782720442112,1.4380781650543213,0.048691198229789734,0.09429711103439331,0.017752578482031822,-0.8856433033943176,0.39403197169303894,0.24571233987808228,-0.011756479740142822,-0.032688647508621216,0.016708344221115112,-0.6138503981840119,0.29929277166537055,0.7302602303937182,-0.018205836289039188,-0.40501437293234777,-1.8414289946139992,-0.46820153438202494
1781555782730477056,1.448113203048706,0.011821066029369831,0.11058900505304337,0.031136827543377876,-0.8857941031455994,0.39431488513946533,0.24471332132816315,-0.011285364627838135,-0.03777801990509033,0.028754711151123047,-0.6142565848619617,0.2993111543327969,0.7299106069934292,-0.018226337989113887,-0.4053222164171897,-1.8403376041150559,-0.4679970913274814
1781555782740513024,1.4581491947174072,0.025489740073680878,0.11181379109621048,0.027876319363713264,-0.8859511017799377,0.39462390542030334,0.2436446249485016,-0.009282112121582031,-0.021058231592178345,0.0196152925491333,-0.6146918203805972,0.29937942753170366,0.7295164659460394,-0.018211881788858485,-0.40565850222200356,-1.839171020270267,-0.4679061438642415
1781555782750548224,1.468184232711792,0.0542641282081604,0.10823623090982437,0.0228517334908247,-0.8861191868782043,0.3949502408504486,0.24250157177448273,0.001048445701599121,0.002190232276916504,-0.004708543419837952,-0.6151546405984154,0.2993565487701668,0.7291340360747426,-0.018274484600755925,-0.40601368465273946,-1.837922824807995,-0.46754886591744554
1781555782760582912,1.4782190322875977,0.06905879080295563,0.087052121758461,0.018017828464508057,-0.8862678408622742,0.39530131220817566,0.24138376116752625,0.008353471755981445,0.01018574833869934,-0.017476335167884827,-0.615604120197531,0.29924925103583155,0.7287947353984261,-0.018429852435092067,-0.40639584725906286,-1.836706341417346,-0.4669401541964186
1781555782770618880,1.4882550239562988,0.043092433363199234,0.06342601776123047,0.011145276017487049,-0.8863928318023682,0.39556604623794556,0.24048946797847748,0.01172858476638794,0.008410364389419556,-0.014552488923072815,-0.615962808830606,0.2991253368048782,0.7285387881018013,-0.01857544789333163,-0.4066840702375615,-1.835731090538658,-0.46636103712950305
1781555782780654080,1.4982900619506836,0.011489502154290676,0.05741686001420021,0.007323107216507196,-0.8865082859992981,0.39568597078323364,0.2398664653301239,0.005252063274383545,0.003026247024536133,-0.007490366697311401,-0.6162151349033663,0.29908287550980095,0.7283424114375874,-0.01859508655659758,-0.4068146602881543,-1.8350434768898443,-0.4661298036147131
1781555782790689024,1.5083250999450684,0.0018832142231985927,0.051338862627744675,0.02159445360302925,-0.8865725994110107,0.3958515226840973,0.23935551941394806,-0.005517363548278809,-0.010292381048202515,-0.016561836004257202,-0.6164226195564573,0.29912879746069465,0.7281481481467071,-0.018589628991467568,-0.4069949317727274,-1.8344881093430971,-0.46610755019091216
1781555782800724992,1.5183610916137695,0.009307574480772018,0.04213817045092583,0.02242616005241871,-0.8865897059440613,0.3960706293582916,0.2389281988143921,-0.009757280349731445,-0.005735546350479126,-0.02644956111907959,-0.6165951186223215,0.29920369363507077,0.7279706373565628,-0.018610327823457902,-0.4072335296983172,-1.8340339446964886,-0.4661238672107327
1781555782810759936,1.5283961296081543,0.034069910645484924,0.051030464470386505,0.024262676015496254,-0.8866152763366699,0.3963257670402527,0.23841002583503723,-0.012615680694580078,0.0067961812019348145,-0.025550007820129395,-0.6168027919010709,0.2992201781464452,0.7277858887802726,-0.01869098939043352,-0.40751141095468035,-1.833481753757485,-0.46594790919537643
1781555782820795136,1.538431167602539,0.0633431151509285,0.05827932804822922,0.03463222458958626,-0.8866292238235474,0.39670801162719727,0.23772183060646057,-0.011960983276367188,0.00702434778213501,-0.025731414556503296,-0.6170758839059033,0.29917820044232674,0.7275667107556351,-0.018882610783844282,-0.4079278078922096,-1.832753815293226,-0.46550316060805036
1781555782830831104,1.5484671592712402,0.04636865481734276,0.06324665248394012,0.0344652459025383,-0.8866317272186279,0.39716264605522156,0.2369510978460312,-0.0029250383377075195,0.011025160551071167,-0.02096298336982727,-0.6173806978773027,0.299130193942603,0.7273215783704025,-0.01911687948125008,-0.40842313109333916,-1.8319419517480495,-0.4649800992561645
1781555782840866048,1.558502197265625,0.016575075685977936,0.048526830971241,0.02039283514022827,-0.8866569399833679,0.3974907100200653,0.23630648851394653,0.00610274076461792,0.01924210786819458,-0.019845247268676758,-0.6176381276300341,0.2991397246283328,0.7270960520326777,-0.019234392637512282,-0.4087806064967557,-1.8312561799155729,-0.4647211619249105
1781555782850901248,1.5685372352600098,-0.010146018117666245,0.024146655574440956,0.01972571387887001,-0.8866661190986633,0.3976740539073944,0.23596405982971191,0.011513352394104004,0.002869218587875366,-0.015535563230514526,-0.6177762174915359,0.2992030205917125,0.7269522535711292,-0.01925369659415271,-0.4089804352493532,-1.8308929844823147,-0.4647363130444327
1781555782860937216,1.578573226928711,-0.042163342237472534,0.002556141931563616,0.01863781362771988,-0.8866136074066162,0.39779219031333923,0.23596248030662537,0.009461820125579834,-0.01978611946105957,0.0018916726112365723,-0.6177786688375915,0.2993667099030986,0.7268843187913984,-0.01919662787275364,-0.4091091911876168,-1.830906045642046,-0.46509075824292906
1781555782870971904,1.5886080265045166,-0.05692550912499428,0.007755431346595287,0.006443198770284653,-0.8865724802017212,0.3977864384651184,0.23612548410892487,0.001532137393951416,-0.013829529285430908,0.005451560020446777,-0.6177169671272275,0.29956196034758653,0.7268599392028022,-0.01905278909766544,-0.40910291184658754,-1.8310892609981055,-0.46563742088153864
1781555782881006848,1.5986430644989014,-0.04519881308078766,0.022457411512732506,0.007848016917705536,-0.8865869641304016,0.397713303565979,0.23619456589221954,-0.012109994888305664,0.004081130027770996,-0.002750396728515625,-0.6176951990943469,0.29975062704300787,0.7268059188965963,-0.018852526019607924,-0.4090232077943686,-1.8311579576569401,-0.466217964874505
1781555782891043072,1.6086790561676025,-0.021958468481898308,0.027683332562446594,0.007979310117661953,-0.8866183161735535,0.3976973593235016,0.2361043244600296,-0.016900599002838135,0.013801783323287964,-0.020650088787078857,-0.6177359897946615,0.2998816170446945,0.7267208379679387,-0.018715587751912306,-0.4090058225257498,-1.8310541150574628,-0.46658880021791216
1781555782901078016,1.6187140941619873,-0.015253694728016853,0.023237451910972595,0.013398311100900173,-0.8866420984268188,0.3977397680282593,0.23594264686107635,-0.011795401573181152,0.016231179237365723,-0.03248190879821777,-0.6178036268957827,0.29997770266698276,0.726625559921907,-0.01863761887745338,-0.4090520517027676,-1.8308771790690475,-0.4668140759600482
1781555782911112960,1.628749132156372,-0.00017540925182402134,0.012732612900435925,0.022409381344914436,-0.8866183161735535,0.3978812098503113,0.2357935607433319,-0.003991425037384033,0.01457911729812622,-0.0314173698425293,-0.6178639773575975,0.30006588143657265,0.7265378520323299,-0.018637308559649447,-0.40920622859970046,-1.8307268072762095,-0.4669376575525249
1781555782921148160,1.6387841701507568,0.008460422977805138,0.00716926995664835,0.026183346286416054,-0.8865396976470947,0.3981134593486786,0.2356966733932495,-0.001292884349822998,0.015002936124801636,-0.026925936341285706,-0.6179008212127023,0.3001487850325568,0.726470265563481,-0.01871315407423898,-0.4094593861442412,-1.830646760441038,-0.46697446827789396
1781555782931184128,1.648820161819458,0.03638526424765587,0.004682010039687157,0.01268325187265873,-0.886473536491394,0.3983478248119354,0.23554980754852295,0.0012959837913513184,0.027280837297439575,-0.01116931438446045,-0.6179560805911739,0.3001496824136522,0.7264193518387898,-0.018852190868172462,-0.40971489408107015,-1.8305105422656989,-0.46678234136043156
1781555782941219072,1.6588551998138428,0.044482871890068054,-0.00010502152144908905,-0.004286677110940218,-0.8864643573760986,0.3984885513782501,0.23534612357616425,-0.0013834834098815918,0.02977985143661499,-0.008966699242591858,-0.618033334356961,0.3000300594644434,0.7263986686223962,-0.019019442117905405,-0.4098683122828904,-1.8302984774373294,-0.46633267730578376
1781555782951254016,1.6688902378082275,0.028347846120595932,-0.0035668648779392242,-0.009327773936092854,-0.8864889740943909,0.3985089957714081,0.2352190762758255,-0.002900063991546631,0.014592200517654419,-0.005864262580871582,-0.6180812069371908,0.29988721506446114,0.7264139273002546,-0.01913488147321585,-0.4098905998709723,-1.8301577023971725,-0.46591903257577766
1781555782961290240,1.6789262294769287,-0.024902326986193657,-0.005508042871952057,-0.0006203032098710537,-0.8865004777908325,0.398476243019104,0.23523062467575073,-0.00444483757019043,-0.013954788446426392,0.003691539168357849,-0.6180764182252131,0.29986124751332355,0.7264286222952073,-0.019136026951358354,-0.40985489725983576,-1.8301666554485947,-0.4658744539750339
1781555782971324928,1.6889610290527344,-0.062256354838609695,-0.007582379039376974,0.003167510963976383,-0.8864763379096985,0.3984084129333496,0.23543670773506165,-0.00033396482467651367,-0.027848750352859497,0.011908292770385742,-0.6179974256522531,0.3000095083875282,0.7264383294952923,-0.0189955695375099,-0.4097809545879297,-1.8303905801831282,-0.466343862048951
1781555782981359872,1.6989960670471191,-0.08288919180631638,-0.0063501340337097645,-0.00785744283348322,-0.8864683508872986,0.398242324590683,0.2357475608587265,0.0016112327575683594,-0.008883833885192871,0.004471644759178162,-0.6178795338656883,0.30023571753482603,0.7264518534804206,-0.01873717720540261,-0.4095998657377307,-1.8307203586349563,-0.46711065188704
1781555782991395840,1.7090320587158203,-0.06462576985359192,-0.0011142268776893616,-0.015428810380399227,-0.8865113854408264,0.39797744154930115,0.23603340983390808,0.0010132193565368652,0.017763584852218628,-0.006663292646408081,-0.617773030560293,0.30042695886985593,0.7264711605226066,-0.01843575322831751,-0.40931110311636704,-1.8310094136243622,-0.4678604941753379
1781555783001431040,1.719067096710205,-0.04105972498655319,-0.001826356165111065,-0.016579030081629753,-0.8865760564804077,0.3977309465408325,0.23620599508285522,-0.0009515881538391113,0.01805591583251953,-0.014465272426605225,-0.6177100974986476,0.30053079520420845,0.7264876036436555,-0.018203427402634097,-0.4090424347255407,-1.8311730438047888,-0.4683513142478336
1781555783011465984,1.7291021347045898,-0.05370388180017471,-0.012096304446458817,-0.009417522698640823,-0.8866020441055298,0.3975285291671753,0.23644885420799255,-0.0032601356506347656,0.0037776827812194824,-0.007444947957992554,-0.6176171818799457,0.3006292648357038,0.7265304356901874,-0.018017776075098704,-0.40882182644510545,-1.8314215191069416,-0.46879341386008483
1781555783021501952,1.739138126373291,-0.05200105905532837,-0.01193172112107277,-0.009646288119256496,-0.8865966200828552,0.39735332131385803,0.23676306009292603,-0.004684507846832275,0.00499039888381958,0.006080612540245056,-0.6174957140980749,0.30077991490952505,0.7265762013810609,-0.01781830446003331,-0.40863090430597554,-1.831753877207769,-0.4693589051476129
1781555783031537152,1.7491731643676758,-0.007289245259016752,-0.009379614144563675,-0.014043167233467102,-0.886610746383667,0.3971937298774719,0.2369784116744995,-0.007020354270935059,0.02043941617012024,0.004095226526260376,-0.6174121103984166,0.30083334539172313,0.7266281747643087,-0.017696410250874785,-0.40845698395163277,-1.8319766101219381,-0.4696413350443778
1781555783041572096,1.7592082023620605,0.04061303287744522,0.005985494703054428,-0.023218557238578796,-0.8866863250732422,0.397055983543396,0.23692679405212402,-0.013628125190734863,0.02771824598312378,-0.0020177066326141357,-0.6174330585590653,0.30071026092252834,0.7266613616719594,-0.017696743108824617,-0.408306912023594,-1.8319010084728786,-0.4694128065733152
1781555783051608064,1.7692441940307617,0.05388356372714043,0.02663111686706543,-0.022737057879567146,-0.8868310451507568,0.3969389498233795,0.23658059537410736,-0.015177130699157715,0.01658955216407776,-0.003807753324508667,-0.6175709631455811,0.3004589342214497,0.7266462165429087,-0.01777310296848073,-0.4081793833494293,-1.8314959005041365,-0.46880641030957054
1781555783061643008,1.7792792320251465,0.021917643025517464,0.028052713721990585,-0.0205996036529541,-0.8869863152503967,0.39682310819625854,0.2361922562122345,-0.004935622215270996,0.0020264089107513428,-0.006104946136474609,-0.617727578379948,0.30026865542300807,0.7265912633366476,-0.01779174290794128,-0.40805318446955674,-1.8310435224761443,-0.4683659030801463
1781555783071677952,1.7893140316009521,0.00971104297786951,0.008934679441154003,-0.0240329522639513,-0.887113094329834,0.3966839909553528,0.23594966530799866,0.008512020111083984,-0.0006878972053527832,-0.0050078630447387695,-0.617826921195188,0.30015649897157104,0.726554135355435,-0.01775122964760208,-0.407901626603852,-1.830752608016051,-0.4681633826642001
1781555783081713920,1.7993500232696533,0.02346706949174404,-0.006072500254958868,-0.029364068061113358,-0.8872183561325073,0.39650386571884155,0.23585671186447144,0.014293551445007324,0.004619181156158447,-0.00354158878326416,-0.6178650569411178,0.30001317531080174,0.7265813426586613,-0.01773273186646327,-0.40770540494021296,-1.8306252833580128,-0.4679124984425158
1781555783091748864,1.809385061264038,0.04030730202794075,0.0007237535901367664,-0.03484911471605301,-0.8873354196548462,0.3962935209274292,0.23576949536800385,0.0007540583610534668,0.010353237390518188,-0.001669168472290039,-0.6178995331320409,0.29979268046165575,0.726642342303184,-0.0177597639716807,-0.40747628293457816,-1.8305007120724035,-0.4674739173369853
1781555783101784064,1.8194200992584229,0.04185885936021805,0.019470542669296265,-0.03689708560705185,-0.887498140335083,0.39607077836990356,0.23553210496902466,-0.014296412467956543,0.010179311037063599,-0.003491610288619995,-0.6179949970405616,0.29953648295881746,0.72666632543551,-0.01778441798974535,-0.40723369609434423,-1.830205351499425,-0.4669431286570482
1781555783111820032,1.829456090927124,0.01689465530216694,0.02592458203434944,-0.034772682934999466,-0.8876895904541016,0.3958377540111542,0.23520183563232422,-0.015600264072418213,0.004720777273178101,-0.001452416181564331,-0.6181294580005958,0.2993203846814302,0.7266417460350323,-0.017753083489197984,-0.40697994326462256,-1.8298042588871923,-0.4665284855616733
1781555783121854976,1.8394911289215088,0.009936613030731678,0.02096843719482422,-0.04297202080488205,-0.887887179851532,0.3955487310886383,0.234941303730011,-0.004828214645385742,0.012791693210601807,0.0005780309438705444,-0.6182375776833128,0.29915323990705894,0.7266209394773905,-0.01765238312776357,-0.4066652310604579,-1.8294749479222927,-0.46629604535697183
1781555783131890176,1.8495261669158936,-0.005469240713864565,0.013435954228043556,-0.058661237359046936,-0.8881282806396484,0.3951018452644348,0.23478156328201294,0.00046366453170776367,0.01621401309967041,0.0012565553188323975,-0.6183068641062621,0.2989544862975939,0.7266477819704359,-0.017484823289264626,-0.4061787060798514,-1.829239719496506,-0.46610778046127954
1781555783141926144,1.8595621585845947,-0.033741891384124756,0.017048265784978867,-0.05127416178584099,-0.8883851170539856,0.39455023407936096,0.23473815619945526,-0.005154311656951904,0.0002861618995666504,-0.0038727521896362305,-0.6183321035787351,0.2988124072210805,0.7266912831235542,-0.017214759154327377,-0.4055783306140868,-1.829122600905027,-0.4661639037901306
1781555783151961088,1.8695971965789795,-0.04367601498961449,0.015500569716095924,-0.038741856813430786,-0.8885985612869263,0.39406147599220276,0.23475132882595062,-0.0068939924240112305,-0.011920362710952759,-0.011255860328674316,-0.6183352334941539,0.29877489320295875,0.7267112401898057,-0.016908636118361752,-0.40504647861177256,-1.8290771330076239,-0.4664582065741116
1781555783161996032,1.8796322345733643,-0.028329815715551376,0.01060301624238491,-0.0361306257545948,-0.8887661099433899,0.39366358518600464,0.2347847819328308,-0.005917727947235107,-0.007204234600067139,-0.011197686195373535,-0.6183288259139155,0.2987630724515406,0.7267276084226396,-0.0166471846039062,-0.40461358601067454,-1.8290657628970868,-0.46674988184654614
1781555783172032000,1.8896682262420654,0.006494477856904268,0.016446923837065697,-0.037894170731306076,-0.8889338374137878,0.39332836866378784,0.2347119301557541,-0.003400266170501709,0.006009459495544434,-0.009583801031112671,-0.6183627538116374,0.2986699560342066,0.7267408233874408,-0.016481543859608837,-0.4042489685411255,-1.8289425710079255,-0.466764143603506
1781555783182066944,1.899703025817871,0.014450937509536743,0.025162117555737495,-0.04503384232521057,-0.8891499638557434,0.3929867446422577,0.23446479439735413,-0.002237975597381592,0.010959148406982422,-0.004575863480567932,-0.6184656228425718,0.2984794537270301,0.7267340743150852,-0.016366499959108105,-0.40387742277860794,-1.8286227151481462,-0.46651118956681564
1781555783192101888,1.9097380638122559,0.012858899310231209,0.02798520214855671,-0.044443417340517044,-0.8893954157829285,0.39262014627456665,0.23414833843708038,0.001577913761138916,3.814697265625e-06,-0.0007040202617645264,-0.6185968157028261,0.29826326181876367,0.7267139696330511,-0.016244868850920368,-0.40347878674352616,-1.8282219467291965,-0.46620629082495774
1781555783202137088,1.9197731018066406,-0.019833266735076904,0.008662370964884758,-0.033977728337049484,-0.8895865082740784,0.3922795355319977,0.23399333655834198,0.005629539489746094,-0.022421717643737793,0.0038301944732666016,-0.618663596338462,0.29814151696988933,0.7267106031190332,-0.016086820297756977,-0.40310845391162115,-1.828006098306378,-0.46614434931761
1781555783212173056,1.9298090934753418,-0.035787999629974365,-0.0005821273662149906,-0.0258225966244936,-0.8897062540054321,0.39195457100868225,0.23408189415931702,0.006466507911682129,-0.02737635374069214,0.01109623908996582,-0.6186328902004998,0.2981277151825768,0.7267467322406136,-0.01588680008685053,-0.4027552130380032,-1.8280660794590295,-0.46637276042040965
1781555783222208000,1.9398441314697266,-0.03950177878141403,0.010775189846754074,-0.023817501962184906,-0.8898177742958069,0.3916395902633667,0.23418575525283813,0.0015120506286621094,-0.0116957426071167,0.01209104061126709,-0.6185965752485093,0.29814739754218983,0.7267743838962254,-0.01566763696169516,-0.402412854208209,-1.8281444081095015,-0.46668558565789203
1781555783232242944,1.9498791694641113,-0.03044969029724598,0.037077099084854126,-0.021832648664712906,-0.8899747729301453,0.39133715629577637,0.23409412801265717,-0.006707966327667236,0.005208224058151245,0.0018067210912704468,-0.6186396036290344,0.298168284441276,0.7267342955843573,-0.015424987003571483,-0.4020841807488506,-1.828004699785618,-0.4669866997644159
1781555783242279168,1.9599151611328125,-0.0270853191614151,0.03964332118630409,-0.0214275810867548,-0.8901471495628357,0.39109721779823303,0.23384031653404236,-0.0010883212089538574,0.01335233449935913,-0.009322494268417358,-0.6187478683537372,0.29818959136414913,0.72663823766052,-0.015199353825070719,-0.4018234595096964,-1.8276903545465388,-0.46723449756138724
1781555783252314112,1.9699501991271973,-0.024844270199537277,0.019271738827228546,-0.02240309678018093,-0.8903099894523621,0.39083778858184814,0.23365366458892822,0.01154106855392456,0.010697245597839355,-0.015727639198303223,-0.6188282290359455,0.29818307378975695,0.7265766892580993,-0.014994682572686277,-0.4015415934396949,-1.8274492625028018,-0.4674231909118445
1781555783262350592,1.9799866676330566,-0.032947737723588943,-0.009696530178189278,-0.02726949192583561,-0.8904207944869995,0.39053958654403687,0.23372986912727356,0.016580522060394287,-0.002127140760421753,-0.016688838601112366,-0.6188020344225399,0.2981802803717546,0.726604054144619,-0.014802051183116664,-0.40121765627309086,-1.827498782886221,-0.46765978048530993
1781555783272386560,1.9900226593017578,-0.019294241443276405,-0.017590805888175964,-0.021692033857107162,-0.8904839158058167,0.39025646448135376,0.23396240174770355,0.003887176513671875,-0.017682522535324097,-0.009414047002792358,-0.6187117820871153,0.2981724910036117,0.7266872533190616,-0.014649214981527894,-0.4009101256578383,-1.8277256485531947,-0.4678738971707824
1781555783282421504,2.0000576972961426,-0.010898095555603504,0.0010694321244955063,-0.01890397071838379,-0.890552282333374,0.3900046646595001,0.23412178456783295,-0.009243249893188477,-0.021718502044677734,0.0004668235778808594,-0.6186501648244314,0.2981390903704705,0.7267557889447355,-0.014528304166525256,-0.400636645959023,-1.8278742103468844,-0.46799024773717535
1781555783292456704,2.0100927352905273,-0.01032764557749033,0.03128978610038757,-0.0141763249412179,-0.8906699419021606,0.38977739214897156,0.23405243456363678,-0.02026444673538208,-0.014334887266159058,0.00598357617855072,-0.6186813188498808,0.2980987613593106,0.7267484744908779,-0.014393639956816109,-0.4003898424824106,-1.827768880957953,-0.46806244687822146
1781555783302492672,2.0201287269592285,-0.022133970633149147,0.043631672859191895,-0.00711335614323616,-0.8908096551895142,0.38960856199264526,0.23380228877067566,-0.01867520809173584,-0.008062511682510376,0.002007126808166504,-0.6187863568096662,0.2981117713131459,0.7266570835708351,-0.014225115042354276,-0.4002065237859812,-1.8274676503025429,-0.4682300135681521
1781555783312527616,2.0301637649536133,-0.026931388303637505,0.02775297313928604,-0.000390472385333851,-0.8909037113189697,0.38954025506973267,0.23355728387832642,-0.002895057201385498,-0.010618746280670166,-0.012365937232971191,-0.6188886986747524,0.29818387399662416,0.7265431981981356,-0.014076928559753094,-0.400132362551587,-1.8271844092925027,-0.46847865974096087
1781555783322562560,2.040198564529419,-0.03651850298047066,0.004612235352396965,0.008548161946237087,-0.8909145593643188,0.3895453214645386,0.23350705206394196,0.011474311351776123,-0.009937167167663574,-0.014741897583007812,-0.6189113758181484,0.2983051213188428,0.7264761412443768,-0.01396910592407027,-0.40013785387457035,-1.8271286688081274,-0.4688072133368257
1781555783332598784,2.050234794616699,-0.029057923704385757,-0.0031624636612832546,0.009965229779481888,-0.8908688426017761,0.38958799839019775,0.23361006379127502,0.014007389545440674,-0.0020453333854675293,-0.007123857736587524,-0.6188715271326077,0.29845284197960337,0.7264509177470218,-0.01388949597466067,-0.40018421220998546,-1.827249450353042,-0.4691813722159958
1781555783342633472,2.060269594192505,-0.0006925951456651092,-0.008791321888566017,0.017394915223121643,-0.8907997012138367,0.3896842896938324,0.23371359705924988,0.006522417068481445,0.0034278929233551025,-0.006479635834693909,-0.6188298519495784,0.2985559316299826,0.7264441859604845,-0.01388519430416156,-0.4002887509252298,-1.827377243171015,-0.4693891342012587
1781555783352668416,2.0703046321868896,0.022459063678979874,-0.0017290180549025536,0.022118564695119858,-0.8907238841056824,0.3898714780807495,0.23369045555591583,0.001456916332244873,0.0023404359817504883,-0.009096384048461914,-0.6188369295600283,0.2985853904036159,0.7264241131313294,-0.013986417283810214,-0.40049201823595126,-1.8273738292015942,-0.46931750721319077
1781555783362704640,2.080340623855591,0.0393243283033371,0.0032244620379060507,0.02195238322019577,-0.8906542062759399,0.3900987207889557,0.23357664048671722,-0.0028699636459350586,0.0038526952266693115,-0.010584712028503418,-0.6188792837593399,0.29856244307329477,0.7263943751678185,-0.014145543014477499,-0.4007387910729345,-1.8272734650622633,-0.4690670247209318
1781555783372739584,2.0903756618499756,0.04125485196709633,-0.0014856038615107536,0.017277469858527184,-0.890596330165863,0.39033207297325134,0.23340746760368347,-0.0006847977638244629,0.0009795725345611572,-0.01375722885131836,-0.6189431196046117,0.29849086098206434,0.7263655671811954,-0.014341503219840441,-0.40099225472839195,-1.8271116682829256,-0.4686763528290513
1781555783382774528,2.1004106998443604,0.025854060426354408,-0.006355460733175278,0.02133958972990513,-0.8905266523361206,0.39054346084594727,0.23332010209560394,-0.0013648271560668945,-0.009104251861572266,-0.009992480278015137,-0.6189745430888665,0.2984493107532201,0.7263525703634899,-0.014509757836497016,-0.40122185173545377,-1.8270390531298748,-0.4683880255700501
1781555783392810496,2.1104466915130615,-0.010034165345132351,-0.00790848396718502,0.030117634683847427,-0.8904289603233337,0.3907705247402191,0.23331287503242493,-0.007520318031311035,-0.02025657892227173,-0.009283304214477539,-0.6189746411698658,0.2984920127355375,0.7263325375512869,-0.01463003856506726,-0.4014685206602493,-1.827058365229095,-0.4683206635971074
1781555783402845696,2.1204817295074463,-0.03930497169494629,-0.009093856438994408,0.032085977494716644,-0.8902970552444458,0.3909720182418823,0.23347841203212738,-0.0081862211227417,-0.018855959177017212,0.0015375614166259766,-0.6189076566327413,0.2986820571318931,0.726311391900482,-0.014634770429528628,-0.40168744300692655,-1.8272686677962127,-0.46868374088844517
1781555783412880640,2.130516767501831,-0.04502357542514801,0.00574088329449296,0.0320417694747448,-0.8901646733283997,0.39116308093070984,0.23366309702396393,-0.011721312999725342,-0.006717890501022339,0.012156009674072266,-0.6188342616013447,0.2989334338288621,0.7262715426289928,-0.014583106821804198,-0.4018950433719231,-1.8274992728876986,-0.469224683967302
1781555783422916608,2.1405527591705322,-0.047700583934783936,0.02281254529953003,0.03482610359787941,-0.890064001083374,0.3913685381412506,0.23370209336280823,-0.012401759624481201,0.008838921785354614,0.010118111968040466,-0.6188203563754622,0.29920386095413926,0.726173599858934,-0.014501816214926338,-0.40211830135210547,-1.8275680280616553,-0.4698031482935618
1781555783432951808,2.150587797164917,-0.029424108564853668,0.026372790336608887,0.029608704149723053,-0.8900044560432434,0.3915621042251587,0.23360514640808105,-0.0021923184394836426,0.023965299129486084,0.001044541597366333,-0.6188615021217097,0.29943887840228567,0.7260433408644109,-0.014420428200569529,-0.40232863551967546,-1.8274825572178817,-0.47029089480693637
1781555783442986496,2.1606225967407227,-0.008812840096652508,0.008005768060684204,0.015509132295846939,-0.889957845211029,0.39171522855758667,0.23352575302124023,0.012012898921966553,0.02959519624710083,-0.003911495208740234,-0.6188941476111918,0.2995798933251365,0.7259578277557306,-0.014393916808839247,-0.40249506908598365,-1.8274119650401968,-0.4705529771028546
1781555783453022464,2.170658588409424,0.007343227043747902,-0.008913692086935043,0.003949148580431938,-0.8899238109588623,0.39180827140808105,0.23349978029727936,0.015213608741760254,0.02384123206138611,-0.006479471921920776,-0.618903814145351,0.2996059694712103,0.7259381185407864,-0.014432160657803152,-0.40259617806125036,-1.827394036480476,-0.4705485693814449
1781555783463057408,2.1806936264038086,0.014633097685873508,-0.012522276490926743,-0.0023974303621798754,-0.8899112939834595,0.39181843400001526,0.23352986574172974,0.006747841835021973,0.010616838932037354,-0.006509676575660706,-0.6188903117692666,0.2995572711580253,0.7259685785347363,-0.014485651216027944,-0.4026072378743236,-1.827429134307089,-0.47040675485079847
1781555783473092608,2.1907286643981934,0.014487954787909985,-0.0003307247534394264,-0.005391888786107302,-0.8899413347244263,0.39176031947135925,0.2335127741098404,-0.0067108869552612305,-0.002951115369796753,-0.007392764091491699,-0.618896574417883,0.29947493761503613,0.7259966588641068,-0.014512660316842264,-0.40254405763179235,-1.8274028674186262,-0.4702268462858664
1781555783483128576,2.2007646560668945,0.011034633964300156,0.01002977043390274,-0.0016424243804067373,-0.8899810314178467,0.39171499013900757,0.23343759775161743,-0.013339221477508545,-0.009009301662445068,-0.00429631769657135,-0.6189268354079801,0.2994175059742173,0.7259944585735012,-0.014517963577708546,-0.40249478921059123,-1.8273128800636482,-0.4701038380864757
1781555783493163520,2.2107996940612793,-0.00497149582952261,0.021344343200325966,0.005832003429532051,-0.8900134563446045,0.3917272090911865,0.23329424858093262,-0.016450345516204834,-0.00912824273109436,0.0010502934455871582,-0.618985160567823,0.29941551464219696,0.7259459185466494,-0.014504997950330608,-0.40250807913248304,-1.8271532483050843,-0.4700852386175795
1781555783503198720,2.220834732055664,-0.004673488438129425,0.032889414578676224,0.011956209316849709,-0.8900396227836609,0.3917986750602722,0.23307405412197113,-0.014867722988128662,-0.006590485572814941,0.0003854334354400635,-0.6190748103451621,0.2994712713050952,0.7258470820956924,-0.014471658259711499,-0.4025857408057142,-1.8269145355478822,-0.47017572724319867
1781555783513234688,2.2308707237243652,-0.008623755536973476,0.033901017159223557,0.023429904133081436,-0.8900354504585266,0.3919677436351776,0.23280596733093262,-0.009622931480407715,-0.0031889677047729492,-0.0050837695598602295,-0.6191834227173751,0.2995734737946147,0.7257125605828931,-0.014458811719673888,-0.4027695176571889,-1.8266337883217822,-0.4703137002179095
1781555783523269632,2.24090576171875,-0.011731664650142193,0.027707301080226898,0.027707740664482117,-0.8899853229522705,0.3922264575958252,0.23256094753742218,-0.0013568401336669922,0.0006568431854248047,-0.007066607475280762,-0.619281765502454,0.2997143408401546,0.725569972585726,-0.014479108879382618,-0.4030507640708188,-1.8263898667304315,-0.4704856461400401
1781555783533304576,2.2509407997131348,-0.014856617897748947,0.02095925062894821,0.025833407416939735,-0.8899232149124146,0.3924722671508789,0.23238368332386017,0.005813717842102051,0.0030813217163085938,-0.00107574462890625,-0.6193530430575239,0.2998681740331576,0.7254453265189797,-0.01449022853344421,-0.40331799548012837,-1.826220476089883,-0.4707054259261012
1781555783543340800,2.260976791381836,-0.017292343080043793,0.02004392258822918,0.026332750916481018,-0.8898641467094421,0.3926827013492584,0.2322545200586319,0.007127940654754639,-0.0049111247062683105,0.006103023886680603,-0.6194052057132697,0.30001612990758664,0.7253396295776854,-0.014489486126757555,-0.40354679687978323,-1.8261008122078088,-0.4709389386608371
1781555783553375488,2.2710115909576416,-0.02219974994659424,0.010913407430052757,0.029340524226427078,-0.8897989392280579,0.3928808569908142,0.23216943442821503,0.007520437240600586,-0.011319547891616821,0.0028311312198638916,-0.6194398654927041,0.3001743979048686,0.7252448175062474,-0.01447848385191797,-0.4037622807062022,-1.8260291823137362,-0.47121193049753646
1781555783563410432,2.2810466289520264,-0.014730383642017841,0.0015944745391607285,0.025788933038711548,-0.8897151350975037,0.3930596709251404,0.23218826949596405,0.009557545185089111,-0.0043877363204956055,0.0013627111911773682,-0.6194324082949815,0.30032931759500187,0.7251871723871046,-0.014473681586744624,-0.40395673788172365,-1.8260720245750974,-0.4714938196801883
1781555783573446400,2.2910826206207275,-0.004356838297098875,-0.011945702135562897,0.012631320394575596,-0.8896374702453613,0.39318904280662537,0.2322664111852646,0.010883688926696777,0.00793406367301941,-0.0062837302684783936,-0.6194000794014217,0.3004123895470548,0.7251797026076685,-0.014505452595778009,-0.4040974188345895,-1.8261755785505467,-0.471619200963116
1781555783583481600,2.3011176586151123,-0.005546738859266043,-0.008281991817057133,0.003809332614764571,-0.8896008133888245,0.3932122588157654,0.23236724734306335,0.004545331001281738,0.014151602983474731,-0.009909287095069885,-0.6193591403268434,0.3004418038398833,0.7252022805573003,-0.01451284349680454,-0.4041226660444671,-1.8262917807448351,-0.47168363777927647
1781555783593516544,2.311152696609497,-0.012856051325798035,-0.006358656566590071,0.004553685896098614,-0.8895749449729919,0.3932235836982727,0.2324467897415161,-0.005795478820800781,0.0015822649002075195,-0.017252117395401,-0.6193271497720387,0.3004742067938018,0.7252162760381837,-0.014505954150641317,-0.40413498559694744,-1.826382592209104,-0.4717655351627191
1781555783603552512,2.3211886882781982,-0.03015248291194439,-0.013675425201654434,0.01557597704231739,-0.8895152807235718,0.39326074719429016,0.2326119840145111,-0.008967876434326172,-0.016155093908309937,-0.017325684428215027,-0.6192612250435394,0.30057545074569036,0.72523126729024,-0.014472154363675759,-0.40417542907495385,-1.8265728331461204,-0.4720181351918338
1781555783613587712,2.331223726272583,-0.027725810185074806,-0.02029564417898655,0.01990334689617157,-0.8894003629684448,0.39335721731185913,0.23288893699645996,-0.010151088237762451,-0.012726634740829468,-0.018396109342575073,-0.6191501029251318,0.30073454056401067,0.7252607862934033,-0.014448294062796123,-0.4042803275442455,-1.82689588838276,-0.4723845534404831
1781555783623622656,2.3412587642669678,-0.007731063757091761,-0.019796835258603096,0.01948416605591774,-0.8892706632614136,0.39349010586738586,0.23315992951393127,-0.011654078960418701,0.00026294589042663574,-0.017492175102233887,-0.6190400919694987,0.3008634181042659,0.7253007455065877,-0.01447472795642733,-0.40442487664625004,-1.8272167911377823,-0.4726378012803932
1781555783633658624,2.351294755935669,0.017879491671919823,-0.0020982646383345127,0.02109857276082039,-0.8891718983650208,0.3936595916748047,0.2332499474287033,-0.014117896556854248,0.014970749616622925,-0.009678244590759277,-0.61900164294463,0.30091750673382506,0.7253093349947601,-0.01456119686570562,-0.4046092664384244,-1.8273387590113424,-0.4726509221782569
1781555783643693568,2.3613297939300537,0.03031059540808201,0.009776238352060318,0.024496501311659813,-0.8890931010246277,0.39392730593681335,0.23309893906116486,-0.012136876583099365,0.02092871069908142,-0.003560870885848999,-0.6190590010127175,0.30092340150113517,0.7252548332519856,-0.014718017522100743,-0.4049004995483764,-1.8272015909579622,-0.4724457919015909
1781555783653728512,2.3713645935058594,0.030094079673290253,0.013219306245446205,0.020601628348231316,-0.8890334367752075,0.3942123353481293,0.23284372687339783,-0.0034378767013549805,0.016493231058120728,0.001531362533569336,-0.6191578645952965,0.30090728174782233,0.7251735458533078,-0.014888932122755048,-0.4052106270101015,-1.826949433842153,-0.4721632525179024
1781555783663764480,2.3814005851745605,0.005411902908235788,0.0064777797088027,0.021010955795645714,-0.8889623880386353,0.3944753110408783,0.23266930878162384,0.005829513072967529,0.005838990211486816,0.0016445964574813843,-0.6192250821101443,0.3009342777666648,0.7251022100886542,-0.015020780199401985,-0.4054967845036974,-1.8267853967872614,-0.4720193800977716
1781555783673799424,2.3914356231689453,-0.024106839671730995,-0.0016379370354115963,0.024103151634335518,-0.8888921737670898,0.3946578800678253,0.2326277494430542,0.011038899421691895,-0.004368633031845093,0.003410428762435913,-0.6192410198734849,0.3010377012484246,0.7250449484553204,-0.015052926955335956,-0.4056954813248026,-1.826761003056528,-0.472154865024332
1781555783683834624,2.40147066116333,-0.036329951137304306,-0.011207474395632744,0.011590823531150818,-0.8888356685638428,0.39470309019088745,0.23276759684085846,0.013927221298217773,0.0032614171504974365,0.0018210411071777344,-0.6191863487201582,0.30118223657463905,0.7250331413209065,-0.01498360728169754,-0.40574467369852374,-1.8269238104896088,-0.4725200357358088
1781555783693870592,2.4115066528320312,-0.02264183573424816,-0.01256968080997467,-0.005507470108568668,-0.8888267278671265,0.3946212828159332,0.2329406589269638,0.008562326431274414,0.015275627374649048,-0.0014952123165130615,-0.619118914268408,0.3012648462699293,0.7250584933773213,-0.014884137704989487,-0.4056556335167109,-1.8271084767490717,-0.47281859889829303
1781555783703905536,2.421541690826416,-0.006556876003742218,-0.011537972837686539,-0.006818544585257769,-0.8888378739356995,0.39452266693115234,0.23306547105312347,-0.0011921525001525879,0.012795507907867432,-0.00758633017539978,-0.6190700165499664,0.301278509440621,0.7250958544629076,-0.014824033131173128,-0.40554833115552197,-1.8272368025155048,-0.4729395094053781
1781555783713940736,2.431576728820801,0.003991372417658567,0.003541245125234127,-0.010838319547474384,-0.8888552188873291,0.39446961879730225,0.23308788239955902,-0.009261727333068848,0.010223954916000366,0.004079446196556091,-0.6190611536625624,0.3012574336422702,0.7251123364224231,-0.014808790914421803,-0.40549059807187676,-1.8272555967718154,-0.4729250197961404
1781555783723976704,2.441612720489502,0.02792413718998432,0.02898774854838848,-0.01571084000170231,-0.8889438509941101,0.3943910598754883,0.23288245499134064,-0.015246093273162842,0.018343836069107056,0.009472817182540894,-0.6191443106664285,0.3011670696823039,0.7250790445198545,-0.014797912653782889,-0.4054051128759682,-1.8270148969116444,-0.47273501689157726
1781555783734011648,2.4516477584838867,0.0772237777709961,0.051156435161828995,-0.004056047648191452,-0.8890827894210815,0.39441147446632385,0.2323174625635147,-0.017853856086730957,0.020932763814926147,-0.006655216217041016,-0.6193703786957443,0.30097188046307544,0.7249652816673734,-0.014887152813061078,-0.40542731760838085,-1.8263818163070349,-0.4721669943347037
1781555783744046592,2.4616827964782715,0.10551533848047256,0.07729322463274002,0.002473491011187434,-0.8892146348953247,0.394682377576828,0.23135057091712952,-0.0011509060859680176,0.02084493637084961,-0.019360199570655823,-0.6197538524580278,0.3006893922101851,0.7247490439349225,-0.015160807673448606,-0.4057221421590336,-1.82532740911209,-0.4711439819152197
1781555783754082560,2.4717187881469727,0.04047641158103943,0.10137446224689484,-0.04219890758395195,-0.889498233795166,0.3947104513645172,0.2302091419696808,0.026491761207580566,0.05620196461677551,0.004867643117904663,-0.6202119168247194,0.3003950965946148,0.7244773012956066,-0.0152476966013899,-0.40575270047254486,-1.8240474190072324,-0.4702817966178074
1781555783764117504,2.4817535877227783,-0.07680706679821014,0.09380176663398743,-0.14921323955059052,-0.8900905251502991,0.39384058117866516,0.22940877079963684,0.04865992069244385,0.12376800179481506,0.0401071161031723,-0.6205465139574952,0.3001158406478521,0.7243168287354185,-0.01475108228438872,-0.4048061572969055,-1.8230430034830043,-0.4702037824955165
1781555783774152448,2.491788625717163,-0.14442101120948792,0.09951145201921463,-0.2504724860191345,-0.891104519367218,0.3917701840400696,0.22901751101016998,0.019491910934448242,0.1455833911895752,0.0631730854511261,-0.6207314835257709,0.29975343082032,0.7243318528775053,-0.013555519540363539,-0.40255477529646927,-1.8223561254650864,-0.47088922771813385
1781555783784188416,2.5018246173858643,-0.13819746673107147,0.15128062665462494,-0.28391459584236145,-0.8924563527107239,0.3889938294887543,0.22848547995090485,-0.04968231916427612,0.12643280625343323,0.026855111122131348,-0.6209780562320885,0.2992327992563256,0.7243634917747837,-0.011982820559438077,-0.3995391603750599,-1.8214315309182287,-0.47171422721101214
1781555783794223616,2.511859655380249,-0.021340880542993546,0.16831527650356293,-0.2916494607925415,-0.8939386010169983,0.38624846935272217,0.2273455262184143,-0.09715026617050171,0.12550079822540283,-0.009282231330871582,-0.6214628561062371,0.298467510545622,0.7242857905902323,-0.010545228830846111,-0.3965609402571774,-1.8198357271810768,-0.4718305086907011
1781555783804258560,2.521894693374634,0.08901119232177734,0.1865997463464737,-0.3514091968536377,-0.8955665826797485,0.3834696412086487,0.22563570737838745,-0.09373694658279419,0.15690508484840393,-0.00583280622959137,-0.6221682870794412,0.2972077780547693,0.7242136364002547,-0.00941926595503128,-0.39355020608195307,-1.81760704104018,-0.47060539265686435
1781555783814294528,2.531930685043335,0.19617731869220734,0.23159146308898926,-0.4235691428184509,-0.8975319266319275,0.38028067350387573,0.2232113480567932,-0.08089226484298706,0.18188369274139404,0.0243319571018219,-0.6231563112830487,0.29535850111196943,0.7241332935772616,-0.008404278573446243,-0.3900997403281998,-1.814546003137567,-0.4680872754524204
1781555783824329728,2.5419657230377197,0.277811199426651,0.26181408762931824,-0.4420091509819031,-0.8997408747673035,0.37688666582107544,0.22005285322666168,-0.06948232650756836,0.14227846264839172,0.03437227010726929,-0.6244331663978172,0.293030619736489,0.7239885922102469,-0.007548861187137057,-0.3864327855791714,-1.8106612891756069,-0.4644182450521375
1781555783834364672,2.5520007610321045,0.3289113938808441,0.2582702040672302,-0.4157687723636627,-0.9019305109977722,0.3736775815486908,0.21653339266777039,-0.056672513484954834,0.06435650587081909,0.028660207986831665,-0.6258478205519964,0.2905309613140972,0.7237806711936824,-0.006922839110208039,-0.38297065630052607,-1.8064147700679003,-0.46013016126430745
1781555783844400640,2.5620367527008057,0.3557398319244385,0.23480668663978577,-0.3894902765750885,-0.9039648175239563,0.3707852363586426,0.21299323439598083,-0.03715163469314575,0.00503876805305481,0.006626516580581665,-0.6272642666074336,0.28799478122531763,0.7235714356983651,-0.006556059240790147,-0.37985437087171214,-1.8021968581275434,-0.4554891110345566
1781555783854435584,2.5720717906951904,0.35902243852615356,0.22474421560764313,-0.3702201843261719,-0.9058518409729004,0.36812224984169006,0.20956812798976898,-0.013826072216033936,-0.021213561296463013,-0.0038185864686965942,-0.6286301637488829,0.28550030253530345,0.7233765579367485,-0.006341124903396236,-0.37698863761393175,-1.798145782313194,-0.450782350779287
1781555783864470528,2.582106590270996,0.3497900366783142,0.20428766310214996,-0.3498392701148987,-0.9076169729232788,0.3656056225299835,0.20630982518196106,0.01549673080444336,-0.036137908697128296,-0.0022387802600860596,-0.6299258756192735,0.28308309718854624,0.7232004395673133,-0.006196690918165554,-0.3742834017113203,-1.794307756730044,-0.4461757727867538
1781555783874506496,2.5921425819396973,0.2994597554206848,0.1734924614429474,-0.3282913863658905,-0.9092444181442261,0.3632073998451233,0.20335881412029266,0.04649728536605835,-0.05546814203262329,0.0019328594207763672,-0.6310973923605954,0.2808247392739267,0.7230607670015723,-0.006051967604919068,-0.37170808927204274,-1.7908320411496568,-0.4419186269237717
1781555783884541440,2.602177619934082,0.24320422112941742,0.14008976519107819,-0.29975026845932007,-0.910707414150238,0.360892653465271,0.20091912150382996,0.06378364562988281,-0.0641244649887085,-0.0012121200561523438,-0.6320653323025688,0.27882995312437514,0.7229892236990643,-0.005819701326728164,-0.36922487872372944,-1.7879367244583648,-0.4383307352510927
1781555783894576640,2.612212657928467,0.16488490998744965,0.10219258815050125,-0.27808839082717896,-0.9119876623153687,0.35867688059806824,0.19907188415527344,0.07272368669509888,-0.05932992696762085,-0.01529499888420105,-0.6327985975588396,0.2771365632869219,0.7230015696120942,-0.0054865970629269165,-0.3668500879705266,-1.7857088125244813,-0.4355033017949369
1781555783904612608,2.622248649597168,0.11682231724262238,0.07679268717765808,-0.2632750868797302,-0.9131298065185547,0.35648781061172485,0.19776283204555511,0.07026493549346924,-0.06025373935699463,-0.029321104288101196,-0.6333192892834928,0.27571953121890846,0.7230906978427557,-0.0050137696641793985,-0.3645060232403258,-1.7840792427431442,-0.433426264377085
1781555783914647552,2.6322836875915527,0.06913229823112488,0.04169555753469467,-0.2362930029630661,-0.9141337275505066,0.35439833998680115,0.19687902927398682,0.06196087598800659,-0.08332595229148865,-0.045633912086486816,-0.6336720759580653,0.27451024412351244,0.7232452129009606,-0.0044932197951148755,-0.3622705799647388,-1.7829282499194787,-0.4318459919248701
1781555783924682496,2.6423187255859375,-0.012972431257367134,0.002434701658785343,-0.2090400755405426,-0.9149659276008606,0.35241734981536865,0.19656984508037567,0.057452380657196045,-0.09681731462478638,-0.0552123486995697,-0.6337983296794536,0.27361221484009235,0.7234785946984198,-0.0038614871323064885,-0.36015290884537293,-1.7824180440785946,-0.43104032766291844
1781555783934718720,2.6523547172546387,-0.08143564313650131,-0.04625680670142174,-0.19332849979400635,-0.9156327247619629,0.35047945380210876,0.19692954421043396,0.04989469051361084,-0.09515410661697388,-0.06080588698387146,-0.6336607274253482,0.2730357811732694,0.7238205797805638,-0.0030776621785012664,-0.35808297970128106,-1.7826439949664301,-0.43109103189328485
1781555783944753664,2.6623897552490234,-0.11788473278284073,-0.09299421310424805,-0.17628106474876404,-0.9161422848701477,0.3485768735408783,0.1979326754808426,0.03468787670135498,-0.08272305130958557,-0.06298400461673737,-0.6332682588759625,0.27268595646748084,0.7242987711134559,-0.0022160401547795553,-0.35605231500246876,-1.7835760266494136,-0.4317387748046601
1781555783954788608,2.672424793243408,-0.1245889738202095,-0.10423049330711365,-0.16116496920585632,-0.9165276288986206,0.34677770733833313,0.1993042230606079,0.01082700490951538,-0.06175881624221802,-0.049447670578956604,-0.6327289525931448,0.27246135720156517,0.724856482095399,-0.001372223404841327,-0.3541334405325458,-1.78491857079222,-0.4326423668091951
1781555783964824576,2.6824607849121094,-0.10706084221601486,-0.08940627425909042,-0.14675593376159668,-0.9168717265129089,0.3451175391674042,0.20059970021247864,-0.014082252979278564,-0.043085068464279175,-0.0339127779006958,-0.6322182206823986,0.2722715830960525,0.7253744118526164,-0.0005841400635495404,-0.35236402960454205,-1.7861894250234058,-0.43352056454733107
1781555783974859520,2.692495584487915,-0.10999485105276108,-0.0806368812918663,-0.1197858452796936,-0.9171602129936218,0.3436887860298157,0.20173101127147675,-0.027099549770355225,-0.0364987850189209,-0.03934702277183533,-0.6317709730867087,0.27212829583062154,0.7258179506759888,0.00010797730074904168,-0.35084214392888935,-1.7873006340446191,-0.4343284857254294
1781555783984894464,2.7025306224823,-0.11363326013088226,-0.08006882667541504,-0.1017511859536171,-0.9173797965049744,0.342452734708786,0.20283116400241852,-0.023461878299713135,-0.04362460970878601,-0.032527923583984375,-0.6313349629792979,0.2720889121503411,0.7262115455629594,0.0007613203242683513,-0.34952623528076093,-1.788394050755029,-0.4352578310862899
1781555783994930432,2.712566614151001,-0.1235644519329071,-0.0985807329416275,-0.08173299580812454,-0.9175033569335938,0.34138253331184387,0.20407184958457947,-0.0124434232711792,-0.051328301429748535,-0.023774057626724243,-0.6308424002875846,0.2721313013668795,0.7266226521625494,0.0013496647396117024,-0.34838740311083827,-1.7896545219682636,-0.43627028424617104
1781555784004965632,2.7226016521453857,-0.1289301961660385,-0.10185881704092026,-0.06945023685693741,-0.9175595641136169,0.34041592478752136,0.20542991161346436,-0.004696905612945557,-0.04979702830314636,0.0012046098709106445,-0.6303025752087265,0.2722613030718015,0.7270410851042612,0.001924291118434884,-0.3473592045532237,-1.7910514140005294,-0.43743413679337095
1781555784015000576,2.7326366901397705,-0.11353738605976105,-0.08811743557453156,-0.044622648507356644,-0.9175587892532349,0.33964449167251587,0.206705704331398,-0.005307912826538086,-0.053786396980285645,0.012914031744003296,-0.6297945844578776,0.2724328073809315,0.7274154371184587,0.002411910294233563,-0.34653889430446405,-1.7923752542249884,-0.4385464607752402
1781555784025036544,2.7426726818084717,-0.08688047528266907,-0.06491357833147049,-0.02666069194674492,-0.9175180196762085,0.3391115963459015,0.20775938034057617,-0.00011497735977172852,-0.04692104458808899,0.020130634307861328,-0.629374707986076,0.27262694508429486,0.727704774935077,0.002787816807770593,-0.3459723720615691,-1.7934774324605192,-0.4395208262179405
1781555784035071488,2.7527077198028564,-0.06541379541158676,-0.04963396117091179,0.00012085454363841563,-0.9174421429634094,0.3388453722000122,0.20852743089199066,0.0088881254196167,-0.037087589502334595,0.01460181176662445,-0.6290684783470039,0.2728176492797343,0.7278971390182005,0.00302006192446923,-0.3456894041267247,-1.7942914299580912,-0.4402634652257439
1781555784045106688,2.762742757797241,-0.06341136991977692,-0.05756458640098572,0.011309061199426651,-0.9173119068145752,0.33876851201057434,0.20922492444515228,0.025740742683410645,-0.016930103302001953,0.0005376636981964111,-0.6287906410362019,0.2730417968238419,0.7280526369307686,0.0031616730348720773,-0.34560771893092096,-1.7950450075228388,-0.4409401093487039
1781555784055142656,2.7727787494659424,-0.07821082323789597,-0.07554145902395248,0.012820671312510967,-0.9171304702758789,0.3387390673160553,0.2100657969713211,0.032792091369628906,-0.009500175714492798,0.0032368898391723633,-0.6284555115631906,0.273307862429139,0.7282415195796798,0.0032850290583631464,-0.3455764201510432,-1.7959592215819744,-0.4416913146060954
1781555784065177600,2.782813787460327,-0.11115838587284088,-0.09448771923780441,0.010512509383261204,-0.9169092178344727,0.3386482298374176,0.21117474138736725,0.02633005380630493,-0.02292865514755249,0.010993227362632751,-0.6280131307182811,0.27365384937890064,0.728492238781206,0.003478549526240709,-0.34547986631229904,-1.7971605490184583,-0.44271121245261263
1781555784075212544,2.792848587036133,-0.12155643105506897,-0.09098152816295624,0.005201100371778011,-0.9166837930679321,0.3384598195552826,0.21245193481445312,0.004559159278869629,-0.028248637914657593,0.022518157958984375,-0.6275029720558253,0.27404731721696834,0.7287825698548275,0.0037536605883520756,-0.3452796196962662,-1.7985369807606517,-0.44394068884805665
1781555784085248512,2.802884578704834,-0.08887358754873276,-0.07479456812143326,0.005557964090257883,-0.9164829254150391,0.3382847309112549,0.21359440684318542,-0.016698837280273438,-0.01458480954170227,0.02056705951690674,-0.6270460517995601,0.27440928594419534,0.7290382356363563,0.0040119795269965295,-0.34509358435437754,-1.7997678812826166,-0.44507227938350463
1781555784095283456,2.8129196166992188,-0.029946086928248405,-0.0647045224905014,-0.004474962595850229,-0.9163326025009155,0.3381791114807129,0.21440500020980835,-0.023837685585021973,0.01341390609741211,0.005962491035461426,-0.6267220026030493,0.27460293835076865,0.7292432534991802,0.004127777553330944,-0.3449813211933022,-1.800642996219362,-0.44568592994757256
1781555784105318656,2.8229546546936035,0.03247787430882454,-0.04919533431529999,-0.00984629150480032,-0.9162375926971436,0.33809471130371094,0.21494370698928833,-0.01555567979812622,0.04102519154548645,-0.011406749486923218,-0.6265075467685559,0.2745576906325634,0.7294449448621435,0.004064879050995083,-0.3448916603296014,-1.801223354967951,-0.4456283466227688
1781555784115354624,2.8329906463623047,0.06878182291984558,-0.04101317375898361,-0.0013633251655846834,-0.9161655902862549,0.338150292634964,0.2151632308959961,-0.002947688102722168,0.0541989803314209,-0.025176018476486206,-0.6264213916779909,0.2743730115283872,0.7295896563513136,0.003834996790863406,-0.34495071874680866,-1.801467939783469,-0.44507481102472046
1781555784125389568,2.8430256843566895,0.0889267697930336,-0.05403896048665047,0.005330796353518963,-0.916060209274292,0.33833909034729004,0.21531441807746887,0.014586269855499268,0.04296275973320007,-0.030316844582557678,-0.6263630801987267,0.27412522706259274,0.7297345896147577,0.003470277829279311,-0.3451513228885963,-1.8016499540855488,-0.4442387816224043
1781555784135425536,2.8530616760253906,0.038342688232660294,-0.08309950679540634,-0.0034997127950191498,-0.9159047603607178,0.33851417899131775,0.2156999409198761,0.030773043632507324,0.017625927925109863,-0.0285051167011261,-0.6262110188260922,0.27392012919479725,0.7299436511072906,0.0031162896040766003,-0.34533739775501016,-1.8020865924665648,-0.44353020036843344
1781555784145460480,2.8630967140197754,-0.027062149718403816,-0.11244035512208939,-0.008594073355197906,-0.915709376335144,0.33846670389175415,0.21660196781158447,0.028410911560058594,-0.004482388496398926,-0.006915733218193054,-0.6258514479871237,0.27388414609029366,0.7302660192444544,0.0029816993922830953,-0.3452869568115057,-1.8030672666871967,-0.443466687652639
1781555784155495680,2.87313175201416,-0.07977036386728287,-0.11113379895687103,-0.0010575941996648908,-0.9154839515686035,0.3382987380027771,0.21781368553638458,0.0018183588981628418,-0.027278929948806763,0.014241889119148254,-0.6253669459002859,0.27403044677657346,0.7306258659885236,0.0030387754818506545,-0.345108467365041,-1.8043754611948415,-0.44400025215159844
1781555784165531648,2.8831677436828613,-0.11983522772789001,-0.07488338649272919,0.006160104647278786,-0.9152648448944092,0.3381035029888153,0.21903479099273682,-0.032717883586883545,-0.034392595291137695,0.02071128785610199,-0.6248775243509416,0.27435504182792525,0.730921822160999,0.0032651272084780903,-0.34490098308681105,-1.8056916452594827,-0.4450435900071939
1781555784175566592,2.893202781677246,-0.15087836980819702,0.00943015981465578,0.03152857720851898,-0.9151292443275452,0.3379663825035095,0.2198113203048706,-0.05944949388504028,-0.02894541621208191,0.030066579580307007,-0.6245645005941152,0.27485396129329237,0.7309999733128403,0.0036673601419872446,-0.34475528708986974,-1.8065275939088623,-0.4465173607773392
1781555784185601536,2.9032375812530518,-0.13430871069431305,0.0580136775970459,0.04462413862347603,-0.9150897264480591,0.33799850940704346,0.21992619335651398,-0.04671740531921387,-0.021622806787490845,0.015104860067367554,-0.6245156149766945,0.27544082367288064,0.7308183445000767,0.004129400507194977,-0.3447894299927685,-1.8066560813578705,-0.4480961273044105
1781555784195637504,2.913273572921753,-0.09935712069272995,0.017829902470111847,0.04501375928521156,-0.9150241017341614,0.33815786242485046,0.21995458006858826,0.0012363195419311523,-0.00965145230293274,-0.0036460310220718384,-0.6245018852609662,0.2759809076547917,0.7306242737654708,0.004477900569621738,-0.3449587616374719,-1.8067017044392029,-0.4494432736707457
1781555784205672448,2.9233086109161377,-0.03429556265473366,-0.018108122050762177,0.05461312457919121,-0.9148489832878113,0.3384658694267273,0.22020989656448364,0.030602097511291504,-0.0008041262626647949,-0.006892085075378418,-0.6243991241842602,0.2763763968304707,0.730562135687096,0.004566682968995955,-0.34528606156847663,-1.807009017635492,-0.4502712706720118
1781555784215707648,2.9333436489105225,0.03218412771821022,-0.01257407572120428,0.061636943370103836,-0.9146151542663574,0.3389977514743805,0.22036346793174744,0.024859726428985596,-0.0015037953853607178,-0.012508124113082886,-0.6243391906760897,0.27658459751554254,0.7305358935195851,0.004358081542875389,-0.3458513482664371,-1.807225884520497,-0.4504034983772216
1781555784225743616,2.9433796405792236,0.09199047088623047,0.005571372807025909,0.06492568552494049,-0.9143953323364258,0.3397088944911957,0.22018012404441833,0.0077790021896362305,-0.001131594181060791,-0.001689523458480835,-0.6244154064948443,0.27661607473990285,0.7304612293551241,0.003927514952486852,-0.3466073556938269,-1.8070911165762826,-0.4499067461811169
1781555784235778560,2.9534146785736084,0.11592590063810349,0.02904500812292099,0.07012443989515305,-0.9142009019851685,0.3405696153640747,0.21965616941452026,-0.0008075237274169922,-0.0011226534843444824,0.002405032515525818,-0.6246284248683269,0.27652694934647903,0.7303156371790264,0.003343457223004011,-0.34752267638137574,-1.8065977359954273,-0.44895818933905957
1781555784245813504,2.963449716567993,0.11291439831256866,0.01858224719762802,0.058689892292022705,-0.9140427708625793,0.3414117395877838,0.21900640428066254,0.004481673240661621,-0.003734767436981201,0.0023375600576400757,-0.6248913437199942,0.2763943092889756,0.7301434026504661,0.0027536250664758418,-0.3484184776507266,-1.8059648801802854,-0.4479053028777579
1781555784255849472,2.9734857082366943,0.06828673928976059,-0.01762409321963787,0.051114264875650406,-0.9138572812080383,0.3421126902103424,0.21868593990802765,0.00939267873764038,-0.008708208799362183,0.006213277578353882,-0.6250215188071274,0.2762983235826365,0.7300700007518093,0.0022409460772659746,-0.34916434965482207,-1.8056792196367517,-0.447066620451287
1781555784265883904,2.983520030975342,-0.016088861972093582,-0.012848779559135437,0.05870587006211281,-0.9136401414871216,0.3426505923271179,0.2187519371509552,-0.004557490348815918,-0.016036182641983032,0.011503219604492188,-0.6249961899208789,0.2764177763531468,0.7300473846799297,0.0019653072424167532,-0.34973682829926134,-1.8058013278391054,-0.44695091556627964
1781555784275918848,2.9935550689697266,-0.04452263563871384,0.007095100358128548,0.06365375965833664,-0.9134294390678406,0.3431444466114044,0.2188580185174942,-0.019843995571136475,-0.013478249311447144,0.00474432110786438,-0.6249540138474696,0.27674418423614616,0.7299600441355246,0.001890741080744258,-0.350262569875992,-1.8059633995307895,-0.4474383230988284
1781555784285955072,3.0035910606384277,-0.041435498744249344,-0.00676052737981081,0.05030626058578491,-0.913234531879425,0.3435647189617157,0.21901170909404755,-0.01677340269088745,0.0033438801765441895,-0.005693793296813965,-0.6248925381032236,0.27709566364845567,0.7298793400339895,0.001880664832589491,-0.350710034816879,-1.80617090169295,-0.4480550060327366
1781555784295990016,3.0136260986328125,-0.03081321343779564,-0.005487402901053429,0.03585328534245491,-0.9130746722221375,0.34387582540512085,0.21918979287147522,-0.007762730121612549,0.01792532205581665,-0.005398869514465332,-0.6248212856900766,0.2773604394795756,0.7298397641132387,0.001867260380702954,-0.35104132221182904,-1.806395024943599,-0.4485239923365436
1781555784306024704,3.023660898208618,-0.02216140180826187,-0.0005911816842854023,0.030277159065008163,-0.9129593968391418,0.344108909368515,0.2193036675453186,-0.005741715431213379,0.022559762001037598,-0.006199374794960022,-0.6247756719460776,0.2775703523751514,0.7297989653399772,0.0018700311484388934,-0.3512895746535162,-1.806541601843768,-0.4489070783957339
1781555784316060928,3.0336971282958984,0.00588567927479744,-0.011737043969333172,0.030868912115693092,-0.9128471612930298,0.34436702728271484,0.2193656861782074,-0.0028174519538879395,0.013192147016525269,-0.013311043381690979,-0.6247510690779143,0.27770136686300495,0.7297703711781741,0.001796052493400889,-0.3515645043223829,-1.8066337652055309,-0.44905355870763486
1781555784326095872,3.043731927871704,0.016464021056890488,-0.025556717067956924,0.038949742913246155,-0.9126818776130676,0.3447256088256836,0.21949145197868347,0.0032578110694885254,0.00785931944847107,-0.024331510066986084,-0.624701414536676,0.2777921823944351,0.7297788897357254,0.0016092060806383388,-0.3519464612593464,-1.8068051788828283,-0.4490071712467641
1781555784336130816,3.053766965866089,0.021570099517703056,-0.024669485166668892,0.033704113215208054,-0.9124982357025146,0.34511345624923706,0.21964475512504578,0.007285773754119873,0.013529151678085327,-0.019342631101608276,-0.6246405289180699,0.2778636867392588,0.7298041837020295,0.0013814641113446904,-0.35235965247772655,-1.8070097272390477,-0.4488836799965642
1781555784346166784,3.06380295753479,0.020438790321350098,-0.03051113151013851,0.02562488242983818,-0.9123404622077942,0.3454229533672333,0.21981406211853027,0.008470714092254639,0.012883991003036499,-0.0016133487224578857,-0.6245732340538759,0.2778985028839146,0.7298489239533725,0.0011735217444074127,-0.3526894350456142,-1.8072244864164526,-0.44872419758293847
1781555784356201984,3.073837995529175,0.013547326438128948,-0.024785466492176056,0.03662453591823578,-0.9121725559234619,0.3457477390766144,0.220000222325325,0.0031911134719848633,-4.455447196960449e-05,0.004761725664138794,-0.6244990666655053,0.27795272875495003,0.7298920421337018,0.0009691230820521944,-0.35303554235796714,-1.8074592826694353,-0.448605378837028
1781555784366236928,3.0838730335235596,-0.020969636738300323,-0.013272355310618877,0.048451103270053864,-0.9119755029678345,0.3461441099643707,0.22019356489181519,-0.004284322261810303,-0.015776067972183228,0.00443112850189209,-0.6244218605143698,0.2781212448556257,0.7298940712737485,0.000812349840454128,-0.35345801063631177,-1.8077088608567817,-0.4487409251257994
1781555784376272896,3.0939090251922607,-0.04891418665647507,-0.0024462067522108555,0.04705427587032318,-0.9117934703826904,0.34650614857673645,0.2203778624534607,-0.006678938865661621,-0.01761820912361145,0.010594397783279419,-0.6243481079794693,0.2784114325060849,0.7298465625771313,0.0007845087209648611,-0.35384394283451653,-1.807945383184209,-0.44923822866514296
1781555784386307840,3.1039440631866455,-0.040306851267814636,0.01222781091928482,0.052639190107584,-0.9116291999816895,0.3468567728996277,0.22050516307353973,-0.0044321417808532715,-0.008767783641815186,0.006057262420654297,-0.6242970217249503,0.27873255310955103,0.7297675946838724,0.0007995930978157999,-0.3542177353589627,-1.8081184493086764,-0.44982983996216025
1781555784396343040,3.1139791011810303,-0.023761162534356117,0.02567743882536888,0.053639207035303116,-0.9114855527877808,0.34727808833122253,0.22043649852275848,0.00023061037063598633,0.004208177328109741,-0.009865254163742065,-0.6243246389951831,0.27903326326387445,0.7296291459585432,0.0007788914603830192,-0.35466696715463764,-1.8080833039008821,-0.45030784045904265
1781555784406379008,3.1240150928497314,0.006583693437278271,0.010563202202320099,0.04419536888599396,-0.911361038684845,0.34771105647087097,0.2202681005001068,0.01119929552078247,0.01718759536743164,-0.0211409330368042,-0.6243920816696159,0.2792350501699919,0.7294942327676952,0.0006807815681165931,-0.35512871982314775,-1.8079399446954194,-0.4505051502190986
1781555784416413952,3.134050130844116,0.04222344607114792,-0.009252048097550869,0.035086825489997864,-0.9112216234207153,0.34814977645874023,0.22015196084976196,0.016354739665985107,0.020151615142822266,-0.024168014526367188,-0.6244388103181657,0.27930270131166246,0.7294285287908664,0.0004559124232043677,-0.3555966840124456,-1.8078544531186884,-0.4503299274160734
1781555784426448896,3.144084930419922,0.05391205847263336,-0.012909899465739727,0.03550094738602638,-0.9110769629478455,0.3485690653324127,0.22008658945560455,0.00887066125869751,0.009447872638702393,-0.012780696153640747,-0.6244650494583757,0.27927581771522136,0.7294164169031494,0.00015553579874392925,-0.35604399503608775,-1.8078229002895287,-0.4499113143124766
1781555784436484864,3.154120922088623,0.0697442889213562,-0.006477965973317623,0.04060250148177147,-0.9109256267547607,0.34904608130455017,0.21995744109153748,-0.008797824382781982,-0.003922820091247559,-0.005479946732521057,-0.6245168021430677,0.2792155302383402,0.7293952358930221,-0.0002032575345210139,-0.3565529784165712,-1.8077268688537187,-0.4493535840229103
1781555784446519808,3.164155960083008,0.0570540577173233,0.014652352780103683,0.05883583053946495,-0.9107598066329956,0.34964707493782043,0.21968981623649597,-0.023566365242004395,-0.010123729705810547,-0.0027861595153808594,-0.6246237128294291,0.2791858271420336,0.729314871601522,-0.0005998028329545498,-0.35719436578201114,-1.807490739021541,-0.4487773903037249
1781555784456555008,3.1741909980773926,0.021916843950748444,0.032389938831329346,0.06105317920446396,-0.9105971455574036,0.3502900302410126,0.21933992207050323,-0.02305769920349121,0.0013793110847473145,0.0025686323642730713,-0.6247634355390214,0.2792901193278494,0.729154982981252,-0.0008979672717474283,-0.3578807277955813,-1.8071683111167443,-0.44853364468645507
1781555784466590976,3.1842269897460938,0.01629357971251011,0.022344760596752167,0.05082504451274872,-0.9104622006416321,0.3508509695529938,0.21900339424610138,-0.01089411973953247,0.005228191614151001,0.005407601594924927,-0.6248977557679734,0.2794418521874611,0.7289814455864232,-0.0011013906982404473,-0.3584796750024465,-1.806852684743447,-0.4484872615107742
1781555784476625920,3.1942620277404785,-0.012221153825521469,0.008384469896554947,0.05348900333046913,-0.910315215587616,0.3513214588165283,0.21886046230793,-0.0005125999450683594,-0.010577350854873657,5.751848220825195e-05,-0.6249547294681213,0.2796239425705772,0.7288625968802693,-0.0012463683314139257,-0.35898217660081005,-1.8067409730926238,-0.4485988863735535
1781555784486660864,3.2042970657348633,-0.038733989000320435,0.007411350961774588,0.06493926793336868,-0.9101259112358093,0.3517986536026001,0.2188805341720581,0.0005799531936645508,-0.026313424110412598,0.0019904375076293945,-0.6249464240678484,0.27992295133425843,0.7287546954265064,-0.0013207115387085162,-0.3594918847502792,-1.8068090926012903,-0.44902609207113153
1781555784496696832,3.2143330574035645,-0.037890300154685974,0.0012784902937710285,0.062231097370386124,-0.9099187254905701,0.3522757291793823,0.21897509694099426,0.0031498074531555176,-0.02230435609817505,-0.0021171271800994873,-0.6249085831380066,0.280272538666858,0.7286527664712921,-0.0013629896102171045,-0.3600015910805846,-1.8069590990129343,-0.44959255838216355
1781555784506732032,3.224368095397949,-0.00645061582326889,-0.004962361417710781,0.06202656403183937,-0.9096881151199341,0.352797269821167,0.21909235417842865,0.006001651287078857,-0.005324184894561768,-0.009314551949501038,-0.6248612231480324,0.2805741457921479,0.7285769178542051,-0.0014806080244208432,-0.36055893264503924,-1.8071386010887844,-0.4499907366876377
1781555784516766976,3.234403133392334,0.03988652303814888,-0.008184253238141537,0.05653166398406029,-0.9094653725624084,0.35337191820144653,0.2190907895565033,0.003703773021697998,0.007315307855606079,-0.01695767045021057,-0.6248611882520612,0.2807348767390685,0.7285144630026964,-0.0017372722857674652,-0.3611731236294878,-1.8071927121161153,-0.449958339373782
1781555784526802944,3.244439125061035,0.047682926058769226,-0.017418498173356056,0.05618279054760933,-0.9092414975166321,0.35398733615875244,0.21902693808078766,0.0038460493087768555,0.004639953374862671,-0.01695479452610016,-0.6248856555404473,0.28079157308451835,0.7284707020678857,-0.0021017204089068303,-0.3618310716668992,-1.807182415034749,-0.44960650747497316
1781555784536837888,3.254473924636841,0.04740196093916893,-0.03223206475377083,0.06086622551083565,-0.908981204032898,0.35462987422943115,0.21906855702400208,0.0054471492767333984,-0.007202476263046265,-0.0136699378490448,-0.6248676388532237,0.2808561068653875,0.728460107894528,-0.0024943649958639636,-0.36251818532051244,-1.8072908914178087,-0.4492541308233444
1781555784546873856,3.264509916305542,0.021075816825032234,-0.047862689942121506,0.06623941659927368,-0.9086580276489258,0.3552965819835663,0.219328835606575,0.0050629377365112305,-0.017390668392181396,-0.003966301679611206,-0.6247618379657701,0.28098247040658836,0.7285006983163707,-0.002884229559102144,-0.3632313251089306,-1.8076425737210284,-0.44905251312231703
1781555784556908800,3.2745449542999268,-0.0056055947206914425,-0.04507888853549957,0.07147546112537384,-0.9083113074302673,0.35593539476394653,0.21972866356372833,-0.001646578311920166,-0.025185883045196533,0.006757616996765137,-0.6246002622331749,0.28120255688279544,0.7285529846436266,-0.003196068159041084,-0.36391481941556664,-1.8081455376759201,-0.4491320712104769
1781555784566944000,3.2845799922943115,-0.03027365542948246,-0.04061809182167053,0.09661703556776047,-0.9079158306121826,0.3566640317440033,0.22018112242221832,-0.007077455520629883,-0.03842669725418091,0.001910567283630371,-0.6244177925809806,0.2815679164786032,0.7285671330738651,-0.003453348034282209,-0.3646946310988583,-1.8087157916510221,-0.44953710562638555
1781555784576979968,3.2946159839630127,-0.05472733452916145,-0.04680008813738823,0.11074963212013245,-0.9074509739875793,0.35751083493232727,0.2207234501838684,-0.0023543238639831543,-0.04264572262763977,-0.007451295852661133,-0.6241993256027548,0.2820844478551427,0.7285534237844072,-0.003676463877549944,-0.365601221178795,-1.8093974696914314,-0.45026075415626227
1781555784587014912,3.3046510219573975,-0.03539970889687538,-0.04933888092637062,0.12838029861450195,-0.9069185256958008,0.3584875464439392,0.22132658958435059,0.00030231475830078125,-0.04285949468612671,-0.009763479232788086,-0.6239560355112198,0.2826613495785606,0.7285367932631432,-0.003946982749814227,-0.36664726027707506,-1.8101600440326437,-0.45104423803830757
1781555784597049856,3.3146860599517822,-0.02473854273557663,-0.03957373648881912,0.15830570459365845,-0.9063015580177307,0.35973626375198364,0.22182685136795044,0.0030728578567504883,-0.04586303234100342,-0.012552633881568909,-0.6237527414674076,0.2832726122125722,0.728471038334553,-0.004359904412401355,-0.3679852203238299,-1.8108376875782186,-0.45169851211543266
1781555784607085824,3.3247220516204834,-0.005904401186853647,-0.027184709906578064,0.182342067360878,-0.9056150913238525,0.3612496256828308,0.2221713662147522,0.005636394023895264,-0.03935021162033081,-0.021731972694396973,-0.6236109241752469,0.2839490828727101,0.7283258891593258,-0.004875650632143882,-0.369607671056649,-1.8113715722295152,-0.4523141646122741
1781555784617121024,3.334757089614868,0.036903779953718185,-0.03306776285171509,0.1996408998966217,-0.9048590660095215,0.3630038797855377,0.22239230573177338,0.015515804290771484,-0.03698459267616272,-0.03522801399230957,-0.6235165862972534,0.28459544404753806,0.7281494238940743,-0.005564738155014344,-0.3714896603036555,-1.8117951651331534,-0.45264893267489287
1781555784627155968,3.344792127609253,0.07181888818740845,-0.059783004224300385,0.2295609712600708,-0.9039794206619263,0.36505866050720215,0.22260576486587524,0.021975696086883545,-0.053519994020462036,-0.04360498487949371,-0.6234219622306627,0.2852026822245731,0.727985104377077,-0.006494252425810629,-0.37369582120940825,-1.8122433365752761,-0.4526297379085059
1781555784637191936,3.354828119277954,0.0913582369685173,-0.09053491801023483,0.2583737075328827,-0.9029154181480408,0.3674551248550415,0.22298116981983185,0.02001136541366577,-0.065804123878479,-0.05687403678894043,-0.6232580811240708,0.28582830393103004,0.72786864524525,-0.007670010676545761,-0.37627122894577675,-1.8129088258761121,-0.45238268205394244
1781555784647226880,3.3648629188537598,0.1079167053103447,-0.1172885000705719,0.2771303653717041,-0.9016867280006409,0.3701134920120239,0.22355574369430542,0.01837068796157837,-0.057201504707336426,-0.053405046463012695,-0.6230095593509103,0.28650445342018377,0.7278001558474386,-0.009015838624871111,-0.3791311767231206,-1.8138263726614516,-0.45206310008954137
1781555784657261824,3.3748979568481445,0.12474548816680908,-0.1339987814426422,0.2909516394138336,-0.9003466367721558,0.37294262647628784,0.224254310131073,0.011277914047241211,-0.043108612298965454,-0.045818060636520386,-0.6227056971894338,0.28716449400690436,0.7277799884452363,-0.010514650177648188,-0.3821784496837477,-1.8149047160125262,-0.4515630220602906
1781555784667297792,3.3849339485168457,0.11992304027080536,-0.13930299878120422,0.3136574625968933,-0.8989139199256897,0.3759230375289917,0.2250237911939621,0.0006289482116699219,-0.0488356351852417,-0.042528748512268066,-0.6223678439095404,0.2878617286606537,0.7277688652693006,-0.012099499834278115,-0.38539268254584597,-1.8160841640973082,-0.45104500068201153
1781555784677332992,3.3949689865112305,0.10679604858160019,-0.1551651656627655,0.35456204414367676,-0.8973254561424255,0.3791801929473877,0.22589688003063202,-0.004514753818511963,-0.0745384693145752,-0.05107690393924713,-0.6219823432774355,0.28870971202903956,0.7277328800702219,-0.013765690845025156,-0.3889101507825259,-1.8174163482662773,-0.4507196581572907
1781555784687367936,3.4050040245056152,0.09515217691659927,-0.19169843196868896,0.39458829164505005,-0.8954987525939941,0.3827745020389557,0.22708076238632202,0.004095554351806641,-0.0909806489944458,-0.07157838344573975,-0.6214643318775412,0.2897564603914054,0.7277235554550116,-0.015547033857078242,-0.3927976498886952,-1.8191417457667423,-0.4506757001961986
1781555784697403904,3.4150400161743164,0.12900041043758392,-0.2401055097579956,0.43094202876091003,-0.8934159874916077,0.38671883940696716,0.22859695553779602,0.017790377140045166,-0.09960946440696716,-0.08940625190734863,-0.620800990034979,0.29090230908706916,0.7277872780348951,-0.017542193419169343,-0.3970709623401498,-1.821290549049923,-0.45063277844371885
1781555784707438848,3.425075054168701,0.2053428590297699,-0.2928566038608551,0.4702361822128296,-0.8910462856292725,0.39113184809684753,0.23033122718334198,0.02208876609802246,-0.10226768255233765,-0.11607348918914795,-0.6200296719060856,0.2920024626726545,0.7279424241490277,-0.01994076297041648,-0.40186108196649634,-1.823754384818251,-0.45009698590675945
1781555784717474048,3.435110092163086,0.26682111620903015,-0.3412413001060486,0.5135498046875,-0.8883727192878723,0.39606648683547974,0.23221834003925323,0.022207558155059814,-0.10003072023391724,-0.14429724216461182,-0.6191694574214915,0.29301720823244437,0.7281827289862646,-0.022804633135458763,-0.4072290354648216,-1.8264728833281099,-0.4489183204701669
1781555784727510016,3.445146083831787,0.3430517315864563,-0.39466458559036255,0.558229386806488,-0.8853753209114075,0.40153414011001587,0.23426714539527893,0.02136152982711792,-0.1000966727733612,-0.16183361411094666,-0.618211092990398,0.2939912641426968,0.7284934507174935,-0.026106494713030212,-0.4131913452122349,-1.8294649287127223,-0.44721549954576406
1781555784737544960,3.455181121826172,0.41554322838783264,-0.46858739852905273,0.6140468120574951,-0.8819908499717712,0.40760669112205505,0.2365351766347885,0.02133411169052124,-0.11706411838531494,-0.1797724962234497,-0.6171189966603893,0.2948830495082123,0.728911224915865,-0.02994248755650004,-0.4198316117745306,-1.8328140774896335,-0.44482419869106654
1781555784747579904,3.4652159214019775,0.4672703444957733,-0.5352740287780762,0.6812415719032288,-0.8781209588050842,0.41437941789627075,0.23915138840675354,0.02602440118789673,-0.13334304094314575,-0.18078649044036865,-0.6158310287069814,0.2958117233614902,0.7294320535345576,-0.03430020055605451,-0.4272608050903425,-1.8366920399720208,-0.44200908891553253
1781555784757615872,3.4752519130706787,0.5051964521408081,-0.6234942078590393,0.7428119778633118,-0.8737305998802185,0.4218313694000244,0.2421843409538269,0.031170785427093506,-0.13234162330627441,-0.18816816806793213,-0.6143078539035903,0.29679560714750247,0.7300715971441423,-0.039163026024760725,-0.4354642505642608,-1.8411920565204842,-0.43885368178093326
1781555784767650816,3.4852869510650635,0.41955795884132385,-0.6686057448387146,0.7935715913772583,-0.8688548803329468,0.4296998977661133,0.24586398899555206,0.04822200536727905,-0.11233237385749817,-0.1497945934534073,-0.6124571007585073,0.2979106092564152,0.7308770513014464,-0.04432001083223403,-0.44416039664202717,-1.8465613775705687,-0.43580876555984577
1781555784777685760,3.4953219890594482,0.32218077778816223,-0.703405499458313,0.8159474730491638,-0.8636478781700134,0.43762531876564026,0.2501932978630066,0.07106053829193115,-0.0736878514289856,-0.09272250533103943,-0.6103154979089251,0.29956681238413246,0.7316805105920073,-0.04917772651838484,-0.45295594783063653,-1.852771122238583,-0.43430382628263814
1781555784787721984,3.5053579807281494,0.1897556334733963,-0.7664436101913452,0.8520218729972839,-0.8580980896949768,0.4454616606235504,0.25540462136268616,0.08624756336212158,-0.0763821005821228,-0.09709468483924866,-0.6077873655641759,0.3016381975534766,0.7326095237021463,-0.0537789063106241,-0.4616898299772406,-1.8600869227152044,-0.43414367476830995
1781555784797756928,3.515393018722534,0.07105989009141922,-0.8271451592445374,0.9131525754928589,-0.8519962430000305,0.4534127116203308,0.2617618143558502,0.08617293834686279,-0.11485069990158081,-0.09863010048866272,-0.6047570962478694,0.3042559106928464,0.7336956075400046,-0.058205923659147604,-0.47059052884843094,-1.8688760936208937,-0.4355669229965756
1781555784807791872,3.525428056716919,-0.033018045127391815,-0.8736399412155151,0.9798570275306702,-0.8453971743583679,0.4614998400211334,0.2689264118671417,0.0785057544708252,-0.15215840935707092,-0.11392772197723389,-0.6013649802054974,0.30743221569433715,0.7348119738798474,-0.06242542673917356,-0.4796851008416729,-1.87878078049419,-0.4385811051341381
1781555784817827840,3.53546404838562,-0.05541948974132538,-0.9305458664894104,1.0489647388458252,-0.8381862640380859,0.46994367241859436,0.27676111459732056,0.07727628946304321,-0.15166059136390686,-0.14054584503173828,-0.5976382616870348,0.3110385009105974,0.7359589723840965,-0.0666930156689786,-0.4892269549388696,-1.8897156325147486,-0.4426704289144349
1781555784827863040,3.545499086380005,0.0027247732505202293,-0.9814937114715576,1.1136614084243774,-0.8303444981575012,0.4789219796657562,0.28488942980766296,0.07771986722946167,-0.12729835510253906,-0.16718313097953796,-0.5936912177510252,0.314796070417378,0.7371215293836709,-0.0713170343748058,-0.49942627386659233,-1.90130906786051,-0.44692506402426374
1781555784837897984,3.5555341243743896,0.10870686918497086,-1.0245742797851562,1.1738348007202148,-0.8218861222267151,0.4885532855987549,0.2929486334323883,0.06707960367202759,-0.10024762153625488,-0.19733703136444092,-0.5896383981570995,0.3184993127477562,0.7382631626677763,-0.0765001147644775,-0.510430917590011,-1.9131919437318647,-0.45068177597835213
1781555784847933952,3.565570116043091,0.2045590877532959,-1.056950569152832,1.259394645690918,-0.8127498030662537,0.4990011155605316,0.30072465538978577,0.05507475137710571,-0.09157630801200867,-0.20120686292648315,-0.5855380886704904,0.32211707408864826,0.7393259910283966,-0.08235709490168952,-0.52244574422788,-1.9251840746986488,-0.45373374733789584
1781555784857968896,3.5756049156188965,0.25319400429725647,-1.037885308265686,1.3232096433639526,-0.8030064702033997,0.5101779699325562,0.30805647373199463,0.06216186285018921,-0.0814824104309082,-0.14643540978431702,-0.5814679162865855,0.32579217809115585,0.7401943637903164,-0.08869467460259974,-0.535391731186331,-1.9371104989740728,-0.4565344489765687
1781555784868004864,3.5856409072875977,0.3027708828449249,-1.04399573802948,1.3812010288238525,-0.7927665710449219,0.5218601226806641,0.31493374705314636,0.07435226440429688,-0.06601905822753906,-0.11660003662109375,-0.5774047276110124,0.32923252171984824,0.740994477488335,-0.09558727018349861,-0.5490300859537635,-1.9489376398789646,-0.45847294904216174
1781555784878039808,3.5956759452819824,0.2764196991920471,-1.0341376066207886,1.459938406944275,-0.7819362878799438,0.5340083837509155,0.3215750753879547,0.09110993146896362,-0.0720333456993103,-0.09304431080818176,-0.5733254910433947,0.3331200030589785,0.7414975434032057,-0.10251955315177576,-0.5633344533172288,-1.960967358992458,-0.4614687445693097
1781555784888074752,3.605710983276367,0.21065986156463623,-0.95735764503479,1.5617539882659912,-0.7704840898513794,0.5465755462646484,0.3280385732650757,0.10590285062789917,-0.06577116250991821,-0.06645718216896057,-0.5692153135097874,0.33752881727711526,0.7416829366375692,-0.10942842827024782,-0.5782694054439742,-1.9733075170141554,-0.46578628345190715
1781555784898110976,3.6157469749450684,0.23558437824249268,-0.9987777471542358,1.619606614112854,-0.7584656476974487,0.5594748854637146,0.33424222469329834,0.11828315258026123,-0.0672721266746521,-0.10027921199798584,-0.5650948995803055,0.3422840303979486,0.7415947370585785,-0.11639037054248297,-0.5937521243960389,-1.9858744954444663,-0.4710223264329079
1781555784908145920,3.625782012939453,0.24183163046836853,-1.0078085660934448,1.6719452142715454,-0.7457459568977356,0.5727041363716125,0.3404009938240051,0.1363862156867981,-0.07613742351531982,-0.1391529142856598,-0.5608121248286737,0.3471325647283229,0.7414172111296512,-0.12364958363394456,-0.6098007835378423,-1.9990069572739182,-0.47656853439142416
1781555784918180864,3.635817050933838,0.277211993932724,-1.0048257112503052,1.7849857807159424,-0.7322139143943787,0.5863942503929138,0.34641748666763306,0.1404474377632141,-0.09661746025085449,-0.16354075074195862,-0.5563950433665136,0.352202068081104,0.7410549529880948,-0.13120974288924045,-0.6266002038583689,-2.0127011876317504,-0.4827022863886762
1781555784928216832,3.645853042602539,0.356794148683548,-1.1304552555084229,1.8448328971862793,-0.7176900506019592,0.6007226705551147,0.35221192240715027,0.12459617853164673,-0.12387031316757202,-0.20469000935554504,-0.5518002700328617,0.3573534188600535,0.7405433805778026,-0.13932151107471988,-0.644404754688772,-2.0270228147509237,-0.4889664360058924
1781555784938252032,3.655888080596924,0.39005517959594727,-1.2694402933120728,1.9223393201828003,-0.7018408179283142,0.6155044436454773,0.3585720956325531,0.11475884914398193,-0.11138451099395752,-0.1891079843044281,-0.5466044272614693,0.36244960610103905,0.7402137056827439,-0.148113521468048,-0.6630258453554473,-2.0431277032099553,-0.49539365992402673
1781555784948286976,3.6659231185913086,0.4959794878959656,-1.2357980012893677,1.9492425918579102,-0.685174286365509,0.6305654644966125,0.36458706855773926,0.10483670234680176,-0.05706381797790527,-0.11293908953666687,-0.5412577274202517,0.3674981840880271,0.7397557877764757,-0.1573106888744688,-0.6822815398398406,-2.0597995998113747,-0.5019494132805818
1781555784958322944,3.6759591102600098,0.676298975944519,-1.1941543817520142,1.9836852550506592,-0.6681240200996399,0.6460514068603516,0.3690904378890991,0.06630218029022217,0.0012874603271484375,-0.10139024257659912,-0.5362378974964204,0.3722105880617082,0.7389211733222524,-0.16704392621803585,-0.7023999775605136,-2.0755017557347997,-0.5074428362813556
1781555784968357888,3.6859939098358154,0.7477661967277527,-1.0554596185684204,2.0427350997924805,-0.650691032409668,0.6620624661445618,0.3718528151512146,0.05198192596435547,0.05250662565231323,-0.052272677421569824,-0.5316592521361411,0.37676954877511953,0.7375439785435578,-0.1772344892300505,-0.7235674419440392,-2.089976470137399,-0.5122147712202306
1781555784978392832,3.6960289478302,0.746698796749115,-0.9287118315696716,2.0699026584625244,-0.633196234703064,0.6781153082847595,0.3731246888637543,0.06553882360458374,0.0783696174621582,-0.020494133234024048,-0.5275803839423623,0.38147446115822436,0.7355539306763899,-0.1873407372671589,-0.7451952408358198,-2.1032901121102863,-0.5173846980281956
