time,seconds_elapsed,rotationRateX,rotationRateY,rotationRateZ,gravityX,gravityY,gravityZ,accelerationX,accelerationY,accelerationZ,quaternionW,quaternionX,quaternionY,quaternionZ,pitch,roll,yaw
1780770798569383424,0.04891037940979004,-0.014110958203673363,-0.08984779566526413,-0.03648323565721512,-0.06452400237321854,-0.05670755356550217,-0.9963036179542542,0.09728462249040604,0.021932773292064667,-0.01413339376449585,-0.8760665432267828,-0.04040894918516763,0.014673316892609856,-0.48026984686425295,0.056737990461608864,-0.0646730752708652,1.0047740148114577
1780770798579417344,0.0589444637298584,0.0029575082007795572,-0.03215227648615837,-0.02578451670706272,-0.06517072767019272,-0.05666712671518326,-0.9962638020515442,0.06832930445671082,0.021053116768598557,-0.009809136390686035,-0.8761405757049061,-0.040544619929371695,0.014973990946794753,-0.4801140818015928,0.056697497270257614,-0.06532206231047323,1.0044464730197338
1780770798589452544,0.06897950172424316,0.020613733679056168,0.05806177109479904,-0.006967952009290457,-0.06501372903585434,-0.056772541254758835,-0.996268093585968,-0.0004312172532081604,0.007929157465696335,-0.0017482638359069824,-0.8761822493232028,-0.04055182050133966,0.014883155384817978,-0.4800402881246584,0.05680308398983938,-0.06516486606189915,1.0042758520076753
1780770798599486464,0.07901334762573242,0.04678941145539284,0.09213478118181229,0.0057542347349226475,-0.0642050951719284,-0.05711152032017708,-0.9963011741638184,-0.040119245648384094,-0.00035307928919792175,0.007134914398193359,-0.8761812338774394,-0.04050606328065691,0.014445907200938198,-0.48005935291010654,0.0571426119598677,-0.06435447266344471,1.0042981832542883
1780770798609521408,0.08904838562011719,0.04913405701518059,0.0664810910820961,-0.0017755868611857295,-0.06338807940483093,-0.057621341198682785,-0.9963241219520569,-0.027111798524856567,0.0017131343483924866,0.011552393436431885,-0.8761692025423358,-0.040533617917955955,0.013963197223339191,-0.48009326555870535,0.05765327511659322,-0.06353631394223874,1.0043621268447491
1780770798619555584,0.09908246994018555,0.027558458968997,0.014631473459303379,-0.013029838912189007,-0.06297223269939423,-0.058010414242744446,-0.9963278770446777,0.008834056556224823,-0.0004154890775680542,0.00816875696182251,-0.8761839522669678,-0.04060393682016503,0.013688284666450919,-0.4800682592915766,0.05804299925189581,-0.06312036426386457,1.0043042964398465
1780770798629590528,0.10911750793457031,-0.003827161155641079,-0.010163221508264542,-0.011988542973995209,-0.06294979900121689,-0.05813850462436676,-0.9963218569755554,0.02886166423559189,-0.00558219850063324,0.00329512357711792,-0.8762120444823243,-0.040653984556719494,0.013650136986994327,-0.48001406135083646,0.05817130857247624,-0.06309831722560763,1.0041857205202722
1780770798639624448,0.11915135383605957,-0.026391858235001564,-0.011782156303524971,0.0014790623681619763,-0.06304722279310226,-0.05797598883509636,-0.9963251352310181,0.02494603395462036,-0.009483113884925842,-0.003979980945587158,-0.8762297943474389,-0.04060556070121887,0.013733412991357143,-0.47998315681782655,0.058008517884868244,-0.06319550251427408,1.004111888887675
1780770798649659392,0.12918639183044434,-0.01619141921401024,-0.0030188928358256817,0.007988893426954746,-0.06311668455600739,-0.05774471536278725,-0.9963341951370239,0.011755608022212982,-0.005701329559087753,-0.005298435688018799,-0.8762227581619275,-0.04052091885799489,0.0138187144928209,-0.48000071695294866,0.05777685625841092,-0.06326437106996345,1.0041441580627004
1780770798659694336,0.1392214298248291,0.004596150945872068,0.00505554536357522,0.016030307859182358,-0.06311069428920746,-0.05769117921590805,-0.9963376522064209,0.0023959800601005554,-0.0013755857944488525,0.0016477704048156738,-0.8761931798431002,-0.040496817782877996,0.013826380893522186,-0.4800566405405601,0.05772322918438527,-0.06325816202962174,1.004269007894758
1780770798669728512,0.14925551414489746,0.0034019898157566786,0.008314722217619419,0.01869533210992813,-0.06303886324167252,-0.057725340127944946,-0.996340274810791,-0.00014778226613998413,-0.0005174614489078522,0.007692813873291016,-0.8761535286172116,-0.04049566738766391,0.013783244611950662,-0.4801302363797353,0.0577574458020636,-0.06318619497213344,1.0044352696979217
1780770798679763456,0.15929055213928223,0.00660737045109272,0.007393267937004566,0.019130758941173553,-0.06294672936201096,-0.05774802714586258,-0.9963447451591492,0.0005077794194221497,0.0013210251927375793,0.011664628982543945,-0.8761049812958507,-0.040484838225856135,0.01373316030837774,-0.48022116757114486,0.05778017326917859,-0.06309380721933652,1.0046396536763167
1780770798689797376,0.16932439804077148,0.001748432987369597,0.005204016342759132,0.024899166077375412,-0.06288965791463852,-0.0577627532184124,-0.9963474869728088,0.0021749362349510193,0.0015951506793498993,0.008966505527496338,-0.8760511524045678,-0.04047909513930961,0.013699973778026378,-0.4803207653924105,0.05779492167829083,-0.06303657446530554,1.0048650730730815
1780770798699832320,0.17935943603515625,-0.012008392252027988,0.002673481125384569,0.027808936312794685,-0.062859445810318,-0.057684190571308136,-0.9963539838790894,0.004753977060317993,-0.0011384375393390656,0.0020302534103393555,-0.8759869028940048,-0.040439158552876976,0.013700059285797029,-0.480441508958354,0.05771623056174879,-0.06300596681524745,1.0051356569184222
1780770798709866496,0.1893935203552246,-0.013766610994935036,-0.0023423167876899242,0.028520267456769943,-0.062494318932294846,-0.05760582536458969,-0.9963814616203308,0.004571959376335144,-0.0013541392982006073,0.0033394694328308105,-0.8759306717619977,-0.04031838012630824,0.013553392500522616,-0.48055819646018527,0.05763773169368817,-0.06263922540194558,1.0053814273070232
1780770798719901440,0.19942855834960938,-0.019714782014489174,-0.007421097718179226,0.029177801683545113,-0.06225929036736488,-0.05755727365612984,-0.9963989853858948,0.005221936851739883,-0.001036476343870163,0.0017243027687072754,-0.8758668956426373,-0.040242219276996886,0.01345623288333454,-0.4806836354405254,0.05758910060086064,-0.06240316820272771,1.0056547325241347
1780770798729935360,0.20946240425109863,-0.00828689057379961,-0.005976333748549223,0.02320486307144165,-0.06220809370279312,-0.057446788996458054,-0.9964085817337036,0.006360925734043121,0.008603405207395554,0.003915905952453613,-0.875810394829522,-0.04018296400185458,0.013455445071576984,-0.4807915038974759,0.05747843181924786,-0.0623513876495407,1.005893460536055
1780770798739970560,0.2194974422454834,0.019390011206269264,-0.0022111558355391026,0.02056487277150154,-0.06225902959704399,-0.05751415714621544,-0.9964014887809753,0.0027955248951911926,0.010898556560277939,0.005449950695037842,-0.8757572777149552,-0.040226299399929125,0.013457273260262245,-0.480884633767137,0.05754591266090756,-0.062402749868585766,1.0061116843067737
1780770798750004480,0.22953152656555176,0.0051844436675310135,0.003168029710650444,0.016192493960261345,-0.06228188797831535,-0.0576433390378952,-0.9963926076889038,-0.0017897672951221466,0.008510041981935501,0.0003904104232788086,-0.8757139528708613,-0.04028971995737656,0.013432747831512883,-0.48095890531284685,0.05767531073615758,-0.062426159045973095,1.0062884703508184
1780770798760039680,0.23956656455993652,0.0018967711366713047,0.006219746079295874,0.005804302170872688,-0.06226104497909546,-0.057645976543426514,-0.9963937401771545,-0.002863466739654541,0.012083232402801514,0.003138124942779541,-0.8756894596232477,-0.04028653294551286,0.013420894070333844,-0.4810040808288631,0.05767794955888956,-0.06240524895423803,1.006390803631682
1780770798770073344,0.24960041046142578,0.00424301577731967,-0.0032465928234159946,0.0027989251539111137,-0.06223021447658539,-0.05767256021499634,-0.996394157409668,-0.002131357789039612,0.00834089145064354,0.0010938644409179688,-0.8756782464947866,-0.04029107631486161,0.013400014767288818,-0.48102477964579277,0.057704578775676266,-0.0623744040704609,1.0064379359479318
1780770798780108544,0.25963544845581055,-0.011335411109030247,0.003615041496232152,-0.0025348542258143425,-0.06218656897544861,-0.05765386298298836,-0.9963979721069336,-0.0014425814151763916,0.004827931523323059,0.0030813217163085938,-0.8756785913065274,-0.04027233466925151,0.013385327327499297,-0.48102601905099307,0.05768584894628485,-0.06233053441508601,1.0064378362593072
1780770798790142464,0.2696695327758789,-0.015733089298009872,0.005383114330470562,-0.00653758505359292,-0.06209104508161545,-0.057537421584129333,-0.996410608291626,-0.0058410800993442535,0.0034755393862724304,0.006832420825958252,-0.8756967463309807,-0.04019768928256413,0.013372723690666048,-0.4809995734828854,0.05756921683511438,-0.062234243312590906,1.006367534705598
1780770798800177408,0.27970433235168457,-0.0068354676477611065,0.0016861138865351677,-0.009815669618546963,-0.061970293521881104,-0.05744147673249245,-0.9964236617088318,-0.0057329535484313965,0.0023572519421577454,0.004831254482269287,-0.8757219388310673,-0.04012576159255236,0.013344700237800503,-0.4809603369386769,0.05747311167395876,-0.062112713746052046,1.006267799114167
1780770798810212352,0.28973937034606934,0.00623319623991847,0.0019785286858677864,-0.015381409786641598,-0.061845552176237106,-0.05730929225683212,-0.9964390397071838,-0.002348177134990692,0.006924770772457123,0.007013380527496338,-0.8757572923550248,-0.04003668565182939,0.013324430719010183,-0.4809041376802647,0.05734070824273761,-0.0619870513440995,1.0061275561858376
1780770798820246528,0.2997734546661377,0.023916585370898247,0.0030041122809052467,-0.017221922054886818,-0.061767760664224625,-0.05731634050607681,-0.9964434504508972,-0.002746395766735077,0.01146368682384491,0.004103422164916992,-0.8757967387600603,-0.04001993184268965,0.013291797415390268,-0.48083460404843226,0.05734776802631187,-0.06190901016801088,1.00596552897293
1780770798830281472,0.30980849266052246,0.022714167833328247,0.004360726568847895,-0.015180873684585094,-0.06176542863249779,-0.05743645876646042,-0.9964367151260376,-0.0050528086721897125,0.012911312282085419,0.0007244348526000977,-0.8758292243146557,-0.04007119516693443,0.013264697422971058,-0.4807718907837927,0.057468087185658406,-0.0619070964888631,1.005827848294593
1780770798840315392,0.3198423385620117,0.027742216363549232,0.005874467082321644,-0.016247205436229706,-0.06176174804568291,-0.05750161409378052,-0.9964331388473511,-0.005865201354026794,0.007193390280008316,0.0001716017723083496,-0.8758608734885572,-0.04009803436962692,0.013250110520976001,-0.48071237272226425,0.05753334948755388,-0.06190363758781944,1.0056948253147577
1780770798850350336,0.3298773765563965,0.031438153237104416,-0.005019992124289274,-0.009941637516021729,-0.06178427115082741,-0.057726893573999405,-0.9964187145233154,-0.005812160670757294,-0.002575840801000595,-0.004893481731414795,-0.8758858506715514,-0.04020166098031513,0.013208146048453129,-0.48065942567504233,0.05775900189787155,-0.06192704747108075,1.0055855762823709
1780770798860384512,0.33991146087646484,0.018245117738842964,-0.008628575131297112,-0.01121196523308754,-0.06188824027776718,-0.05792885646224022,-0.9964005947113037,-0.004685856401920319,-0.003594581037759781,-0.002622842788696289,-0.875904391219267,-0.04031486491872807,0.013207087199364347,-0.48061614206153647,0.05796130400462814,-0.06203211934612752,1.0055010465815715
1780770798870419456,0.3499464988708496,0.02381724864244461,-0.008142014965415001,-0.01473852340131998,-0.06204327940940857,-0.058098070323467255,-0.9963811039924622,-0.006041437387466431,0.0018083937466144562,0.002194702625274658,-0.8759300551682923,-0.04042580329544404,0.01323695523240074,-0.480559232444819,0.05813080377283836,-0.06218833232171408,1.0053862723540616
1780770798880453376,0.35998034477233887,0.03695382550358772,-0.004657003562897444,-0.014815754257142544,-0.06218801438808441,-0.058368783444166183,-0.9963562488555908,-0.009009495377540588,0.002414800226688385,0.0020630359649658203,-0.8759562908442079,-0.040578800035584,0.013238052429386011,-0.4804984844680851,0.058401975898441885,-0.06233458053821061,1.0052671148232488
1780770798890488320,0.37001538276672363,0.05470166355371475,-0.0035453992895781994,-0.020557530224323273,-0.0622488409280777,-0.05871511995792389,-0.9963321089744568,-0.008750304579734802,0.0017998367547988892,-0.001974165439605713,-0.8759880138076593,-0.04074463576389596,0.013184597535868437,-0.48042816592588433,0.0587489099237632,-0.06239689982271875,1.0051258816785906
1780770798900522496,0.380049467086792,0.07701069861650467,-0.01729716546833515,-0.02019001543521881,-0.06235671043395996,-0.059188373386859894,-0.9962973594665527,-0.0043852366507053375,0.006392963230609894,-0.013025760650634766,-0.876021488913595,-0.04097749264748035,0.013121665786625923,-0.4803488947412184,0.05922298626541212,-0.0625069184782337,1.0049724728258111
1780770798910557440,0.39008450508117676,0.10564500838518143,-0.030598057433962822,-0.022211620584130287,-0.06263134628534317,-0.05992733687162399,-0.9962359070777893,-0.0007078871130943298,0.017279021441936493,-0.018794000148773193,-0.8760495103230718,-0.04136735907851206,0.013068151441022175,-0.4802657733272075,0.05996326507058724,-0.06278535796519659,1.00483107858931
1780770798920591360,0.400118350982666,0.12909521162509918,-0.03354590758681297,-0.03198009356856346,-0.06297575682401657,-0.06102000176906586,-0.996147871017456,0.003039233386516571,0.023864850401878357,-0.015723466873168945,-0.8760896116244624,-0.04192905521435581,0.012961887737299609,-0.48014682743981485,0.06105793182772603,-0.06313526287321372,1.0046288271076842
1780770798930626304,0.4101533889770508,0.13032744824886322,-0.037533994764089584,-0.032373711466789246,-0.06335378438234329,-0.06234367564320564,-0.9960419535636902,0.0036003664135932922,0.019268114119768143,-0.019277870655059814,-0.8761385401457925,-0.04260013762643105,0.012816153312258322,-0.4800023797084264,0.06238413295032818,-0.06351997260106447,1.0043821005897209
1780770798940661504,0.42018842697143555,0.11287708580493927,-0.047159988433122635,-0.03497801721096039,-0.06376669555902481,-0.0636013075709343,-0.9959360957145691,0.0017092004418373108,0.008974850177764893,-0.014104187488555908,-0.8761925517900383,-0.04325055658919,0.012702256275773732,-0.4798487354316589,0.06364426532931121,-0.06393961739975335,1.0041139103986458
1780770798950695424,0.4302225112915039,0.0746958777308464,-0.0552862212061882,-0.03675301373004913,-0.06424237787723541,-0.06456726789474487,-0.9958433508872986,-0.0002717822790145874,-0.001106560230255127,-0.013556063175201416,-0.876254937979167,-0.043787793093449406,0.01268670454944379,-0.47968618908927796,0.06461221305569397,-0.06442125528584378,1.0038148222296117
1780770798960730624,0.44025754928588867,0.0347180999815464,-0.07613078504800797,-0.041391707956790924,-0.06487135589122772,-0.06514731049537659,-0.9957647919654846,0.002584978938102722,-0.004356473684310913,-0.01195615530014038,-0.8763314974442378,-0.04419198693113385,0.012832330342514898,-0.4795055159559114,0.06519348477613249,-0.06505533398651053,1.0034634983749364
1780770798970764288,0.45029139518737793,0.002001167042180896,-0.09727256000041962,-0.04841712489724159,-0.06572695076465607,-0.06535493582487106,-0.9956950545310974,0.004462920129299164,-0.00268399715423584,-0.0038928985595703125,-0.8764287488180558,-0.04448640771351453,0.013168814559491565,-0.4792912628689745,0.06540155217519743,-0.06591549020192411,1.0030285705672533
1780770798980799488,0.4603264331817627,-0.01668623462319374,-0.09922625124454498,-0.05893155187368393,-0.06668715178966522,-0.06531325727701187,-0.9956339597702026,-0.002511456608772278,-0.00042160600423812866,-0.0004445314407348633,-0.8765531213447085,-0.044695479224746794,0.01361356605042083,-0.4790319140523089,0.06535978359670368,-0.06687969047130264,1.002483711806993
1780770798990833408,0.47036051750183105,-0.010901049710810184,-0.09191587567329407,-0.07231579720973969,-0.06759727746248245,-0.06522264331579208,-0.9955785274505615,-0.01328955590724945,-0.011086560785770416,0.0054814815521240234,-0.8767056095806719,-0.04486993921520492,0.014050706016901624,-0.47872379554254063,0.06526897171485817,-0.0677934376113714,1.0018227388076784
1780770799000868608,0.4803955554962158,-0.005995773244649172,-0.08198042213916779,-0.06573033332824707,-0.06841246038675308,-0.06517156958580017,-0.9955261945724487,-0.018074356019496918,-0.002424865961074829,0.0005768537521362305,-0.876864676342564,-0.0450385068982824,0.014437330180429055,-0.47840499248974716,0.06521779250769708,-0.06861203303278918,1.001134833171587
1780770799010902528,0.4904294013977051,0.009291036985814571,-0.08817706257104874,-0.06862864643335342,-0.06920135021209717,-0.06522966176271439,-0.9954678416252136,-0.015362858772277832,0.021208055317401886,-0.010345757007598877,-0.8770164887971647,-0.04524873348197796,0.014785834803758325,-0.478096363349836,0.06527600953196773,-0.0694047531265162,1.0004748755579733
1780770799020937472,0.5004644393920898,0.024811407551169395,-0.08468938618898392,-0.06732583045959473,-0.07001276314258575,-0.0654621571302414,-0.995395839214325,-0.007807061076164246,0.022890135645866394,-0.011684238910675049,-0.8771676438037229,-0.04554087182232373,0.015102932848987597,-0.47778131632231874,0.06550900468785696,-0.07022095538015281,0.9998110240338759
1780770799030971648,0.5104985237121582,0.022569024935364723,-0.09999457746744156,-0.07111044973134995,-0.0708811953663826,-0.06576310098171234,-0.9953145384788513,-0.006786033511161804,0.009336106479167938,-0.005372047424316406,-0.8773174982899541,-0.04587662378485106,0.015429066152795106,-0.4774633952703684,0.06581059536877193,-0.0710948445568808,0.9991477597402018
1780770799041006592,0.520533561706543,0.010852182283997536,-0.10639841109514236,-0.0692712739109993,-0.07189531624317169,-0.06599197536706924,-0.9952266812324524,-0.007084175944328308,-0.0032371506094932556,-0.0010196566581726074,-0.877476440634739,-0.046215034134797654,0.015837798448133034,-0.47712533029067555,0.06603997032298366,-0.0721148699092937,0.9984430571343731
1780770799051040512,0.5305674076080322,-0.01692458800971508,-0.1006891280412674,-0.0708308145403862,-0.07289978116750717,-0.06603804230690002,-0.9951505661010742,-0.010489501059055328,-0.0032521188259124756,0.009310722351074219,-0.8776269266754956,-0.04647067444425968,0.016285147927292288,-0.4768083395316558,0.0660861350454074,-0.07312441032939862,0.997776373765038
1780770799061075456,0.540602445602417,-0.04435807466506958,-0.07769939303398132,-0.08560922741889954,-0.07369643449783325,-0.06577993184328079,-0.995108962059021,-0.015063948929309845,-0.0014350414276123047,0.017279982566833496,-0.8778145943291078,-0.04654110914436375,0.016716655109513572,-0.4764409876197154,0.0658274612390013,-0.07392370341772707,0.9969675293082452
1780770799071109632,0.5506365299224854,-0.08798091858625412,-0.09672128409147263,-0.09654257446527481,-0.07448848336935043,-0.06523159891366959,-0.9950860738754272,-0.016972698271274567,-0.002181731164455414,0.015166640281677246,-0.8780378492076596,-0.046481017577612735,0.01721847422595953,-0.47601730855408875,0.06527795253468029,-0.07471696987947783,0.9960141351810202
1780770799081144576,0.5606715679168701,-0.1536312997341156,-0.11313221603631973,-0.10420448333024979,-0.07549002021551132,-0.0640818178653717,-0.9950852990150452,-0.01713082194328308,0.006998695433139801,0.009108185768127441,-0.8782982658510935,-0.04620413712444536,0.017958891535027423,-0.4755363489711888,0.06412575528347979,-0.07571782807997025,0.994908040807868
1780770799091179264,0.5707063674926758,-0.1542361080646515,-0.1337662637233734,-0.11380624771118164,-0.0766604095697403,-0.06261374056339264,-0.9950892925262451,-0.019744619727134705,0.002097390592098236,0.0006892681121826172,-0.8785845145242835,-0.04582545691428085,0.018851556564559394,-0.475009328583787,0.06265472818982698,-0.07688685806787032,0.9936879641162942
1780770799101213440,0.5807404518127441,-0.14497388899326324,-0.17344336211681366,-0.09713059663772583,-0.07811883836984634,-0.0611971914768219,-0.9950640201568604,-0.021078549325466156,-0.011404130607843399,-0.03169989585876465,-0.8788598804036489,-0.045537426007819716,0.019858151245451882,-0.4744863537450462,0.061235452742078623,-0.07834565631326865,0.9924946210750654
1780770799111248384,0.5907754898071289,-0.1449453979730606,-0.21032999455928802,-0.09418541193008423,-0.07999623566865921,-0.059828490018844604,-0.994998037815094,-0.013707980513572693,0.008558962494134903,-0.03521430492401123,-0.8790928586095812,-0.045370769212991796,0.021034726149977086,-0.4740197244476272,0.05986423799708668,-0.08022582115389679,0.9914532646868423
1780770799121282304,0.6008093357086182,-0.11321170628070831,-0.22089901566505432,-0.12449990957975388,-0.08209798485040665,-0.05862908437848091,-0.99489825963974,-0.011346839368343353,0.03223137930035591,-0.02823406457901001,-0.8793557595921626,-0.04532938692013039,0.02227365651077048,-0.4734792628633871,0.05866272637105104,-0.08233243638099878,0.9902644950342306
1780770799131317504,0.6108443737030029,-0.0969480499625206,-0.23242692649364471,-0.14001548290252686,-0.08428207039833069,-0.05770258232951164,-0.994769811630249,-0.012229770421981812,0.02912287414073944,-0.025127649307250977,-0.8796693454779553,-0.045423864333932557,0.023489889014223473,-0.47282852574882406,0.057734651874869806,-0.08452333773380795,0.9888444985775223
1780770799141351424,0.6208784580230713,-0.12333811074495316,-0.22740180790424347,-0.1666359156370163,-0.08649923652410507,-0.05677759274840355,-0.9946326613426208,-0.013247460126876831,0.01802026852965355,-0.003017425537109375,-0.8800222051901975,-0.04552303086067345,0.02472465520195857,-0.47209889870543725,0.056808140969477755,-0.08674775589931162,0.9872469876838332
1780770799151385088,0.6309120655059814,-0.23527422547340393,-0.2326907068490982,-0.21255867183208466,-0.088661789894104,-0.055197473615407944,-0.9945312142372131,-0.022895216941833496,0.020117517560720444,-0.00046390295028686523,-0.8804793641776474,-0.04531237416156053,0.026099503965240366,-0.4711918515294988,0.055225541005347475,-0.08891427665867307,0.9852045675173364
1780770799161419008,0.6409459114074707,-0.3645195960998535,-0.2488347887992859,-0.23990453779697418,-0.09094927459955215,-0.05239257588982582,-0.9944763779640198,-0.025978825986385345,0.03611145168542862,-0.0030059218406677246,-0.8810524657435862,-0.04458060649984452,0.027827772418337116,-0.47009025057754905,0.052416576648934836,-0.09120073212295089,0.982652818500106
1780770799171453952,0.6509809494018555,-0.4593965709209442,-0.2857780158519745,-0.25806301832199097,-0.09347767382860184,-0.048509418964385986,-0.9944389462471008,-0.02479320764541626,0.038224995136260986,-0.01207655668258667,-0.8816953157001368,-0.043420122747076816,0.029920459556914164,-0.4688634038832386,0.048528465916466076,-0.09372500881308245,0.9797627240356902
1780770799181488128,0.6610150337219238,-0.5417041778564453,-0.303040087223053,-0.2744350731372833,-0.09629295021295547,-0.04376421496272087,-0.9943904280662537,-0.028783336281776428,0.02722369134426117,-0.024866104125976562,-0.8823829393302048,-0.04193652223958328,0.03234353716070917,-0.46754207261400854,0.04377819708719737,-0.09653516170061185,0.9766182986730424
1780770799191522816,0.6710498332977295,-0.6321576237678528,-0.3397302031517029,-0.2921629548072815,-0.09934937953948975,-0.03822537511587143,-0.9943181276321411,-0.027985215187072754,0.02818509191274643,-0.04076182842254639,-0.8831146207565184,-0.04014710392235294,0.035059240921109326,-0.4661198074432672,0.038234690803063714,-0.09958656687113444,0.9732057222146449
1780770799201556992,0.6810839176177979,-0.7131392955780029,-0.39297986030578613,-0.31285837292671204,-0.10290193557739258,-0.03181209787726402,-0.9941826462745667,-0.022525303065776825,0.05033626779913902,-0.050372958183288574,-0.8838820554643962,-0.03807341788247489,0.0381979034501391,-0.46458994502911405,0.031817466121121,-0.1031367960597812,0.9695150146261047
1780770799211591936,0.6911189556121826,-0.84761643409729,-0.4112800061702728,-0.3558220863342285,-0.10684865713119507,-0.02445966936647892,-0.9939743876457214,-0.01955515146255493,0.05145246535539627,-0.048002541065216064,-0.8847167526609026,-0.035656739912251746,0.041730106603091954,-0.4628859590460638,0.024462109052548267,-0.10708517866463092,0.9653846303604903
1780770799221626112,0.701153039932251,-1.087545394897461,-0.455872505903244,-0.39804303646087646,-0.1110762283205986,-0.01529014017432928,-0.9936942458152771,-0.0213395357131958,0.040161967277526855,-0.054523468017578125,-0.885660492767389,-0.03247226854166986,0.045808531527851,-0.460925824464096,0.015290736230765014,-0.11131898078396853,0.9605701092533699
1780770799231660800,0.7111878395080566,-1.17598557472229,-0.5311902165412903,-0.43505191802978516,-0.11593417823314667,-0.004230833612382412,-0.9932478666305542,-0.017168231308460236,0.04539904743432999,-0.052177488803863525,-0.8866795772874739,-0.02856274049322372,0.05059867923621869,-0.4587191227764436,0.004230846449694499,-0.11619651648861001,0.9551000896076165
1780770799241696000,0.7212228775024414,-1.0322855710983276,-0.6167069673538208,-0.4434744417667389,-0.1216960996389389,0.006264457479119301,-0.9925476312637329,-0.012077696621418,0.03600239008665085,-0.06691586971282959,-0.8871654212884174,-0.025146567458829785,0.055622213970236936,-0.45739628031705515,-0.006264498292681695,-0.1220009135300134,0.9516698866669046
1780770799251729920,0.7312569618225098,-0.9469805955886841,-0.6275272369384766,-0.4595559239387512,-0.12796972692012787,0.01551893912255764,-0.9916566610336304,-0.007406249642372131,0.05541917309165001,-0.06124556064605713,-0.8881305791142281,-0.022316715573283914,0.06061055118512565,-0.45503013460120695,-0.015519562467224995,-0.12833714120996942,0.9459538484729796
1780770799261765120,0.7412919998168945,-0.8859158754348755,-0.6309302449226379,-0.48406046628952026,-0.13430483639240265,0.023984970524907112,-0.9906497597694397,-0.02144162356853485,0.10701173543930054,-0.0787472128868103,-0.8891032173101974,-0.019821328553821484,0.06543881987876923,-0.45257069078684053,-0.023987270126052177,-0.13475091025532251,0.9400551898197768
1780770799271798784,0.7513258457183838,-0.864496111869812,-0.6497045755386353,-0.4961368441581726,-0.14081554114818573,0.03198113664984703,-0.9895191788673401,-0.02147693932056427,0.12260565161705017,-0.09707444906234741,-0.8900771995361993,-0.017544323008214166,0.07023255331523738,-0.45002450046126535,-0.03198658985298514,-0.1413579073612171,0.9339729262308667
1780770799281833984,0.7613608837127686,-1.0112367868423462,-0.6785982847213745,-0.524352490901947,-0.14758430421352386,0.0403413251042366,-0.9882264137268066,0.0007642358541488647,0.090792715549469,-0.09569692611694336,-0.8910536104043231,-0.015128042648113467,0.0752192387029429,-0.4473663825098168,-0.04035227347057055,-0.1482469530624442,0.9275987458806437
1780770799291867904,0.7713949680328369,-1.5653828382492065,-0.7330612540245056,-0.5861599445343018,-0.1548137664794922,0.05196467787027359,-0.9865760803222656,0.019910797476768494,0.02886112779378891,-0.09197616577148438,-0.8921003263130727,-0.011292522199409264,0.08114454203503212,-0.44434784203705835,-0.051988094223927264,-0.15565094623640777,0.9201846100124386
1780770799301903104,0.7814300060272217,-2.5271260738372803,-0.8041069507598877,-0.6811522245407104,-0.16276390850543976,0.07097644358873367,-0.9841088652610779,0.03178246319293976,-0.04044360667467117,-0.05530458688735962,-0.8932559654424935,-0.004191952860180945,0.08903929718828318,-0.440622408058476,-0.07103617326217732,-0.1639083741044218,0.9106718273020293
1780770799311936768,0.7914638519287109,-3.6472413539886475,-0.9438179731369019,-0.7906025648117065,-0.17201009392738342,0.1002252846956253,-0.979983389377594,0.05166400969028473,-0.1039942055940628,0.003863394260406494,-0.8944354632549479,0.007410240687135538,0.09976672587684413,-0.4358633621709267,-0.10039384395593659,-0.17375354384606906,0.8981299248641745
1780770799321971968,0.8014988899230957,-4.552647590637207,-1.107367992401123,-0.8630495667457581,-0.18305270373821259,0.13912592828273773,-0.9732089638710022,0.06906954944133759,-0.16505061089992523,0.0582309365272522,-0.8953786822930756,0.02324002075993151,0.11338175160317972,-0.43000171426729783,-0.13957870925764607,-0.18591967330964596,0.8824054888054313
1780770799332005888,0.8115329742431641,-5.265574932098389,-1.2560222148895264,-0.8986059427261353,-0.1960199475288391,0.18521711230278015,-0.9629489779472351,0.0782221108675003,-0.19460129737854004,0.10232281684875488,-0.8957312051753259,0.04225247397520244,0.1293840208701714,-0.4232493308443479,-0.18629279993928943,-0.20081832303855046,0.8640203604646923
1780770799342041088,0.8215680122375488,-5.713063716888428,-1.3005316257476807,-0.9466384649276733,-0.21029341220855713,0.23629538714885712,-0.9486522674560547,0.06982101500034332,-0.15116660296916962,0.1560802459716797,-0.8953143617153974,0.06371422908286153,0.14701819210379025,-0.41561815045440426,-0.23855149214064425,-0.2181483390127177,0.8429772140260074
1780770799352074752,0.8316018581390381,-5.727616310119629,-1.2617532014846802,-0.9674739837646484,-0.22490735352039337,0.2883947193622589,-0.9307229518890381,0.04163403809070587,-0.07072809338569641,0.18298125267028809,-0.8941342028786309,0.08611332206571845,0.1649940309790234,-0.4072904342296241,-0.2925498951165185,-0.23710265544385475,0.8197667641822967
1780770799362109952,0.8416368961334229,-5.423002243041992,-1.1762890815734863,-0.9511544108390808,-0.23923225700855255,0.33781424164772034,-0.9103018641471863,0.01820869743824005,0.024185270071029663,0.15219944715499878,-0.8922883064126533,0.10785861964148362,0.18225144381832029,-0.39871366727334095,-0.3445936604530695,-0.2569940304542551,0.7954897559661095
1780770799372143872,0.8516709804534912,-4.938481330871582,-1.0663326978683472,-0.9272000789642334,-0.2527223527431488,0.38228678703308105,-0.8888128399848938,0.0028291642665863037,0.10814595222473145,0.1168554425239563,-0.8900158522545647,0.12792257335883128,0.19806412755055974,-0.3902285662693463,-0.39226980520196864,-0.27702582252557345,0.7710346783852003
1780770799382179072,0.861706018447876,-4.48315954208374,-0.9057654142379761,-0.9324547648429871,-0.26521599292755127,0.421387642621994,-0.8672329187393188,-0.00898444652557373,0.15731719136238098,0.07936060428619385,-0.8875506153875102,0.14604982514989864,0.21225690878907247,-0.3819296542207065,-0.43497490125898847,-0.2967864038177951,0.7466876290662765
1780770799392214016,0.8717410564422607,-3.955343246459961,-0.7446624040603638,-0.938810408115387,-0.2764023542404175,0.45517697930336,-0.8464133739471436,-0.013209432363510132,0.16533690690994263,0.04851609468460083,-0.8851629397691114,0.1622599307310858,0.22464420608169616,-0.3737555417708965,-0.4725709779422176,-0.3156396537701427,0.7224688179551664
1780770799402247936,0.88177490234375,-3.3591647148132324,-0.6803553104400635,-0.9085928201675415,-0.28670334815979004,0.48324212431907654,-0.8272111415863037,0.005529642105102539,0.11011114716529846,-0.008833169937133789,-0.8829659310912191,0.17608517153827705,0.23534751649851238,-0.3660283148019851,-0.5043541689212871,-0.33363401355848593,0.6992454678991057
1780770799412282880,0.8918099403381348,-2.8494837284088135,-0.6879466772079468,-0.8804227113723755,-0.2967170774936676,0.5060820579528809,-0.8098394870758057,0.0435432493686676,0.03471994400024414,-0.033437490463256836,-0.8809433459702417,0.18748480525827682,0.24480547087375398,-0.3589688892677368,-0.5306361101890581,-0.35120089089031103,0.6775318788269482
1780770799422317056,0.9018440246582031,-2.4125688076019287,-0.7419782280921936,-0.9068284630775452,-0.3070777952671051,0.5245557427406311,-0.7940683364868164,0.07900464534759521,0.0013384222984313965,-0.016921043395996094,-0.879103388739808,0.19671121257694874,0.25351634377233584,-0.35243637051415566,-0.5521932236923504,-0.36900120904838324,0.6569170112089627
1780770799432352000,0.9118790626525879,-1.9282726049423218,-0.7551249861717224,-0.9225179553031921,-0.31793415546417236,0.5388346314430237,-0.7801122665405273,0.09320271015167236,-0.005051672458648682,0.027045249938964844,-0.8775546945067138,0.2037750058875862,0.26157145620182626,-0.34634366128492305,-0.5690531556014568,-0.3869973591651765,0.6373139166538286
1780770799442385920,0.9219129085540771,-1.491835117340088,-0.7226674556732178,-0.8816807866096497,-0.3286159336566925,0.5491257309913635,-0.7684221267700195,0.08220171928405762,-0.031944334506988525,0.08491992950439453,-0.876370105120439,0.20878771746657068,0.2686943156488847,-0.3408615456854339,-0.5813177954547625,-0.4041133081069075,0.6194817043103445
1780770799452420864,0.9319479465484619,-1.218806266784668,-0.6331791281700134,-0.8450519442558289,-0.3386201858520508,0.5565347075462341,-0.7586867213249207,0.05262473225593567,-0.06468290090560913,0.13606709241867065,-0.8754584195847307,0.2123382603430864,0.2748983572580447,-0.33602979375803677,-0.5902090419584445,-0.4197928817018067,0.6036483844160707
1780770799462455040,0.9419820308685303,-1.0890051126480103,-0.5565557479858398,-0.8265626430511475,-0.34778034687042236,0.5623597502708435,-0.7502001523971558,0.03425806760787964,-0.08710956573486328,0.16380494832992554,-0.8748601238539568,0.21528256067888987,0.28027371347853164,-0.331239628070845,-0.597236828168396,-0.4340923280726091,0.5883269086467088
1780770799472489984,0.952017068862915,-1.0487042665481567,-0.5083579421043396,-0.7941190004348755,-0.3563440442085266,0.5674235224723816,-0.742327094078064,0.03236943483352661,-0.08178204298019409,0.14337384700775146,-0.8743629078431618,0.21796131655353232,0.28518294104747344,-0.32657794425692677,-0.603373467781624,-0.4475495812579071,0.5735098541479958
1780770799482523904,0.9620509147644043,-1.0746355056762695,-0.4914199709892273,-0.7499610781669617,-0.3644784986972809,0.5724917650222778,-0.7344443798065186,0.055823713541030884,-0.06451147794723511,0.12880784273147583,-0.8737268686943295,0.22068187775017492,0.28996087789862995,-0.3222165598175851,-0.6095417120745208,-0.4606545578310178,0.5593598181109728
1780770799492558848,0.9720859527587891,-1.102845311164856,-0.4590229094028473,-0.7038140892982483,-0.37215936183929443,0.5777987241744995,-0.7263924479484558,0.07331600785255432,-0.06427943706512451,0.11959618330001831,-0.872979862639645,0.22362971107196897,0.29460739917629586,-0.3179660085030043,-0.6160290856800482,-0.4734701987724732,0.5453837617676635
1780770799502593024,0.9821200370788574,-1.1174497604370117,-0.43339797854423523,-0.6239757537841797,-0.3792753219604492,0.5833466649055481,-0.7182318568229675,0.0705290138721466,-0.0869477391242981,0.07701170444488525,-0.8721153832959154,0.2267985280923876,0.2990760963573643,-0.3138961997696035,-0.6228430061201864,-0.4858491567282768,0.5317723370412101
1780770799512627968,0.9921548366546631,-1.155682921409607,-0.4023574888706207,-0.5391226410865784,-0.3856920301914215,0.5892505645751953,-0.7099475860595703,0.06324329972267151,-0.11549568176269531,0.04173469543457031,-0.8710887459513816,0.23022704037248665,0.3033508208614988,-0.31012637388166747,-0.6301309300075102,-0.49766023652230706,0.5188045859326526
1780770799522662912,1.0021898746490479,-1.1687043905258179,-0.35144639015197754,-0.4763264060020447,-0.39137694239616394,0.5955567359924316,-0.7015241980552673,0.04770323634147644,-0.11662912368774414,0.02925252914428711,-0.8699306223174927,0.23397267441390945,0.30739987221315845,-0.3065661198903286,-0.6379585512085887,-0.5088845086723154,0.5062624742492519
1780770799532697088,1.0122239589691162,-1.096429705619812,-0.3025510311126709,-0.42143064737319946,-0.39635342359542847,0.601752519607544,-0.6933959126472473,0.034353941679000854,-0.09531331062316895,0.020223915576934814,-0.8687637781542563,0.23774423992586147,0.31109439106305925,-0.3032284634719308,-0.6456935588860259,-0.5192843928817944,0.49435483004828046
1780770799542732032,1.022258996963501,-0.9847274422645569,-0.2661570608615875,-0.3664635419845581,-0.4007095396518707,0.6073943376541138,-0.6859329342842102,0.026777654886245728,-0.07379448413848877,0.018223583698272705,-0.8676584347715927,0.2412359396766386,0.31438631282798163,-0.3002254169436355,-0.6527764024087984,-0.5287072828978328,0.48350301771126347
1780770799552765952,1.0322928428649902,-0.8580978512763977,-0.18369467556476593,-0.318465918302536,-0.4043416678905487,0.6123416423797607,-0.6793714165687561,0.014647483825683594,-0.04788857698440552,0.037342607975006104,-0.8666877130586249,0.24437454709396647,0.31716773270528986,-0.2975536455723048,-0.6590191141562308,-0.5368606683498621,0.4738454584721819
1780770799562800896,1.042327880859375,-0.7015085220336914,-0.09180149435997009,-0.2753285765647888,-0.40709736943244934,0.6164265275001526,-0.6740104556083679,0.0022054314613342285,-0.030626356601715088,0.03756636381149292,-0.8659503568086252,0.24708626270343054,0.3192853797364653,-0.29518681387773715,-0.6641963687556541,-0.5433501081101474,0.4655094380725574
1780770799572835072,1.0523619651794434,-0.5189759731292725,-0.021794578060507774,-0.23160693049430847,-0.40904560685157776,0.6195321083068848,-0.6699714064598083,-0.0010343492031097412,-0.02710956335067749,0.00943368673324585,-0.8654693408378775,0.24926546386298845,0.3207507245133251,-0.2931698117246816,-0.6681464805273217,-0.5481348660541014,0.45867578314341306
1780770799582870016,1.0623970031738281,-0.2689051628112793,0.000800213310867548,-0.18274085223674774,-0.4103846549987793,0.6213663816452026,-0.6674490571022034,0.015944987535476685,-0.020353257656097412,-0.033844947814941406,-0.8652580413695524,0.2506573476184442,0.32163081296030954,-0.29163845890646073,-0.670485425099028,-0.5512710512254868,0.4537489406198981
1780770799592903936,1.0724308490753174,0.03809685260057449,-0.021209213882684708,-0.1278994381427765,-0.4114154875278473,0.6214969158172607,-0.6666924357414246,0.039314717054367065,-0.008658230304718018,-0.08312439918518066,-0.8653278799356448,0.25089610963826525,0.32203247616249525,-0.29078143961842934,-0.6706520313816444,-0.5528977831364438,0.4512619938291474
1780770799602938880,1.0824658870697021,0.310246080160141,-0.084467813372612,-0.05703271925449371,-0.4123270809650421,0.6199200749397278,-0.667596697807312,0.0556071400642395,-0.013017058372497559,-0.11363804340362549,-0.8656035606788268,0.24989602994761914,0.3221080754611383,-0.2907383098257948,-0.6686408741487647,-0.55328125142266,0.45147102381923104
1780770799612973056,1.0924999713897705,0.39572155475616455,-0.1453464776277542,-0.015381942503154278,-0.41331177949905396,0.6173204183578491,-0.6693944334983826,0.05680540204048157,-0.02607285976409912,-0.13135629892349243,-0.8659210981593015,0.24807633268730586,0.3221194102320987,-0.29133818007282,-0.6653320905713578,-0.5531453723314782,0.4535870206409996
1780770799623008000,1.1025350093841553,0.2900039255619049,-0.17563433945178986,0.006703651510179043,-0.4144270420074463,0.6149247884750366,-0.6709081530570984,0.03970170021057129,-0.03750169277191162,-0.11327159404754639,-0.8661059351368261,0.2462980837183018,0.3223091499508086,-0.2920864997655692,-0.6622905607068383,-0.5533402977875603,0.45589484151198634
1780770799633041920,1.1125688552856445,0.03820444270968437,-0.1950846165418625,0.04889078438282013,-0.4155022203922272,0.6138784289360046,-0.6712013483047485,0.015996575355529785,-0.06961268186569214,-0.07652509212493896,-0.865981506634881,0.24532496617379662,0.3228234811910128,-0.2927058758359631,-0.6609643898734597,-0.554303867250877,0.4573291362299096
1780770799643076864,1.1226038932800293,-0.3255535364151001,-0.21161724627017975,0.10826995968818665,-0.4163804054260254,0.6151421070098877,-0.6694980263710022,0.0032029449939727783,-0.10131758451461792,-0.0564846396446228,-0.8653632941481985,0.24575588081332336,0.3238132792699202,-0.2930791537591742,-0.6625661643249026,-0.556388090575563,0.457264173626139
1780770799653111808,1.132638931274414,-0.7205637097358704,-0.22209838032722473,0.16580462455749512,-0.4169873595237732,0.619221031665802,-0.665347158908844,0.00046819448471069336,-0.11603200435638428,-0.030331552028656006,-0.8641611748236186,0.24793261717987952,0.32535494655265157,-0.29308540561513086,-0.6677503037770152,-0.5598362871258737,0.45519948375474717
1780770799663145984,1.1426730155944824,-1.0798901319503784,-0.2451895922422409,0.24065248668193817,-0.41725820302963257,0.6260592937469482,-0.658745288848877,0.0022343993186950684,-0.14037203788757324,0.007347583770751953,-0.8623547714486282,0.25183047296683375,0.3274274830252542,-0.29277454273637943,-0.6764892397488483,-0.5646266378256547,0.451229675969193
1780770799673181184,1.1527080535888672,-1.4379210472106934,-0.2705235779285431,0.3080909252166748,-0.417209267616272,0.6354818940162659,-0.6496915817260742,0.008197426795959473,-0.16322243213653564,0.052386343479156494,-0.859917849883612,0.2573507244866076,0.33003760570097007,-0.29221056282849134,-0.6886325050780222,-0.5708476561794699,0.4454592467866767
1780770799683214848,1.1627418994903564,-1.7545796632766724,-0.25573503971099854,0.36559683084487915,-0.4167522192001343,0.6472296714782715,-0.6382877826690674,0.01137194037437439,-0.15260076522827148,0.11515545845031738,-0.8568858845699534,0.2644085035097019,0.33308294070509553,-0.29135963254978464,-0.7039446148494328,-0.5784266829508942,0.4378152768319488
1780770799693250048,1.1727769374847412,-2.0124218463897705,-0.21381862461566925,0.40485528111457825,-0.4157153367996216,0.6608099341392517,-0.6249088048934937,0.006779789924621582,-0.12319701910018921,0.16543614864349365,-0.8533819912299434,0.2728145516889402,0.3363299355737569,-0.29016133953608486,-0.721897372827742,-0.5870153983860049,0.42830294001688857
1780770799703283968,1.1828110218048096,-2.1782588958740234,-0.14454713463783264,0.43538257479667664,-0.41401612758636475,0.6755719780921936,-0.610076367855072,-0.003784775733947754,-0.0854230523109436,0.17333930730819702,-0.8495366198779364,0.28223033717728735,0.3395701017199709,-0.28866200657440033,-0.7417402192888176,-0.5962392427449583,0.41724561168458907
1780770799713319168,1.1928460597991943,-2.209336280822754,-0.05912384018301964,0.4307188391685486,-0.41163456439971924,0.6907243728637695,-0.5945224165916443,-0.009141772985458374,-0.043522775173187256,0.15313148498535156,-0.8455526634167079,0.29222083990650505,0.3425576726164087,-0.28688326195364283,-0.7624902694027829,-0.6055925415103276,0.4050341419643242
1780770799723352832,1.2028799057006836,-2.064244508743286,0.007889281958341599,0.40137985348701477,-0.40886256098747253,0.7050707340240479,-0.579401969909668,-0.003872424364089966,0.002006232738494873,0.09133440256118774,-0.841716917310563,0.30198287831437415,0.3451164457373497,-0.2849799692128698,-0.7825229001751808,-0.6145165712176788,0.3925944392593176
1780770799733388032,1.2129149436950684,-1.838904857635498,0.023220699280500412,0.35604166984558105,-0.4060334265232086,0.717854380607605,-0.5655280351638794,0.015545755624771118,0.04549705982208252,-0.018532633781433105,-0.8382075007566003,0.31091353963278684,0.3472301356796008,-0.28314685711273735,-0.8007154487975273,-0.6226863275120652,0.3808078285481388
1780770799743421952,1.2229490280151367,-1.5922189950942993,-0.028229709714651108,0.28758352994918823,-0.4036899209022522,0.7287924289703369,-0.5530787706375122,0.0400424599647522,0.07270598411560059,-0.1270970106124878,-0.8350418544714042,0.3186778591664132,0.3491490388445317,-0.2815040269053467,-0.8165567205946527,-0.6305098606755827,0.3699882688731597
1780770799753457152,1.2329840660095215,-1.3868634700775146,-0.10544193536043167,0.19801582396030426,-0.40226301550865173,0.7379430532455444,-0.5418712496757507,0.04984605312347412,0.06756836175918579,-0.186903715133667,-0.8321810440084794,0.3252289585137594,0.35112745909586734,-0.28001843199577997,-0.8300173343458341,-0.638592924532023,0.3598758670537863
1780770799763490816,1.2430179119110107,-1.250555157661438,-0.17873986065387726,0.12428993731737137,-0.4018332064151764,0.7456705570220947,-0.5315123796463013,0.04067295789718628,0.0553242564201355,-0.20760810375213623,-0.8295452842793262,0.3307984985109481,0.35329330669329356,-0.27858709498039524,-0.8415406778018426,-0.6473418477293562,0.3499769345067161
1780770799773526016,1.2530529499053955,-1.1758204698562622,-0.2428627908229828,0.06295893341302872,-0.40226835012435913,0.7524250745773315,-0.5215713381767273,0.017365485429763794,0.05238443613052368,-0.2106826901435852,-0.8270165733772735,0.3356838902322174,0.35571149115406,-0.2771807659222623,-0.851736068569919,-0.6569707657448227,0.339987735005557
1780770799783560960,1.2630879878997803,-1.1276451349258423,-0.2716134786605835,-0.001107399701140821,-0.4033910930156708,0.7585167288780212,-0.511789083480835,-0.01764470338821411,0.05053478479385376,-0.19454026222229004,-0.8245558501929575,0.34014697545638484,0.358337134198992,-0.2756850468371569,-0.8610339360627538,-0.6675030238737498,0.32950862713981266
1780770799793594880,1.2731218338012695,-1.1004934310913086,-0.28295665979385376,-0.030906572937965393,-0.4049287438392639,0.764106035232544,-0.5021700859069824,-0.054650694131851196,0.044197797775268555,-0.16831636428833008,-0.8221725808539923,0.3443324458680536,0.36104033662305896,-0.27407551446198875,-0.8696543752832626,-0.6786056226230572,0.3185550228574565
1780770799803629824,1.2831568717956543,-1.0654001235961914,-0.29096025228500366,-0.03698577359318733,-0.4066309332847595,0.7693721652030945,-0.4926639199256897,-0.07128959894180298,0.04326516389846802,-0.1427120566368103,-0.8198133172763216,0.34833569626160377,0.36377228774280373,-0.27246675374422713,-0.8778577808213539,-0.6900212603420763,0.3074405195550941
1780770799813664000,1.2931909561157227,-1.07350492477417,-0.2696179449558258,-0.032788366079330444,-0.4082925617694855,0.7744612693786621,-0.4832254648208618,-0.07974448800086975,0.033430516719818115,-0.11613970994949341,-0.8174664463888801,0.3522788537010435,0.3664517340038218,-0.27085281501294595,-0.885863039645203,-0.7015443291897809,0.2961757807709124
1780770799823698944,1.3032259941101074,-1.048675775527954,-0.2362501621246338,-0.009512602351605892,-0.4096784293651581,0.7794637680053711,-0.4739196300506592,-0.0812273621559143,0.016755104064941406,-0.10086369514465332,-0.8151469326975066,0.3562418140864588,0.3689606509562154,-0.26924948354854716,-0.8938093806566622,-0.712821785513528,0.28491189195009614
1780770799833732864,1.3132598400115967,-1.0282045602798462,-0.20897258818149567,0.018795201554894447,-0.41068583726882935,0.7843829989433289,-0.464844673871994,-0.07352131605148315,0.0004985928535461426,-0.0948019027709961,-0.8128570789955175,0.3601974213447013,0.37126200329217557,-0.26774214665101004,-0.9017008139222173,-0.7236185567056066,0.2739660647709436
1780770799843767808,1.3232948780059814,-0.9385108947753906,-0.1795174926519394,0.023171573877334595,-0.41138970851898193,0.7890382409095764,-0.456264466047287,-0.06267035007476807,0.003945767879486084,-0.0786629319190979,-0.8106765419916244,0.3640039709643084,0.3733214097388331,-0.2663378990016132,-0.9092419138972173,-0.7337245727745825,0.263557196346531
1780770799853801984,1.3333289623260498,-0.7928128242492676,-0.1442674994468689,0.012096553109586239,-0.41198134422302246,0.7930432558059692,-0.448724627494812,-0.05052778124809265,0.006959795951843262,-0.08583652973175049,-0.8087593285926412,0.3673372855442151,0.37510132306074284,-0.2650861471555097,-0.9157886339223578,-0.7427343496562218,0.2542285733964677
1780770799863836928,1.3433640003204346,-0.585069477558136,-0.10554193705320358,-0.010126993060112,-0.41252052783966064,0.796150267124176,-0.4426867961883545,-0.037720561027526855,0.0161970853805542,-0.09816098213195801,-0.8072420556946492,0.36998637895366543,0.3765191563292208,-0.2640146707252936,-0.9209062080935637,-0.7501391405074074,0.24647036414718335
1780770799873870848,1.3533978462219238,-0.3386578857898712,-0.07717368006706238,-0.03524033725261688,-0.4131140112876892,0.7980818152427673,-0.4386368691921234,-0.02479797601699829,0.028944551944732666,-0.12781518697738647,-0.8062461430592076,0.3716780946646285,0.3775406783839739,-0.26322163004740834,-0.9241050077334863,-0.7554419607082171,0.24097082430004566
1780770799883905792,1.3634328842163086,-0.11668020486831665,-0.06713702529668808,-0.0686185285449028,-0.41382431983947754,0.7988587021827698,-0.43654802441596985,-0.0043579936027526855,0.036300599575042725,-0.13742658495903015,-0.8057584498262272,0.37239472619393865,0.37821707230836304,-0.26273045525107147,-0.9253954259739099,-0.7586824668500313,0.23780968083770718
1780770799893939968,1.373466968536377,0.07008062303066254,-0.06308356672525406,-0.11710723489522934,-0.41485118865966797,0.7985503077507019,-0.436137318611145,0.009470939636230469,0.03029179573059082,-0.1253250539302826,-0.805726583730441,0.3722074365027725,0.37867263070011786,-0.2624370250209726,-0.924882911509343,-0.7603899495107515,0.2364706193633217
1780770799903974912,1.3835020065307617,0.20243173837661743,-0.0677984207868576,-0.12412998825311661,-0.4161146581172943,0.7974263429641724,-0.4369896352291107,0.014945834875106812,0.009855151176452637,-0.10109633207321167,-0.8060280802288317,0.3713257847657799,0.37897539523887275,-0.2623234990729093,-0.9230179389376892,-0.7609336330319126,0.2365889552117892
1780770799914010112,1.3935370445251465,0.2506650388240814,-0.06971310079097748,-0.1205778643488884,-0.4174002408981323,0.7958901524543762,-0.43856123089790344,0.013576388359069824,-0.01032191514968872,-0.07761305570602417,-0.8064884835391648,0.3700557339173393,0.37918087615049323,-0.262406134661571,-0.9204764148255552,-0.7606812862036663,0.2377968440507675
1780770799924043776,1.4035708904266357,0.2205020785331726,-0.04692469909787178,-0.12172089517116547,-0.4186265170574188,0.794320821762085,-0.4402344524860382,0.0031601786613464355,-0.02680373191833496,-0.05839228630065918,-0.8069821198526468,0.3687736108909445,0.3793267726831093,-0.26248263364370955,-0.9178887353536199,-0.7602446384237292,0.23908866274987772
1780770799934078976,1.4136059284210205,0.1452384889125824,-0.011274159885942936,-0.11886492371559143,-0.41971808671951294,0.7929829359054565,-0.441604882478714,-0.01112908124923706,-0.031248927116394043,-0.04002350568771362,-0.8074330951325902,0.3677471607674238,0.37942005912119653,-0.262401118037856,-0.9156896688666741,-0.7599929584265172,0.23976769256227748
1780770799944112896,1.4236400127410889,0.06080935522913933,0.015156116336584091,-0.10481621325016022,-0.4205942749977112,0.7920526266098022,-0.4424399733543396,-0.010741174221038818,-0.022811293601989746,-0.0215187668800354,-0.807778340836871,0.367121638849207,0.379475577583225,-0.262133884913061,-0.9141641741970797,-0.7600908816749165,0.23959276690849654
1780770799954148096,1.4336750507354736,0.013456488028168678,0.02330738678574562,-0.09201892465353012,-0.42126819491386414,0.7914676666259766,-0.44284528493881226,0.0006902217864990234,-0.012994825839996338,-0.020472556352615356,-0.8080209736866368,0.36680736641359923,0.3795124616128222,-0.2617721087679652,-0.9132064871088549,-0.7604331203863868,0.23887552877739437
1780770799964182016,1.443708896636963,-0.03088407963514328,0.020792562514543533,-0.10010721534490585,-0.42191368341445923,0.7911008596420288,-0.44288644194602966,0.008446216583251953,-0.005608856678009033,-0.040130615234375,-0.808173976740462,0.3666847626010733,0.37960383395589176,-0.2613391905485581,-0.912606661355743,-0.7611513625886829,0.23768789017387118
1780770799974216960,1.4537439346313477,-0.041140180081129074,0.01726134493947029,-0.11294471472501755,-0.42266586422920227,0.7908164262771606,-0.4426770806312561,0.01601913571357727,0.010071635246276855,-0.047343671321868896,-0.8082821601248595,0.36665860041236115,0.37976693381882876,-0.2608036598243305,-0.9121417593107114,-0.762277085471107,0.2360147104113833
1780770799984251136,1.463778018951416,-0.014869160018861294,0.013249825686216354,-0.11513889580965042,-0.42349934577941895,0.790457546710968,-0.4425213932991028,0.019309252500534058,0.019204258918762207,-0.04531735181808472,-0.8084099893954001,0.36657678968010493,0.37994837209592586,-0.26025758057053955,-0.9115556628656065,-0.763436814579711,0.2343434942049343
1780770799994286080,1.4738130569458008,0.030696993693709373,0.02386944741010666,-0.12256991118192673,-0.4243510663509369,0.7899107336997986,-0.4426817297935486,0.016392111778259277,0.02155160903930664,-0.03824475407600403,-0.8086187581086436,0.36633596995737033,0.3800751051598689,-0.25976245115810714,-0.9106634508392458,-0.7642594560771546,0.2330600748668241
1780770800004320000,1.48384690284729,0.07192033529281616,0.046526022255420685,-0.14461077749729156,-0.425253301858902,0.7890973091125488,-0.44326627254486084,0.010260015726089478,0.026057660579681396,-0.03199920058250427,-0.8089598805868596,0.365903282298336,0.38010741386191554,-0.2592624836959439,-0.9093381114352538,-0.7646612758980795,0.23210966132373256
1780770800014354944,1.4938819408416748,0.11658820509910583,0.0698595717549324,-0.14906756579875946,-0.42615824937820435,0.7880475521087646,-0.4442635178565979,0.009517043828964233,0.029792964458465576,-0.018520265817642212,-0.8094388771246777,0.3653192163626461,0.3800133079398615,-0.2587283035701733,-0.9076309798650851,-0.7646005984555267,0.23141989091944629
1780770800024389120,1.5039160251617432,0.16229604184627533,0.06824623048305511,-0.12569940090179443,-0.42695024609565735,0.7868103981018066,-0.445693701505661,0.014200001955032349,0.02025747299194336,-0.0031893253326416016,-0.8100142262786941,0.3645601809829998,0.37980129739041224,-0.25830942096211346,-0.905623894132416,-0.763922546950678,0.23140005528294294
1780770800034424064,1.513951063156128,0.14580148458480835,0.06268329173326492,-0.11060166358947754,-0.4275747835636139,0.7855901122093201,-0.4472449719905853,0.01572483777999878,-0.006354272365570068,0.007517218589782715,-0.8105853844814032,0.36377071004573347,0.3795370737934495,-0.2580191437665998,-0.903649257052508,-0.7629171314293656,0.23183235530938986
1780770800044458752,1.5239858627319336,0.08162648975849152,0.055164117366075516,-0.09527171403169632,-0.4281252920627594,0.7846165299415588,-0.448425829410553,0.010583758354187012,-0.029871046543121338,0.02293449640274048,-0.8110476548893991,0.3631728768625337,0.379331703307958,-0.25771045884265903,-0.9020773416684592,-0.762242716295749,0.2319272383118817
1780770800054492928,1.534019947052002,-0.004022636916488409,0.04206935688853264,-0.07713691890239716,-0.42858582735061646,0.7840616703033447,-0.4489559829235077,-0.001666247844696045,-0.0435526967048645,0.03464934229850769,-0.8113249313104611,0.3629037401769397,0.37923987935630676,-0.25735159007915454,-0.9011829197182353,-0.7621895915870736,0.2313812825920959
1780770800064527872,1.5440549850463867,-0.07583237439393997,0.047050800174474716,-0.06526055186986923,-0.4289363622665405,0.7839395999908447,-0.4488343596458435,-0.016864418983459473,-0.03865456581115723,0.034741342067718506,-0.8114280828901175,0.3629907672967869,0.3792367693488703,-0.2569078643657255,-0.90098629903229,-0.7627332694616863,0.2301136854176108
1780770800074562048,1.554089069366455,-0.09289471805095673,0.06123838946223259,-0.06037179008126259,-0.42917749285697937,0.7840542197227478,-0.44840335845947266,-0.02976110577583313,-0.004864215850830078,0.022042274475097656,-0.8114594070200424,0.36329096073054135,0.37923343047774655,-0.2563889310332297,-0.9011709438945094,-0.7634938755054596,0.2284289628252674
1780770800084596992,1.5641238689422607,-0.06854383647441864,0.07729539275169373,-0.06247382238507271,-0.4293362498283386,0.7841624021530151,-0.4480619728565216,-0.03302028775215149,0.03592115640640259,0.006548970937728882,-0.8115200137405632,0.3635977610485966,0.37916444345763006,-0.2558635321998334,-0.9013452600988651,-0.7640590623195509,0.22681911192812007
1780770800094630912,1.574157953262329,-0.029948776587843895,0.09065833687782288,-0.07048168033361435,-0.42947906255722046,0.7840885519981384,-0.448054701089859,-0.03106173872947693,0.06101959943771362,-0.008732438087463379,-0.8116822189027002,0.36377539610181414,0.3789988262385162,-0.255341843124928,-0.9012262328051712,-0.7642333117299664,0.22549791050856507
1780770800104666112,1.5841929912567139,0.01659662090241909,0.09171480685472488,-0.081362284719944,-0.42966997623443604,0.7837720513343811,-0.44842517375946045,-0.023668646812438965,0.0684160590171814,-0.020935148000717163,-0.8119523054579628,0.36376485663203,0.37876448618238356,-0.2548451627424078,-0.9007163875382879,-0.764042428304919,0.2245406739271948
1780770800114699776,1.5942268371582031,0.06279714405536652,0.07697314769029617,-0.08028903603553772,-0.42992523312568665,0.7832363247871399,-0.4491158723831177,-0.009039610624313354,0.05715674161911011,-0.023754000663757324,-0.8122905215671894,0.3635482054447421,0.3785165399850681,-0.2544443459424276,-0.8998542629736576,-0.7635702986510757,0.22407089351381607
1780770800124734976,1.604261875152588,0.08090078085660934,0.05822555720806122,-0.0895664244890213,-0.4302577078342438,0.7825446128845215,-0.45000240206718445,0.0022944509983062744,0.036333560943603516,-0.027261972427368164,-0.8126633892204144,0.36317613749930927,0.37828810002817803,-0.2541247239372052,-0.8987425057605877,-0.7629713890390359,0.22394642723400676
1780770800134768896,1.6142959594726562,0.08971291035413742,0.04753882437944412,-0.09020664542913437,-0.4307231903076172,0.7817643284797668,-0.4509124457836151,0.008436232805252075,0.014805495738983154,-0.024108856916427612,-0.8130357691268641,0.36271830141782796,0.37812591971139115,-0.2538286791248046,-0.8974901749557767,-0.762502382528024,0.22387140050660306
1780770800144804096,1.624330997467041,0.09667202085256577,0.042310506105422974,-0.081827811896801,-0.4311991333961487,0.780945897102356,-0.45187461376190186,0.01606854796409607,-0.006135165691375732,-0.018248647451400757,-0.8134106864812771,0.36221347555119615,0.3779736731236068,-0.25357491912491603,-0.8961788164681906,-0.7619893821443396,0.22394053962184765
1780770800154840064,1.6343669891357422,0.0810517817735672,0.03796782344579697,-0.0774836614727974,-0.43164029717445374,0.7801893353462219,-0.4527597427368164,0.025283485651016235,-0.023582279682159424,-0.009139060974121094,-0.8137558490384269,0.36174706836519915,0.37783486032484054,-0.2533404954999308,-0.8949684201214486,-0.761522713971379,0.22400068798925996
1780770800164873728,1.6444008350372314,0.056349094957113266,0.02823476679623127,-0.061493776738643646,-0.4320327639579773,0.7795577645301819,-0.4534725248813629,0.029322832822799683,-0.034562647342681885,0.0025600194931030273,-0.8140399082148603,0.36136240251123297,0.3777313200783869,-0.25313087640439824,-0.8939594162139549,-0.7611910075767528,0.22398986398007945
1780770800174908928,1.6544358730316162,0.014254104346036911,0.0171407051384449,-0.052229173481464386,-0.43236884474754333,0.7791445255279541,-0.45386242866516113,0.027354776859283447,-0.0437777042388916,0.008015871047973633,-0.8142220155492047,0.3611327597863522,0.37769288639594917,-0.25293038359949743,-0.8932998852876378,-0.7611501103583272,0.22374896459464352
1780770800184942848,1.6644699573516846,-0.03256107121706009,0.023540813475847244,-0.04477551952004433,-0.4326537251472473,0.7789762020111084,-0.45387980341911316,0.020834267139434814,-0.0385282039642334,0.010077983140945435,-0.8143067373059738,0.3611061413678854,0.3777068274347627,-0.2526746085146447,-0.8930314052452489,-0.7614599410489101,0.22307833901246504
1780770800194978048,1.6745049953460693,-0.0336548313498497,0.029692981392145157,-0.027688676491379738,-0.43281659483909607,0.7789734601974487,-0.45372918248176575,0.01635846495628357,-0.022168099880218506,0.0036407113075256348,-0.8143448131085214,0.3612150119842608,0.3777024218693712,-0.25240286536257006,-0.8930271198384181,-0.7618137016259899,0.22225562575095437
1780770800205011968,1.6845388412475586,-0.019435947760939598,0.03381635248661041,-0.01049344427883625,-0.43281763792037964,0.7789974808692932,-0.4536869525909424,0.009782969951629639,-0.008611798286437988,-0.007845640182495117,-0.8143877407308047,0.36131552588488763,0.37763423969465043,-0.2522224075440763,-0.8930654169981838,-0.7618614068330309,0.22177767194225592
1780770800215046912,1.6945738792419434,-0.013931727036833763,0.042769234627485275,-0.005666997749358416,-0.4326823949813843,0.779032826423645,-0.4537554681301117,0.0027049481868743896,0.0025835633277893066,-0.010279595851898193,-0.8144473793031769,0.36141065686908713,0.3774978114700539,-0.25209798871678984,-0.8931217145713737,-0.7616298839886124,0.22155501346871173
1780770800225081088,1.7046079635620117,-0.014883274212479591,0.050282545387744904,-0.005788704380393028,-0.43249958753585815,0.7790842652320862,-0.4538411498069763,-0.0031692981719970703,0.012221217155456543,-0.009766608476638794,-0.8145161282985289,0.3615277623201211,0.37732889478625853,-0.2519603741592343,-0.8932037668674538,-0.7613245317197191,0.22132330300870634
1780770800235116032,1.7146430015563965,0.015721241012215614,0.05289577320218086,0.0021163569763302803,-0.43227437138557434,0.7790651917457581,-0.454088419675827,-0.0035166144371032715,0.015002131462097168,-0.01678258180618286,-0.8146246173149239,0.3615840537378756,0.3771110750350281,-0.2518550612396131,-0.8931734016525449,-0.7607923999609598,0.22131173968816534
1780770800245149952,1.7246768474578857,0.051713064312934875,0.03688697889447212,0.017977876588702202,-0.43198883533477783,0.7789440751075745,-0.45456773042678833,0.0017215311527252197,0.0068225860595703125,-0.02510756254196167,-0.8147656926554555,0.3615162795818742,0.3768582063560553,-0.2518744710073784,-0.8929801664543319,-0.7599355670216235,0.22180800646672136
1780770800255184896,1.7347118854522705,0.06454018503427505,0.024733908474445343,0.02169698104262352,-0.4316830039024353,0.7787483930587769,-0.45519325137138367,0.004742056131362915,-0.0015876293182373047,-0.03351527452468872,-0.8149124212037254,0.36133925349340035,0.3766129458277302,-0.2520209555614821,-0.8926682386461318,-0.7588953077420835,0.2227392991175982
1780770800265219840,1.7447469234466553,0.04922966659069061,0.015315639786422253,0.027452072128653526,-0.43139970302581787,0.7785849571228027,-0.45574095845222473,0.004000991582870483,-0.015706539154052734,-0.025353431701660156,-0.8150252583166737,0.36116854125494474,0.376413086208686,-0.25219894805555276,-0.8924077111013197,-0.7579671713817578,0.22367916868875348
1780770800275254016,1.7547810077667236,0.021671807393431664,0.010676412843167782,0.035455670207738876,-0.43109631538391113,0.7785524129867554,-0.4560834765434265,-0.0018107593059539795,-0.02946794033050537,-0.017335712909698486,-0.8150766649631843,0.36109407273022365,0.3762570070281212,-0.2523723242359875,-0.8923558910016522,-0.7572409002409582,0.224444643473824
1780770800285288960,1.7648160457611084,-0.0091271186247468,0.013361943885684013,0.044786855578422546,-0.43073007464408875,0.7786911725997925,-0.45619258284568787,-0.007639676332473755,-0.03294837474822998,-0.011214673519134521,-0.8150628203466771,0.36115559081424115,0.37612544950794524,-0.2525250305560345,-0.892577015682826,-0.7566972471834786,0.2249825423355041
1780770800295322880,1.7748498916625977,-0.042644597589969635,0.0188179612159729,0.045797791332006454,-0.43029436469078064,0.7790074944496155,-0.45606371760368347,-0.01117292046546936,-0.02598625421524048,-0.009970217943191528,-0.8149883139418869,0.3613669658557905,0.3760080518786926,-0.25263789842252077,-0.8930813217663668,-0.7563330363758521,0.2252440115619425
1780770800305357824,1.7848849296569824,-0.06663168966770172,0.026005566120147705,0.0451546385884285,-0.42983153462409973,0.779446005821228,-0.45575085282325745,-0.014000892639160156,-0.017055809497833252,-0.009199738502502441,-0.8148784050553894,0.3616982501179932,0.37589752495366907,-0.2526830222768531,-0.8937810597576897,-0.7561384140585584,0.22519585934334713
1780770800315392000,1.7949190139770508,-0.07634689658880234,0.031905535608530045,0.03782641515135765,-0.42936718463897705,0.7799583673477173,-0.4553118944168091,-0.01937854290008545,-0.005910515785217285,-0.014506220817565918,-0.814749902472855,0.3621117703851133,0.3757913137108269,-0.2526632595577512,-0.8945993040433691,-0.7560798687733533,0.22488661383360786
1780770800325426944,1.8049540519714355,-0.07671681046485901,0.029214944690465927,0.029437193647027016,-0.42895233631134033,0.7804450392723083,-0.45486846566200256,-0.020251095294952393,0.0085257887840271,-0.03344327211380005,-0.8146303806920252,0.36251863572025256,0.37569403879125224,-0.2526093724690863,-0.895377340509656,-0.7560837521447011,0.22447963055943043
1780770800335460864,1.8149878978729248,-0.0676138624548912,0.03803053870797157,0.011097601614892483,-0.42863643169403076,0.7808715105056763,-0.454434335231781,-0.01948365569114685,0.02619636058807373,-0.048251211643218994,-0.8145305118658032,0.36289847679737286,0.3756161952544014,-0.2525021111606585,-0.8960597375148931,-0.7561926188562716,0.22392870925735506
1780770800345496064,1.8250229358673096,-0.02497905120253563,0.05413680523633957,-0.0027234056033194065,-0.4283946454524994,0.7811063528060913,-0.45425865054130554,-0.016749978065490723,0.04183065891265869,-0.06756138801574707,-0.8145261326174167,0.36316061164784025,0.3754797494960529,-0.2523421842416939,-0.8964357691417466,-0.7561039839512054,0.2234436196193252
1780770800355529984,1.835057020187378,0.061023738235235214,0.05403347313404083,0.00097812176682055,-0.4281524121761322,0.7810056209564209,-0.4546601474285126,-0.009637564420700073,0.05133092403411865,-0.10591727495193481,-0.8146719270844891,0.3631456530903159,0.37522681047426004,-0.25226941275704284,-0.8962744379836047,-0.7553807244004332,0.22364398716696648
1780770800365565184,1.8450920581817627,0.13130402565002441,0.025186646729707718,0.00590470340102911,-0.42792758345603943,0.7805765867233276,-0.45560750365257263,0.0007730424404144287,0.04431354999542236,-0.13435828685760498,-0.8149253322608417,0.36280875199484525,0.37492139554022935,-0.25238959375715664,-0.895587762612751,-0.7540797874007645,0.22475861914592857
1780770800375599872,1.8551268577575684,0.19280041754245758,-0.039375171065330505,0.0027286175172775984,-0.4279085695743561,0.779836118221283,-0.45689156651496887,0.008108764886856079,0.017252445220947266,-0.17058038711547852,-0.815212640730405,0.362130918980642,0.3747204538450663,-0.25273337140259533,-0.8944039989867808,-0.7526533294237053,0.22664926752013775
1780770800385634048,1.8651609420776367,0.22602148354053497,-0.1305551379919052,-0.016163581982254982,-0.42836323380470276,0.7788256406784058,-0.4581873416900635,0.010486036539077759,-0.01800715923309326,-0.20148062705993652,-0.8154481028408919,0.3611378351441093,0.3748143380178721,-0.25325516838314743,-0.8927914049405539,-0.7517702189031259,0.22888159390289475
1780770800395668992,1.8751959800720215,0.24287955462932587,-0.19995859265327454,-0.0077775525860488415,-0.4292319416999817,0.7776839137077332,-0.4593122899532318,0.005953103303909302,-0.05821669101715088,-0.19358086585998535,-0.8155802503105224,0.3599399128050019,0.37521609661588984,-0.25393922413487263,-0.8909732223566041,-0.7515575914199085,0.23128396692412334
1780770800405703168,1.8852300643920898,0.2740632891654968,-0.2794880270957947,-3.334681969136e-05,-0.4303511679172516,0.7764707803726196,-0.46031635999679565,-0.006721556186676025,-0.08356910943984985,-0.19318705797195435,-0.8156036038805894,0.35856397458002254,0.3758639421546924,-0.2548510291304783,-0.8890457298893024,-0.75176735083376,0.23409530243186175
1780770800415737856,1.8952648639678955,0.3171955943107605,-0.3633674681186676,0.005127060227096081,-0.43178439140319824,0.7751203775405884,-0.4612491726875305,-0.014779329299926758,-0.07994520664215088,-0.20037192106246948,-0.8155298306890483,0.35695287131699155,0.37677588280066043,-0.25599957001134266,-0.8869055678424649,-0.7524160898365823,0.2373682054304796
1780770800425772032,1.9052989482879639,0.3902157247066498,-0.44635823369026184,0.003557126969099045,-0.433615118265152,0.7735006809234619,-0.46224966645240784,-0.020517051219940186,-0.06331080198287964,-0.18705767393112183,-0.8153915498596553,0.3549924128222396,0.37796236725866345,-0.25741330033468657,-0.8843460911304847,-0.7534459946739385,0.24127182784777965
1780770800435806976,1.9153339862823486,0.48594599962234497,-0.5054876208305359,0.014308840967714787,-0.4357885420322418,0.7714687585830688,-0.46359947323799133,-0.033266693353652954,-0.0486140251159668,-0.16393351554870605,-0.8152600869213256,0.35256884219347606,0.37933556078071706,-0.25913484792507885,-0.8811462950602149,-0.754485931936693,0.24615062052046033
1780770800445841152,1.925368070602417,0.5806555151939392,-0.5154864192008972,0.04355327785015106,-0.4379648268222809,0.7690975666046143,-0.4654843509197235,-0.049294084310531616,-0.03879672288894653,-0.129226952791214,-0.8151900002426937,0.34976793467702755,0.38068388465966335,-0.2611653913813804,-0.8774279660373983,-0.7549470822418065,0.2522180593683516
1780770800455875840,1.9354028701782227,0.6530963778495789,-0.49294227361679077,0.08769890666007996,-0.43981462717056274,0.7664605975151062,-0.468082457780838,-0.06743326783180237,-0.03643441200256348,-0.1046103835105896,-0.8152359823041904,0.34668068465674434,0.38180004618520386,-0.26349843927458655,-0.8733122538065653,-0.7542727266660181,0.25964688708112466
1780770800465910784,1.9454379081726074,0.6833296418190002,-0.46735167503356934,0.14863549172878265,-0.4411514103412628,0.7638015151023865,-0.4711608290672302,-0.08704677224159241,-0.050834715366363525,-0.087493896484375,-0.8153343205200808,0.34351272354212403,0.3826468276116511,-0.2661019021855165,-0.8691824806103137,-0.7525162106603225,0.2681900666935829
1780770800475944960,1.9554719924926758,0.6992252469062805,-0.4389336109161377,0.1863575577735901,-0.4420027434825897,0.76125568151474,-0.4744717478752136,-0.09744119644165039,-0.07255023717880249,-0.07446318864822388,-0.8154314960474411,0.3403911070087453,0.38327278439923945,-0.2689004519422169,-0.8652473926605551,-0.749984842905026,0.2774514429537083
1780770800485980160,1.9655070304870605,0.7541313767433167,-0.43725982308387756,0.22778862714767456,-0.4425123631954193,0.7586618661880493,-0.47813698649406433,-0.09616866707801819,-0.10810339450836182,-0.06606769561767578,-0.8155653563765862,0.3371985678085098,0.3837038250314913,-0.27188539577192733,-0.8612566853984014,-0.7467223367874273,0.2874674635008514
1780770800496013824,1.9755408763885498,0.7146646976470947,-0.4649789333343506,0.2784065306186676,-0.4427315294742584,0.7562089562416077,-0.4818057715892792,-0.08578714728355408,-0.14724594354629517,-0.05777549743652344,-0.815608798582146,0.33403234881681054,0.3840826724830765,-0.2751093875864837,-0.8574997560310312,-0.7431597421779153,0.2980863267752013
1780770800506049024,1.9855759143829346,0.6341602802276611,-0.5100944638252258,0.2984662652015686,-0.4429032802581787,0.754187285900116,-0.48480725288391113,-0.07995432615280151,-0.16908907890319824,-0.04651901125907898,-0.8154069925695554,0.33112628501614483,0.3846449746076835,-0.2784150955004082,-0.8544156272930836,-0.7402596240780029,0.3083877732031723
1780770800516082944,1.995609998703003,0.51896071434021,-0.5407953858375549,0.296304315328598,-0.4432357847690582,0.7526659965515137,-0.486863374710083,-0.08654934167861938,-0.18819761276245117,-0.021437406539916992,-0.8157612358749251,0.3297103767284909,0.3845248758702824,-0.27922262236792594,-0.8521019214041006,-0.7385261327223247,0.3118233128095447
1780770800526118144,2.0056450366973877,0.4035392701625824,-0.5507848858833313,0.3213249742984772,-0.4435807466506958,0.7517644762992859,-0.4879409372806549,-0.09828934073448181,-0.1943761706352234,-0.0024460256099700928,-0.8158209215647266,0.32870740874556065,0.3846829529065367,-0.28001201445901375,-0.8507337407634877,-0.7378129180089029,0.3144900299838041
1780770800536151808,2.015678882598877,0.3295696973800659,-0.5515939593315125,0.3844330906867981,-0.4436335861682892,0.7515167593955994,-0.48827436566352844,-0.11703535914421082,-0.20447391271591187,-0.004691362380981445,-0.8155838541544868,0.3280742466438861,0.3850066280267317,-0.2809985877783681,-0.8503581873796988,-0.7375321774217787,0.3171434731633797
1780770800546187008,2.0257139205932617,0.2879500985145569,-0.5340216159820557,0.45059213042259216,-0.44315260648727417,0.7518453001976013,-0.488205224275589,-0.13683396577835083,-0.21987813711166382,-0.003326117992401123,-0.814455291955694,0.3268393349542768,0.38610030167863063,-0.28419200470516554,-0.850856324641651,-0.737062815023248,0.32500789504407607
1780770800556220928,2.03574800491333,0.291456401348114,-0.5186451077461243,0.5261447429656982,-0.44204646348953247,0.7525793313980103,-0.48807719349861145,-0.15437382459640503,-0.23599302768707275,-0.008291184902191162,-0.8132153641507799,0.32583801044373717,0.38702840990785886,-0.2876098376944634,-0.8519702971483509,-0.7359496697025169,0.333497413633269
1780770800566256128,2.045783042907715,0.2825923264026642,-0.49906396865844727,0.6272356510162354,-0.44018515944480896,0.7536911368370056,-0.488043874502182,-0.17198219895362854,-0.2687973380088806,-0.004189431667327881,-0.8118719285187186,0.3250252239004378,0.38773273525430413,-0.2913519965837468,-0.8536603311844021,-0.7338846176147893,0.34300002043779965
1780770800576290816,2.0558178424835205,0.22038863599300385,-0.4684234857559204,0.7250863313674927,-0.43744534254074097,0.7553935647010803,-0.48787498474121094,-0.18883633613586426,-0.3134533166885376,0.016057997941970825,-0.8103576376990402,0.3245703494460986,0.3882223546941033,-0.2953944336742934,-0.8562545308561348,-0.7309523787404704,0.3533295761765297
1780770800586324992,2.065851926803589,0.09421498328447342,-0.40460747480392456,0.8152393698692322,-0.4337625205516815,0.7579445242881775,-0.48720648884773254,-0.21809294819831848,-0.355341374874115,0.02150827646255493,-0.8086250149058031,0.32474332148928137,0.3885080820366414,-0.299547638461981,-0.8601562597442262,-0.7274330167202256,0.3637986694388655
1780770800596359936,2.0758869647979736,-0.02533991076052189,-0.33267948031425476,0.9153872728347778,-0.42898762226104736,0.7615017294883728,-0.4858856201171875,-0.24569496512413025,-0.3889889121055603,0.015533447265625,-0.8066587388613762,0.3257187222754685,0.3885415148608231,-0.3037178849102659,-0.8656268616124092,-0.7232859421104979,0.37413565157377776
1780770800606394112,2.085921049118042,-0.15373462438583374,-0.2634647488594055,1.023928165435791,-0.42301028966903687,0.7660340666770935,-0.4839981496334076,-0.25980526208877563,-0.4149903655052185,-0.0077773332595825195,-0.804465733548885,0.3274811448776404,0.38827441030838494,-0.30795149774355346,-0.8726485215098967,-0.7182585482362731,0.38459436996385077
1780770800616428800,2.0959558486938477,-0.3363305628299713,-0.21713876724243164,1.1305073499679565,-0.4158589541912079,0.7717269659042358,-0.4811433255672455,-0.2669413089752197,-0.42907559871673584,-0.02312910556793213,-0.8019309589269326,0.33017336750979054,0.3878322855497936,-0.3122154770258244,-0.8815522605209241,-0.7127456589939766,0.39487461996171236
1780770800626462976,2.105989933013916,-0.5160079002380371,-0.18424659967422485,1.239657998085022,-0.4076272249221802,0.7786410450935364,-0.4770306944847107,-0.2805289328098297,-0.4487764835357666,-0.026143133640289307,-0.7989737195154375,0.33385214713302025,0.3873337084837222,-0.3164749668052515,-0.89249710103354,-0.7071061960725252,0.4047419202879183
1780770800636497920,2.116024971008301,-0.6952588558197021,-0.14883694052696228,1.3538360595703125,-0.3982527554035187,0.7867488265037537,-0.4716154634952545,-0.2959611713886261,-0.4607446789741516,-0.02907121181488037,-0.7955623007966627,0.3385145000563243,0.3867818612725413,-0.32076229354476377,-0.9055241760439804,-0.70125956801639,0.41434834986370667
1780770800646532096,2.126059055328369,-0.8136811256408691,-0.0974896028637886,1.46976637840271,-0.387650728225708,0.7958760261535645,-0.4650894105434418,-0.3042895197868347,-0.44381004571914673,-0.030363410711288452,-0.7917327611407272,0.3440661360529506,0.3861007424537387,-0.3251213179403224,-0.9204530881766536,-0.6948349919449521,0.42406918399743315
1780770800656566784,2.136093854904175,-0.8678591251373291,-0.036592964082956314,1.5968960523605347,-0.37566637992858887,0.8056228160858154,-0.458090215921402,-0.31726571917533875,-0.41539454460144043,-0.02916872501373291,-0.7876284913504187,0.3502411604389717,0.3850792502481916,-0.32967625020048247,-0.9367259837752874,-0.6868599764707354,0.4348659011658554
1780770800666601984,2.1461288928985596,-0.8283990621566772,0.042103178799152374,1.7094933986663818,-0.3622126877307892,0.8156468868255615,-0.4511343240737915,-0.3357548415660858,-0.3860509991645813,-0.016562819480895996,-0.7833574590693976,0.3568020158349114,0.38356896970107496,-0.33454201256028787,-0.9538464747235668,-0.6765026126375377,0.44763309415575686
1780770800676635904,2.156162977218628,-0.6740438342094421,0.1331397444009781,1.8017081022262573,-0.3473949432373047,0.8252886533737183,-0.4452138841152191,-0.3631916046142578,-0.34166133403778076,-0.011878430843353271,-0.7791951785659806,0.3632799662512535,0.381340701786225,-0.33979677167448835,-0.9707131999223823,-0.6626052063501507,0.4634944771636811
1780770800686671104,2.1661980152130127,-0.45225876569747925,0.27734777331352234,1.9142191410064697,-0.3310675621032715,0.8340822458267212,-0.4412496089935303,-0.392611026763916,-0.2852693796157837,-0.04597878456115723,-0.775365478355962,0.369335363040954,0.37810922531582036,-0.3455912223265402,-0.9864669925490215,-0.6436901545917448,0.48385594555112443
1780770800696704768,2.176231861114502,-0.1881123185157776,0.44392797350883484,2.052133560180664,-0.3128215968608856,0.8419151902198792,-0.43968355655670166,-0.4170062839984894,-0.23073959350585938,-0.07035672664642334,-0.7719724795253851,0.3749599428769492,0.37358166471164006,-0.351994859666482,-1.0008226226162071,-0.618382420337007,0.5097431655259099
1780770800706739968,2.1862668991088867,0.22533226013183594,0.5829982161521912,2.1764516830444336,-0.2926216423511505,0.8482587933540344,-0.44139495491981506,-0.430599182844162,-0.1875075101852417,-0.13087067008018494,-0.7691950072015024,0.37974461186745456,0.36755482973154285,-0.3592164599578659,-1.0126887237436997,-0.5854233243998715,0.5426086533622241
1780770800716773888,2.196300983428955,0.5989556908607483,0.6967151761054993,2.295258045196533,-0.27069732546806335,0.8527019023895264,-0.4467913806438446,-0.41489529609680176,-0.14295458793640137,-0.19651919603347778,-0.7670975681933191,0.3833730010583295,0.3600409114347913,-0.3673650547590403,-1.0211357630424984,-0.5447242424743747,0.5828935735450241
1780770800726809088,2.20633602142334,0.9520687460899353,0.7485033273696899,2.3713977336883545,-0.24740645289421082,0.8552236557006836,-0.4553927779197693,-0.3752436935901642,-0.0819234848022461,-0.2410641312599182,-0.7655511734000161,0.385881969252366,0.35128154458624766,-0.37633468348224236,-1.0259822201828435,-0.49767041697377834,0.6294528802891765
1780770800736842752,2.216369867324829,1.1861006021499634,0.7567940950393677,2.3868587017059326,-0.22349680960178375,0.8558606505393982,-0.4664243161678314,-0.33125171065330505,-0.02561473846435547,-0.2644105851650238,-0.7643991955140492,0.38732004032894773,0.3417177506890125,-0.3858833814322445,-1.027212604184948,-0.4468456454633706,0.6800344173416868
1780770800746877952,2.226404905319214,1.2965126037597656,0.7474038004875183,2.359694480895996,-0.19958257675170898,0.8549248576164246,-0.47882163524627686,-0.2962822914123535,0.044626474380493164,-0.24931249022483826,-0.7634726244055047,0.3879789573623452,0.3317552041599044,-0.39562643410742837,-1.0254060178260331,-0.3949220119752671,0.7318953994966121
1780770800756912896,2.2364399433135986,1.3007396459579468,0.7595067024230957,2.3265018463134766,-0.17588286101818085,0.8529912233352661,-0.49139711260795593,-0.28149932622909546,0.10628300905227661,-0.20734864473342896,-0.7625424696076256,0.38833759834784864,0.3217069449594524,-0.405249910846829,-1.02168990605013,-0.34371662993129276,0.7830216869817435
1780770800766947072,2.246474027633667,1.278331995010376,0.8299657106399536,2.316502094268799,-0.15215151011943817,0.8502799272537231,-0.5038591027259827,-0.28917843103408813,0.11877524852752686,-0.12645095586776733,-0.7615856717770848,0.38864982385735514,0.31148315228067097,-0.4146286429589624,-1.0165169513587804,-0.2932652893574766,0.8329289134249944
1780770800776982016,2.2565090656280518,1.0338256359100342,0.8930096626281738,2.3489363193511963,-0.12788039445877075,0.8476074934005737,-0.514983594417572,-0.29640549421310425,0.07731926441192627,-0.028656482696533203,-0.7602825606339605,0.3896064060795646,0.3011893967929715,-0.4236297188315356,-1.0114600237868971,-0.24339624406105545,0.8814614396326561
1780770800787015936,2.266542911529541,0.8812049031257629,1.0002095699310303,2.3511087894439697,-0.10303589701652527,0.845324695110321,-0.5242229700088501,-0.28661254048347473,0.037030041217803955,0.025367379188537598,-0.7585331397921711,0.3914660895190735,0.2909343738690523,-0.4321330012815396,-1.0071726253990945,-0.19407582098878007,0.9285135942170691
1780770800797050880,2.276577949523926,0.8857317566871643,1.0277478694915771,2.392746925354004,-0.07758554816246033,0.8428419828414917,-0.5325390100479126,-0.24017873406410217,0.038169920444488525,0.022102057933807373,-0.756527470679861,0.39376872875199287,0.28049363576504294,-0.4403812588594726,-1.002542536146728,-0.14467202786660668,0.9749499622972808
1780770800807085056,2.286612033843994,1.1784077882766724,0.9684606194496155,2.4169929027557373,-0.051919713616371155,0.8388851284980774,-0.5418264865875244,-0.15494370460510254,0.11263763904571533,-0.06251305341720581,-0.7545870006166288,0.39544341973777597,0.26965024307885127,-0.44890040406566306,-0.9952317536507388,-0.09553182276250877,1.0213934682229902
1780770800817119744,2.2966468334198,1.569568395614624,0.8041282296180725,2.4260165691375732,-0.026729173958301544,0.8322763442993164,-0.5537161827087402,-0.050587110221385956,0.2024526596069336,-0.16430139541625977,-0.7529874532618012,0.39547033065501486,0.25835076587776645,-0.4581135020790021,-0.9832013619749395,-0.048234892968488624,1.0673075225563242
1780770800827153920,2.306680917739868,2.009904384613037,0.6038801074028015,2.3790323734283447,-0.002866047900170088,0.8225212097167969,-0.5687271952629089,0.04113508388400078,0.2740974426269531,-0.21105796098709106,-0.7518564487591317,0.3933612079162582,0.24678605726260672,-0.4680549604538192,-0.9658299104399786,-0.005039364603769477,1.1110034023668056
1780770800837188864,2.316715955734253,2.3349480628967285,0.42165568470954895,2.3339216709136963,0.019323915243148804,0.8096274137496948,-0.586625874042511,0.0879911407828331,0.3184548020362854,-0.20492368936538696,-0.7511893118616615,0.3891474120691852,0.2350560411636399,-0.4785681151812305,-0.9435170347136703,0.03292887442174053,1.151279272064046
1780770800847223040,2.3267500400543213,2.5610830783843994,0.26033735275268555,2.2868688106536865,0.03987661376595497,0.7942402958869934,-0.6062939167022705,0.10233530402183533,0.35935473442077637,-0.1589953899383545,-0.7507343993894556,0.38335471352400563,0.22336561406779715,-0.4894332870970692,-0.9177561926421247,0.06567650053471762,1.18793129107956
1780770800857257728,2.336784839630127,2.7057127952575684,0.18882736563682556,2.247330904006958,0.059006065130233765,0.776729941368103,-0.6270637512207031,0.08283966034650803,0.3607670068740845,-0.08951950073242188,-0.7504091577819773,0.37637914307999903,0.21167629606972868,-0.5004179064996749,-0.8894571066100038,0.09382271283202356,1.221011568663718
1780770800867292928,2.3468198776245117,2.7747159004211426,0.2148376703262329,2.2320048809051514,0.07737111300230026,0.7575788497924805,-0.6481420397758484,0.06168223172426224,0.3086290955543518,0.06417292356491089,-0.7500887451599424,0.36878612010132206,0.19981435748183668,-0.5113100709459615,-0.8595958566040933,0.11881147051036585,1.2511412935972757
1780770800877326848,2.35685396194458,2.7910945415496826,0.27937552332878113,2.236954689025879,0.09566852450370789,0.7372382283210754,-0.6688252687454224,0.06976724416017532,0.22488939762115479,0.20389002561569214,-0.7496605211127969,0.361099367579883,0.1876022922251886,-0.5219402510431109,-0.82897354834498,0.14207589923184014,1.2789847125101403
1780770800887362048,2.366888999938965,2.934019088745117,0.1560746133327484,2.2472081184387207,0.11346521973609924,0.7153570055961609,-0.6894853115081787,0.13117894530296326,0.1968744397163391,0.1650865077972412,-0.7490856490622654,0.352941830609747,0.17518396788358115,-0.5325534951728429,-0.7971348633527701,0.16310322100220387,1.304867623759024
1780770800897395968,2.376922845840454,3.160428285598755,-0.09830053150653839,2.218508005142212,0.12925675511360168,0.6912635564804077,-0.7109482288360596,0.23483321070671082,0.23228991031646729,0.06136631965637207,-0.748365991621501,0.3434194140769589,0.1630613571196729,-0.5435276552450804,-0.7632361821822742,0.179844568380559,1.328634373857376
1780770800907430912,2.386957883834839,3.2459876537323,-0.3483266234397888,2.1474177837371826,0.14239659905433655,0.6649532318115234,-0.7331851124763489,0.32290488481521606,0.28011512756347656,0.03411900997161865,-0.747665649298061,0.3324150529757513,0.15135282464491343,-0.5546066669076221,-0.727431161423732,0.19182829854434488,1.3496561670414469
1780770800917465088,2.3969919681549072,3.0812034606933594,-0.5443205237388611,2.085399866104126,0.1527077555656433,0.6380040049552917,-0.7547391653060913,0.3519156575202942,0.30401259660720825,0.06981790065765381,-0.7466233644882256,0.32068746595462405,0.14067676377340854,-0.5656174852575812,-0.6919033562932209,0.19963669065846176,1.3688204423797956
1780770800927500032,2.407027006149292,2.6262130737304688,-0.6950700879096985,2.047842264175415,0.1606893390417099,0.6127129197120667,-0.7737970352172852,0.3271341621875763,0.23476022481918335,0.051766395568847656,-0.7448676586940188,0.30949883801766653,0.1315748511373151,-0.5762558675020641,-0.6594887769733198,0.2047532532060976,1.387205355533486
1780770800937533952,2.4170608520507812,1.9139950275421143,-0.8175536394119263,2.0237374305725098,0.16690494120121002,0.5915352702140808,-0.7888148427009583,0.28545713424682617,0.09350806474685669,0.026760339736938477,-0.7419381901695666,0.30006772371602775,0.12470747452145264,-0.5864599630216915,-0.6329616800205509,0.20851407552517515,1.4062805162829815
1780770800947568896,2.427095890045166,1.2088184356689453,-0.9498122930526733,1.9773387908935547,0.17138546705245972,0.5756351351737976,-0.7995443940162659,0.2626813054084778,0.003374814987182617,0.0018149018287658691,-0.7377985195229952,0.2927844524592958,0.12043703856599175,-0.5961757868386581,-0.6133806980441351,0.21115853834807902,1.4263512677564982
1780770800957603840,2.437130928039551,0.804755687713623,-1.1519439220428467,1.964998722076416,0.17391222715377808,0.5639131665229797,-0.807314395904541,0.2750166058540344,0.021261394023895264,-0.0007147789001464844,-0.7327100317084136,0.2868964201683584,0.11846199684784318,-0.6056346393995384,-0.5991165952033125,0.2121782377184571,1.4472197034326704
1780770800967638016,2.447165012359619,0.591740071773529,-1.25930655002594,1.867335557937622,0.1746431440114975,0.5550380349159241,-0.8132850527763367,0.3012479543685913,0.14613378047943115,0.03671950101852417,-0.7271208546843343,0.28177833763232535,0.11814586375618463,-0.6147665328133761,-0.588408717175541,0.21152564727636403,1.4680385382920131
1780770800977672960,2.457200050354004,0.517388105392456,-1.3175715208053589,1.7782357931137085,0.1739540696144104,0.5472899079322815,-0.8186658620834351,0.3146628737449646,0.218869149684906,0.05604684352874756,-0.721499328395374,0.2767591055655814,0.11862324661583587,-0.6235156333859323,-0.5791227212358424,0.20937087765866907,1.4879416992822325
1780770800987706880,2.467233896255493,0.4125945568084717,-1.3259620666503906,1.7163827419281006,0.17232804000377655,0.5403720140457153,-0.8235903978347778,0.32574933767318726,0.16923797130584717,0.06589996814727783,-0.7159007599377735,0.27185082584419923,0.11959062969854066,-0.6318871483971227,-0.5708791407712995,0.20626416193233152,1.5070142687844286
1780770800997741824,2.477268934249878,0.07641787827014923,-1.3493609428405762,1.6817576885223389,0.17018026113510132,0.5352796316146851,-0.827353835105896,0.3254709839820862,0.042784273624420166,0.06418555974960327,-0.7100543265329303,0.2675889186185537,0.1213228695060885,-0.6399216983224613,-0.5648387417778952,0.20286280983532567,1.5260389875330025
1780770801007776000,2.4873030185699463,-0.4354936182498932,-1.4188328981399536,1.5924546718597412,0.16724731028079987,0.5340043306350708,-0.8287748098373413,0.34117555618286133,-0.0689927339553833,0.08590066432952881,-0.7037014490698036,0.2646930092515481,0.12470042785875182,-0.6474501476300418,-0.5633296713087845,0.19912636833345757,1.5453739572387288
1780770801017810944,2.497338056564331,-0.9880260229110718,-1.5334326028823853,1.4995341300964355,0.1631419062614441,0.537421464920044,-0.8273831605911255,0.3736317753791809,-0.14681172370910645,0.129919171333313,-0.6967825809206961,0.26333793691270024,0.1302365634428165,-0.654358892511087,-0.5673765172260605,0.19468080809449537,1.5649442109334903
1780770801027844864,2.5073719024658203,-1.426525592803955,-1.5940051078796387,1.4048547744750977,0.15787170827388763,0.5452041625976562,-0.8233036398887634,0.39467954635620117,-0.14673614501953125,0.21049541234970093,-0.6893385761883294,0.2633291101936811,0.13786207911237108,-0.6606542787416205,-0.57663265010017,0.18945421619047864,1.5846492669275043
1780770801037880064,2.517406940460205,-1.6222375631332397,-1.4791957139968872,1.320105791091919,0.1526217758655548,0.5557685494422913,-0.817207396030426,0.3764614760875702,-0.11146312952041626,0.282600462436676,-0.6816753391457225,0.2644396932777884,0.14651945270463865,-0.6662751018372031,-0.5892871694870121,0.18463312637171916,1.6041243864314336
1780770801047915008,2.52744197845459,-1.5584697723388672,-1.3102705478668213,1.238661766052246,0.14838643372058868,0.5668972730636597,-0.8103141188621521,0.360112726688385,-0.04709136486053467,0.3166617751121521,-0.674203136039464,0.26614809919725013,0.1549455582264022,-0.671272861414795,-0.6027345278704568,0.1811154084879674,1.6228770720808232
1780770801057949184,2.537476062774658,-1.4378941059112549,-1.1085336208343506,1.1545588970184326,0.14545637369155884,0.5772872567176819,-0.8034811019897461,0.37816423177719116,0.036268651485443115,0.3431844711303711,-0.6671847675326682,0.2680626260232553,0.16248657735404332,-0.6757255142058114,-0.6154025329068485,0.17909307657530216,1.6405678283822351
1780770801067983872,2.547510862350464,-1.3203130960464478,-0.9545108079910278,1.038209080696106,0.14360389113426208,0.5867289900779724,-0.7969485521316528,0.4027523100376129,0.07873731851577759,0.35473358631134033,-0.6607497863864666,0.27005627785330255,0.1691015430455516,-0.6796203958175376,-0.6270135135969288,0.178279075251185,1.6568868172830424
1780770801078018048,2.5575449466705322,-1.3128466606140137,-0.8511214852333069,0.9136426448822021,0.1422131061553955,0.5957783460617065,-0.7904577851295471,0.415510892868042,0.04774582386016846,0.3164130449295044,-0.6548414142243602,0.2721448510201422,0.17523776482971792,-0.6829432893588064,-0.6382344227859644,0.17800801990983506,1.6717569429364718
1780770801088052992,2.567579984664917,-1.3740812540054321,-0.7660340070724487,0.7679567933082581,0.1408875584602356,0.6052037477493286,-0.7835043668746948,0.4089171290397644,-0.0011235475540161133,0.2893637418746948,-0.649387780086164,0.27451823529958624,0.18134925701329607,-0.6856002575009963,-0.6500218115838434,0.1779158701605718,1.6851255004756722
1780770801098087168,2.5776140689849854,-1.458871603012085,-0.6876834630966187,0.642062783241272,0.1394931524991989,0.6152857542037964,-0.7758641242980957,0.3726070523262024,-0.07198131084442139,0.2441868782043457,-0.6443283415839549,0.27725062693855457,0.18761673084012986,-0.6875849196482937,-0.6627483932466584,0.17789019383799384,1.697075277994131
1780770801108121856,2.587648868560791,-1.5013617277145386,-0.5984553694725037,0.5346788167953491,0.13818427920341492,0.6260040402412415,-0.7674790024757385,0.3373863697052002,-0.14725959300994873,0.2211228609085083,-0.6396007849508637,0.2803962862271168,0.1940062263934868,-0.6889487605046628,-0.6764184326368022,0.17814096722063683,1.7078526465283341
1780770801118156032,2.5976829528808594,-1.411604404449463,-0.5316322445869446,0.471296101808548,0.13702449202537537,0.6365306377410889,-0.7589815855026245,0.31497135758399963,-0.17269396781921387,0.1884554624557495,-0.6352407702264522,0.2836204823856128,0.20017149379526208,-0.6898984876632923,-0.6899914772353493,0.1786133386321028,1.7175799599211765
1780770801128190976,2.607717990875244,-1.1758867502212524,-0.4329397678375244,0.4548846185207367,0.13631881773471832,0.6457946300506592,-0.7512433528900146,0.2522920072078705,-0.16227412223815918,0.13149237632751465,-0.6312775765267787,0.2865594574864015,0.2055772554860189,-0.6907317757736354,-0.7020635507719994,0.17950444649949007,1.7265685049172674
1780770801138225920,2.617753028869629,-0.6116691827774048,-0.3019340932369232,0.41973623633384705,0.1363653689622879,0.6521173715591431,-0.7457529306411743,0.1740594357252121,-0.13308966159820557,0.08753454685211182,-0.6280474628128202,0.2886336301860256,0.20931833511605602,-0.6916883956915787,-0.7103740162026132,0.1808578849620408,1.734408144535007
1780770801148261376,2.6277883052825928,-0.450558066368103,-0.07904907315969467,0.3413844406604767,0.13752694427967072,0.655641496181488,-0.7424423098564148,0.12257438898086548,-0.08645814657211304,0.1539413332939148,-0.6256800637042127,0.2900974197358909,0.21124000225658013,-0.6926367428108049,-0.7150319192197484,0.18315982482177218,1.7408761729651994
1780770801158296320,2.6378233432769775,0.23252545297145844,-0.01153528317809105,0.206818625330925,0.13903889060020447,0.6561532020568848,-0.7417082786560059,0.09020917117595673,-0.020365238189697266,0.15426015853881836,-0.6245542588469207,0.29064056852160475,0.2113620661443186,-0.6933874461700402,-0.7157097994305963,0.1853070327499617,1.7446248043510424
1780770801168330496,2.647857427597046,0.3984624743461609,0.24565842747688293,0.12664124369621277,0.1408550888299942,0.6533750295639038,-0.7438150644302368,0.1056506484746933,-0.06440109014511108,0.1757761836051941,-0.624546968610913,0.2900757238869563,0.2096390556173087,-0.6941531623822863,-0.7120341654197464,0.1871523042012165,1.7460367644469137
1780770801178365440,2.6578924655914307,0.5086358785629272,0.6080092787742615,0.08876124024391174,0.14490586519241333,0.6498138904571533,-0.746152937412262,0.17967911064624786,-0.05456852912902832,0.32649046182632446,-0.6253668794288754,0.29033767259008003,0.2064644343490564,-0.6942569574882296,-0.7073395314573363,0.19181628792396194,1.7461155635695995
1780770801188399360,2.66792631149292,0.5164775848388672,0.16517065465450287,0.11374062299728394,0.14877289533615112,0.6456831097602844,-0.7489725351333618,0.3445895314216614,-0.2435225248336792,-0.1403401494026184,-0.6261890527416097,0.29025451650550027,0.20314045889524238,-0.6945310785339296,-0.7019175505604656,0.19608366831066845,1.7461850842910485
1780770801198434304,2.6779613494873047,-0.31541088223457336,-0.2586948573589325,0.16787442564964294,0.14917530119419098,0.6444064378738403,-0.7499913573265076,0.5217994451522827,-0.5756961107254028,-0.44747263193130493,-0.6258804877295057,0.28972970375489676,0.2026351784766016,-0.6951757220662702,-0.7002468247825626,0.19634023574606305,1.7475065578920965
1780770801208469504,2.6879963874816895,-1.2573800086975098,-0.5576008558273315,0.3198615610599518,0.14767837524414062,0.649895191192627,-0.7455382943153381,0.5189018249511719,-0.9206318855285645,-0.37441104650497437,-0.6234861185087645,0.2909957822927871,0.2062821128920746,-0.695725626296701,-0.7074464934199162,0.19555150588945894,1.752613628519482
1780770801218503424,2.698030471801758,-2.201301336288452,-0.8298444151878357,0.4202827215194702,0.14492566883563995,0.6623472571372986,-0.7350459694862366,0.45250168442726135,-1.0395598411560059,-0.30084264278411865,-0.6188332755254928,0.29438223722774454,0.2140469867212838,-0.6961093617127918,-0.7239474879544867,0.1946685471939229,1.7621092489882275
1780770801228538624,2.7080655097961426,-2.465895414352417,-0.912539005279541,0.37823486328125,0.14127005636692047,0.6792380809783936,-0.7201933264732361,0.3888813257217407,-0.7001121044158936,-0.16109329462051392,-0.6128823257316464,0.29916556523831256,0.22450677925758486,-0.6960402055977668,-0.7467239598635184,0.19369642646359836,1.7737682070801457
1780770801238572288,2.718099355697632,-2.33189058303833,-0.907078206539154,0.30994662642478943,0.1371007114648819,0.6958004236221313,-0.7050284743309021,0.3058161437511444,-0.30546534061431885,-0.16350173950195312,-0.6070183346821736,0.30365999645265007,0.2351092442775275,-0.695732010838135,-0.7695337335214913,0.19206420052843576,1.784757832700383
1780770801248607488,2.7281343936920166,-2.240068197250366,-0.7046076655387878,0.19874872267246246,0.13316476345062256,0.7115544676780701,-0.6898966431617737,0.24369680881500244,-0.07605642080307007,-0.04777425527572632,-0.6015959908876805,0.30807704683140835,0.24523500638865164,-0.695004005125,-0.7917080744374324,0.19067638463208367,1.794515547692408
1780770801258641408,2.738168478012085,-1.9431495666503906,-0.3059543967247009,0.11182421445846558,0.13082095980644226,0.7258196473121643,-0.6753307580947876,0.17202022671699524,0.025278925895690918,0.14377564191818237,-0.5971494127202294,0.31286951862937723,0.25386467239750327,-0.6935978401646509,-0.8122252344460326,0.1913439976905683,1.8024513627682295
1780770801268676608,2.7482035160064697,-1.2969119548797607,0.003568036714568734,0.018255379050970078,0.13030770421028137,0.7367954850196838,-0.6634398102760315,0.12271355092525482,0.024129807949066162,0.2571287751197815,-0.5941206721217621,0.317358452409867,0.25993020066415606,-0.6919108430119378,-0.8283184375918846,0.1939434211377566,1.8080556517911817
1780770801278710272,2.758237361907959,-0.15670245885849,0.13348355889320374,-0.0036499197594821453,0.13100090622901917,0.7416307926177979,-0.6578924655914307,0.10218390822410583,0.03087592124938965,0.24265503883361816,-0.5929655098265064,0.31984556738688275,0.2622071064759525,-0.6908966348165856,-0.8354981916548527,0.1965512485092988,1.8105289819035963
1780770801288745472,2.7682723999023438,0.7264713048934937,0.31296223402023315,-0.3387930393218994,0.13142527639865875,0.7399728298187256,-0.6596723198890686,0.05732594430446625,0.2535879611968994,0.1937299370765686,-0.5942747466434608,0.31963251627481737,0.2607659764712862,-0.6904155823918932,-0.8330299972997899,0.1966532493238611,1.8074147769843647
1780770801298780416,2.7783074378967285,2.2309200763702393,0.45426422357559204,-0.7798553705215454,0.1297052800655365,0.7309890985488892,-0.6699488162994385,-0.031392902135849,0.7750686407089233,0.06611275672912598,-0.5990560553304468,0.31581851055684457,0.25550786526562436,-0.6900044295790972,-0.8197702936863468,0.1912387940857323,1.7949689395078199
1780770801308814592,2.788341522216797,3.824570417404175,0.6194526553153992,-1.0250052213668823,0.12680178880691528,0.7115561366081238,-0.6910927891731262,-0.12103398144245148,1.096564531326294,-0.24253147840499878,-0.6075930275488238,0.3074078715647986,0.24485509821464996,-0.69020076639661,-0.7917104310828078,0.18146180260321268,1.7739376629868095
1780770801318849280,2.7983763217926025,4.502275466918945,0.7281432151794434,-0.9981911778450012,0.1243893951177597,0.6826157569885254,-0.7201131582260132,-0.1510922908782959,0.8875898718833923,-0.42920929193496704,-0.6184685162326808,0.29540848033827366,0.2295152829884311,-0.6910521804297234,-0.7513361023603408,0.1710480114031864,1.7491384168925665
1780770801328883456,2.808410406112671,3.9578583240509033,0.562440812587738,-0.6329761743545532,0.12385184317827225,0.6521538496017456,-0.7479011416435242,-0.08810050040483475,0.2190619707107544,-0.28067857027053833,-0.6282650153163755,0.2834622332540401,0.21377230179939466,-0.6922671094664475,-0.710422176565713,0.16410990241943554,1.7286483247052027
1780770801338918400,2.8184454441070557,2.9052934646606445,0.1438581645488739,-0.3748762011528015,0.12352623790502548,0.6265349984169006,-0.7695422172546387,0.01751074194908142,-0.30481868982315063,-0.06192445755004883,-0.635153363618524,0.2733179131953814,0.201311194136617,-0.6937950037355921,-0.6770994392567475,0.159161380110255,1.7151375393598598
1780770801348952576,2.828479528427124,1.9442895650863647,-0.09157805144786835,-0.28868991136550903,0.12154054641723633,0.6082949042320251,-0.7843502163887024,0.03866147994995117,-0.31923240423202515,-0.020779788494110107,-0.6395091716140008,0.2653606777475481,0.19341305756933042,-0.6951282209731474,-0.6539105849291806,0.15373429539501315,1.706321744425264
1780770801358987264,2.8385143280029297,1.848551630973816,-0.09092491120100021,-0.243451327085495,0.1192086786031723,0.5940043926239014,-0.7955803871154785,-0.0380624383687973,-0.03592944145202637,-0.06788396835327148,-0.6427460605373131,0.25884931073028145,0.1876348963387393,-0.6961808355072111,-0.63602746897705,0.14873213309793926,1.6996126182288285
1780770801369021440,2.848548412322998,2.0501508712768555,0.047998618334531784,-0.2779688239097595,0.11753149330615997,0.5785242915153503,-0.807153046131134,-0.10868139564990997,0.14329272508621216,-0.23306912183761597,-0.6461310799511302,0.25218990559868143,0.18117322958161403,-0.6972023741557357,-0.6169183091332223,0.14459616346692597,1.6929412351442126
1780770801379056384,2.858583450317383,2.008502960205078,0.10650693625211716,-0.33205604553222656,0.11654197424650192,0.5622212886810303,-0.8187339305877686,-0.09191428869962692,0.24667763710021973,-0.26355671882629395,-0.6498227685466725,0.24560028430181968,0.1741078607178566,-0.697923619457564,-0.5970693594244983,0.14139427666208054,1.685722984956445
1780770801389091584,2.8686184883117676,1.8370147943496704,-0.009354952722787857,-0.3853165805339813,0.1150793805718422,0.5466335415840149,-0.8294265866279602,-0.022824741899967194,0.2382327914237976,-0.21804344654083252,-0.6534723681055766,0.23918703724019943,0.1675597017839065,-0.6983460629046662,-0.5783386875743308,0.1378655477412324,1.6782376051325967
1780770801399125248,2.878652334213257,1.4899667501449585,-0.11893617361783981,-0.3747667372226715,0.11243835836648941,0.5331175327301025,-0.8385363817214966,0.030124500393867493,0.09223335981369019,-0.12555962800979614,-0.656756396706525,0.23315803762579962,0.16238573765192557,-0.6985264320297837,-0.5622811440760895,0.13329375320855338,1.6709632511222912
1780770801409160448,2.8886873722076416,1.3005776405334473,-0.19618754088878632,-0.31358835101127625,0.10942468792200089,0.5218633413314819,-0.8459815979003906,0.038951776921749115,-0.07409417629241943,0.027072906494140625,-0.6594159053603447,0.22783458043184854,0.1584316899062208,-0.6986855154640287,-0.5490338823200305,0.12863222979595842,1.6648827443256164
1780770801419194368,2.89872145652771,1.3179351091384888,-0.30151742696762085,-0.22199584543704987,0.10592135041952133,0.5109805464744568,-0.853041410446167,-0.010370798408985138,-0.1721285581588745,-0.03753781318664551,-0.661636999137879,0.2224097333117628,0.1549619939668121,-0.6991117709851221,-0.5363250903285914,0.12353675613752257,1.6598476576495027
1780770801429229568,2.9087564945220947,1.233647346496582,-0.27188950777053833,-0.1389819085597992,0.10266464203596115,0.500166654586792,-0.8598216772079468,-0.08172958344221115,-0.1925647258758545,-0.04778635501861572,-0.6634840139282365,0.21706157281974214,0.15156993784752923,-0.6997855536305287,-0.5237912436368584,0.11883962451639907,1.6559304406034627
1780770801439263232,2.918790340423584,1.0398536920547485,-0.246643528342247,-0.058358173817396164,0.10002431273460388,0.490329384803772,-0.865778386592865,-0.14267262816429138,-0.20120584964752197,0.03154987096786499,-0.6648434601757064,0.2122822201167982,0.14848251376313829,-0.7006228956049231,-0.5124676530257494,0.11502113979283873,1.6533562825690105
1780770801449298432,2.9288253784179688,0.8555038571357727,-0.2438320368528366,0.017992790788412094,0.09780194610357285,0.4821413457393646,-0.8706173300743103,-0.15662457048892975,-0.18227562308311462,0.0412716269493103,-0.6657379474595752,0.20826696788947954,0.14600072467696265,-0.7014995994441658,-0.5030972727326889,0.11186732294951555,1.651873782570878
1780770801459333376,2.9388604164123535,0.5804477334022522,-0.1766173094511032,0.0718672126531601,0.09643324464559555,0.47573602199554443,-0.8742859363555908,-0.12754590809345245,-0.11811578273773193,0.0020477771759033203,-0.6661540696147149,0.20522445649614476,0.144013776692715,-0.7024113377715213,-0.4958006351763542,0.10985537387699794,1.6516010271837673
1780770801469367552,2.948894500732422,0.5588428378105164,-0.2514697015285492,0.008358007296919823,0.09476014226675034,0.47101184725761414,-0.8770224452018738,-0.09921571612358093,-0.006976813077926636,-0.04698878526687622,-0.6664062006004123,0.20272291075244797,0.14280129748768416,-0.7031456860115443,-0.4904374753832524,0.10763003011042459,1.6513945190965889
1780770801479402240,2.9589293003082275,0.6771628260612488,-0.3909416198730469,0.027876047417521477,0.09201478958129883,0.46556565165519714,-0.8802169561386108,-0.10216189920902252,0.055903464555740356,-0.09939724206924438,-0.6667425285348552,0.19954471977942445,0.14168070742687547,-0.7039622357040847,-0.48427363223976966,0.10415817562109898,1.6508374552507614
1780770801489436416,2.968963384628296,0.7404866814613342,-0.34821465611457825,-0.013148083351552486,0.08858561515808105,0.459079772233963,-0.883967399597168,-0.15062785148620605,0.10691449046134949,-0.05479907989501953,-0.6671409045737395,0.1957126696865312,0.14040244523153422,-0.7049161529051238,-0.4769590733204467,0.099880199749237,1.6501466238168632
1780770801499471360,2.9789984226226807,0.2770918309688568,-0.21727047860622406,0.04033910855650902,0.08626598119735718,0.4548180401325226,-0.8863964676856995,-0.23128551244735718,0.09425422549247742,-0.03167909383773804,-0.6673743591932091,0.19317221465432993,0.13959315603464872,-0.7055563632980866,-0.4721678937589079,0.09701658764175726,1.6497597860398532
1780770801509505536,2.989032506942749,-0.06241324171423912,-0.41794949769973755,0.11399868875741959,0.08397816121578217,0.4538068473339081,-0.8871341943740845,-0.22913502156734467,-0.13222786784172058,-0.14921224117279053,-0.667019100111821,0.19182487309857157,0.14012898934592802,-0.7061534267085505,-0.4710327832568814,0.09438105289119561,1.650443832320032
1780770801519540224,2.9990673065185547,-0.10577110201120377,-0.5196071863174438,0.15680021047592163,0.0803975909948349,0.45453500747680664,-0.8870930671691895,-0.1307058334350586,-0.21773386001586914,-0.09209394454956055,-0.6660386607013749,0.1905492317241336,0.1419311465164689,-0.7070636090635646,-0.47185010868561134,0.09038346569097189,1.6522758918239624
1780770801529574400,3.009101390838623,-0.012892561964690685,-0.4634014070034027,0.1186688020825386,0.07652651518583298,0.4550885260105133,-0.8871517181396484,-0.14656436443328857,-0.030848413705825806,0.06279563903808594,-0.6651374855158813,0.1891061619362629,0.14374634103783732,-0.7079321701763883,-0.4724716139294127,0.0860479046013702,1.6538368856043064
1780770801539609344,3.019136428833008,0.30130183696746826,-0.30067363381385803,0.1367785632610321,0.07356348633766174,0.45371943712234497,-0.8881030678749084,-0.21684351563453674,0.08346623182296753,0.09501230716705322,-0.6645122872509579,0.1873032959336145,0.14445043659295229,-0.708854755974664,-0.4709347054340991,0.08264347945255822,1.655187125204833
1780770801549644544,3.0291714668273926,0.6303159594535828,-0.07588977366685867,0.11527806520462036,0.07245331257581711,0.4494243562221527,-0.8903753757476807,-0.2440536469221115,0.1599201261997223,0.18314576148986816,-0.664346262834762,0.18514921037838553,0.14329021094640196,-0.7098111407359374,-0.466120837327955,0.08119499404394485,1.6562271844231238
1780770801559678208,3.039205312728882,0.9018974304199219,0.123105488717556,0.030326955020427704,0.0730084478855133,0.4425455629825592,-0.8937691450119019,-0.2236584722995758,0.23357141017913818,0.33621299266815186,-0.66479518355158,0.18274712297085433,0.14042411066860083,-0.7105857162061082,-0.45843534246810186,0.08150506190797341,1.6563844368578156
1780770801569713408,3.0492403507232666,1.019426941871643,0.23402827978134155,-0.03839831426739693,0.07468123733997345,0.43373245000839233,-0.8979414701461792,-0.16771407425403595,0.25915390253067017,0.4722212553024292,-0.6658464237318426,0.18014396453026835,0.1362989949485049,-0.7110691472822721,-0.4486310382780671,0.08297840517748287,1.6554020328398258
1780770801579747328,3.059274435043335,1.0296686887741089,0.25254443287849426,-0.043075621128082275,0.07671377807855606,0.42456308007240295,-0.9021425843238831,-0.11222098022699356,0.25294241309165955,0.48716455698013306,-0.667084950996403,0.1775853659681071,0.1318793308587696,-0.7113852330870251,-0.43847924489733003,0.08483101957432776,1.6539617001788973
1780770801589782528,3.0693094730377197,0.9670564532279968,0.19591043889522552,-0.04679179936647415,0.07859751582145691,0.4155111312866211,-0.9061859250068665,-0.09385629743337631,0.1672220230102539,0.43891602754592896,-0.6682773111554535,0.17501624336940244,0.12757881679261676,-0.7116870043147184,-0.42850467858830793,0.08651790435285771,1.65252660986045
1780770801599816448,3.079343318939209,0.8652757406234741,0.24787777662277222,-0.03926224261522293,0.08033746480941772,0.40722331404685974,-0.9097884893417358,-0.07168573141098022,0.12034931778907776,0.39483487606048584,-0.6693611507165799,0.17267588489997593,0.12364789212504068,-0.7119339680010527,-0.41941182556458967,0.0880750068383545,1.6511758185743235
1780770801609851392,3.0893783569335938,0.8904756307601929,0.34958815574645996,-0.0469670332968235,0.08291366696357727,0.3992008566856384,-0.9131067991256714,-0.08579757064580917,0.15107685327529907,0.3865717649459839,-0.6704554866107969,0.1707623857392694,0.11952745580938577,-0.7120694174510908,-0.4106450660382718,0.09055556875558063,1.649849275068619
1780770801619886336,3.0994133949279785,0.6312089562416077,0.4433303773403168,-0.028201069682836533,0.08640926331281662,0.392093688249588,-0.9158580303192139,-0.12995783984661102,0.11347576975822449,0.29638171195983887,-0.6714922642936733,0.16954091598480212,0.11544198622048592,-0.7120583844626828,-0.4029064326879722,0.09406941320016088,1.6486448726817502
1780770801629920512,3.109447479248047,0.29141274094581604,0.4538666307926178,-0.01891542598605156,0.0905354768037796,0.38796406984329224,-0.9172170758247375,-0.1064809188246727,0.011449992656707764,0.17225253582000732,-0.6722189423130471,0.16964403805190736,0.11230470967281626,-0.7118499037909747,-0.3984216109129878,0.09838799890497583,1.6479268454422906
1780770801639955456,3.1194825172424316,-0.06537441164255142,0.3116092383861542,-0.03220060467720032,0.0940873995423317,0.38690707087516785,-0.917306125164032,-0.0070665255188941956,-0.12059542536735535,-0.025793850421905518,-0.6726143431987108,0.1706473101718193,0.1105732518011537,-0.7115075756570506,-0.3972750663395615,0.10221181047362396,1.647572339885197
1780770801649989376,3.129516363143921,-0.3083668351173401,0.0688844621181488,-0.04832391440868378,0.09561614692211151,0.38873517513275146,-0.916374683380127,0.12862703204154968,-0.23391950130462646,-0.04750776290893555,-0.672705734456166,0.17193735583992328,0.1106806734047103,-0.7110938453027671,-0.39925840578694866,0.10396554893248745,1.6473173350479968
1780770801660024320,3.1395514011383057,-0.5962300300598145,0.005387375131249428,-0.01736360229551792,0.09570290893316269,0.39322131872177124,-0.9144495129585266,0.2087251991033554,-0.29054492712020874,0.05585271120071411,-0.6724571584714942,0.17364570777718455,0.11234946739203872,-0.7106519304234605,-0.40413254280089617,0.10427669701620856,1.6473935445038492
1780770801670058496,3.149585485458374,-0.9742055535316467,-0.0883907824754715,-0.013641566969454288,0.09534603357315063,0.400513231754303,-0.9113167524337769,0.24501651525497437,-0.33808955550193787,0.04493802785873413,-0.6718070093727971,0.17620260445674454,0.11530070178432551,-0.71016451328768,-0.4120768867590843,0.10424520736075919,1.6480998515571017
1780770801680093440,3.159620523452759,-1.147385835647583,-0.26941171288490295,-0.0697847306728363,0.09346065670251846,0.41054582595825195,-0.907037615776062,0.31809940934181213,-0.30686235427856445,0.1988924741744995,-0.6708948059733197,0.17920216789107335,0.11986564848788601,-0.7095202577431128,-0.42305257229033644,0.10267709163448283,1.6488110709200732
1780770801690128384,3.1696553230285645,-1.0389206409454346,-0.2819996774196625,-0.13471153378486633,0.09045515209436417,0.4205568730831146,-0.9027457237243652,0.33183184266090393,-0.16687950491905212,0.21150732040405273,-0.6700819773128451,0.18180041513048514,0.12480287085021584,-0.7087757725424083,-0.43405901707465977,0.09986670212632578,1.6489444057408995
1780770801700162304,3.179689407348633,-0.9293783903121948,-0.2069302201271057,-0.2564619481563568,0.08730645477771759,0.4296472668647766,-0.898766279220581,0.2592664361000061,-0.01645451784133911,0.21585917472839355,-0.669715891873404,0.18408262150351068,0.12934624539153933,-0.7077173388829073,-0.4441021248867879,0.09683650324625907,1.6478389941602336
1780770801710197504,3.1897244453430176,-0.7265834808349609,0.06471648067235947,-0.2796282470226288,0.08550508320331573,0.43733662366867065,-0.8952237367630005,0.13779203593730927,0.05573585629463196,0.34735697507858276,-0.6698431089727992,0.18643861834053965,0.13277334530511103,-0.7063442859070163,-0.45263492837561425,0.09522366540316192,1.6457729947442188
1780770801720231168,3.199758291244507,-0.6391410231590271,0.25176146626472473,-0.308491587638855,0.08564475923776627,0.4435669183731079,-0.8921397924423218,0.08319374173879623,0.06606140732765198,0.3948405981063843,-0.670369715940076,0.18905159368296187,0.13486883376154593,-0.704751328487824,-0.45957462205392524,0.09570597578722666,1.6431948470118216
1780770801730266368,3.2097933292388916,-0.8078338503837585,0.4387912452220917,-0.3030954897403717,0.0874500498175621,0.45013538002967834,-0.8886678814888,0.0691814199090004,-0.038239628076553345,0.30897122621536255,-0.670975671306844,0.19246478510257253,0.13646741103956336,-0.7029407334270711,-0.46691694221317165,0.09808995853434735,1.6406622223042469
1780770801740300544,3.21982741355896,-1.2531213760375977,0.5058779120445251,-0.2412363886833191,0.09040335565805435,0.4593123495578766,-0.8836624622344971,0.10905952006578445,-0.18144983053207397,0.24462443590164185,-0.6713096312533011,0.19732780441839998,0.13867406493116552,-0.7008384536096198,-0.47722089753521935,0.10195060341320984,1.6386490268162455
1780770801750335488,3.2298624515533447,-2.026366710662842,0.3724961578845978,-0.25002533197402954,0.09337671846151352,0.47389066219329834,-0.8756188750267029,0.17032566666603088,-0.25358426570892334,0.14431089162826538,-0.670805784437222,0.20425651104508016,0.14307285539164186,-0.698447547557933,-0.493703835302289,0.1062393136718716,1.6379607090575496
1780770801760369408,3.239896297454834,-2.840909957885742,0.07070472836494446,-0.31313639879226685,0.09387808293104172,0.49545904994010925,-0.8635433912277222,0.17650765180587769,-0.27124640345573425,0.11824309825897217,-0.6694241537047849,0.21301316707676232,0.15117436217468141,-0.6954443808787208,-0.518363215156914,0.10828737786509268,1.6376581419758536
1780770801770404352,3.2499313354492188,-3.131319522857666,0.010934606194496155,-0.21890310943126678,0.09271898865699768,0.521841287612915,-0.8479887247085571,0.13778027892112732,-0.20378708839416504,0.08179914951324463,-0.6670357400459681,0.22308648651942165,0.16198166961467192,-0.692139888711017,-0.549008001471747,0.10890725397760023,1.6384299846652275
1780770801780439296,3.2599663734436035,-3.0705807209014893,-0.10451342165470123,-0.25623637437820435,0.09118513017892838,0.5481671690940857,-0.831383228302002,0.07794329524040222,-0.0861615538597107,-0.010230541229248047,-0.6642786340311888,0.23312582787407268,0.17309173275357695,-0.6887855623537177,-0.5801712655169823,0.10924217656087477,1.6396557870461361
1780770801790473472,3.270000457763672,-2.6127498149871826,-0.3880136013031006,-0.31955596804618835,0.08758748322725296,0.5723187327384949,-0.8153402209281921,0.0022562742233276367,0.14914733171463013,-0.15658354759216309,-0.6616100918008114,0.24165998010902204,0.1842018763629397,-0.6855233546844979,-0.609330697908,0.10701406424157422,1.6399752307404847
1780770801800508416,3.2800354957580566,-1.3531932830810547,-0.6385300755500793,-0.1940411776304245,0.08183561265468597,0.5890217423439026,-0.8039628863334656,-0.04492460936307907,0.4295024275779724,-0.5749128460884094,-0.6595713253017781,0.2463592788545103,0.19319848749211205,-0.6833352922328547,-0.6298477413394457,0.1014408983457265,1.639255747009046
1780770801810542336,3.290069341659546,0.15443278849124908,-0.7785369753837585,-0.2889479696750641,0.07468712329864502,0.593654990196228,-0.8012462854385376,-0.044886715710163116,0.687228798866272,-1.0890735387802124,-0.65886929703129,0.24547100452213808,0.19778992063874612,-0.6830186170011417,-0.6355932422412469,0.09294511607574417,1.6373791005763825
1780770801820577280,3.3001043796539307,0.5774277448654175,-0.4750111997127533,-0.5435053706169128,0.06689073145389557,0.5906100273132324,-0.8041799664497375,-0.06652450561523438,0.8841824531555176,-0.7024423480033875,-0.6601985921250129,0.24143570916725784,0.19904474616999948,-0.6828088018632524,-0.6318146073937687,0.08298777091499096,1.6316029675795471
1780770801830611456,3.310138463973999,0.6293742656707764,-0.02613619714975357,-0.4966045022010803,0.06176429241895676,0.5859116315841675,-0.8080177903175354,-0.30204445123672485,0.5983229875564575,-0.1669577956199646,-0.6625520950092292,0.23800436453974366,0.1983558167078803,-0.6819337434920596,-0.6260045492201975,0.07629091386426455,1.6243272632862467
1780770801840646400,3.320173501968384,0.3129800856113434,0.2568144202232361,-0.34273025393486023,0.060394518077373505,0.5824825763702393,-0.8105964064598083,-0.3597414493560791,0.12062716484069824,-0.27521902322769165,-0.6646366967562722,0.2365291760672713,0.19686477598176266,-0.6808496754294907,-0.6217795512633607,0.07436886274155186,1.6188002315919479
1780770801850681344,3.3302083015441895,0.23568876087665558,0.34074580669403076,-0.15922246873378754,0.06143999472260475,0.5804287195205688,-0.8119899034500122,-0.15097858011722565,-0.0037990808486938477,-0.2952030897140503,-0.6661517800852496,0.23643922955254235,0.19519616788268712,-0.6798798649663089,-0.619255068674245,0.07552204807863015,1.6153644312757505
1780770801860715264,3.340242385864258,0.13940829038619995,0.1958950012922287,-0.020025962963700294,0.06328767538070679,0.5788734555244446,-0.8129576444625854,0.05682949721813202,-0.09375083446502686,-0.12785345315933228,-0.6669151628683597,0.2366644779857833,0.19367779619954914,-0.6794872536757502,-0.6173464440796413,0.07769197531934567,1.6142552523291809
1780770801870750464,3.3502774238586426,-0.17022278904914856,0.08700420707464218,0.04016360640525818,0.06436865776777267,0.5788896083831787,-0.8128613233566284,0.12517601251602173,-0.2944200038909912,0.16320312023162842,-0.6670390139357255,0.23712213444401967,0.19324192329260143,-0.6793302174256337,-0.6173662372458061,0.07902284981558054,1.6142643274885642
1780770801880784384,3.360311508178711,-0.24728907644748688,-0.043708398938179016,0.11154298484325409,0.06513645499944687,0.5807924270629883,-0.8114416003227234,0.17386195063591003,-0.2830629348754883,0.2936498522758484,-0.666480093469289,0.23811832154811288,0.19385271603773124,-0.6793563987869851,-0.6197017660683101,0.08010076416867382,1.6155884355359107
1780770801890819328,3.3703463077545166,0.13970284163951874,-0.09797190129756927,-0.03878580406308174,0.06472600251436234,0.5814559459686279,-0.8109990954399109,0.24723994731903076,0.04427647590637207,0.2260076403617859,-0.6661339570579644,0.2381619215598709,0.19436912904212383,-0.6795329726767365,-0.6205171137433436,0.07964139483028218,1.6162560960401262
