time,seconds_elapsed,rotationRateX,rotationRateY,rotationRateZ,gravityX,gravityY,gravityZ,accelerationX,accelerationY,accelerationZ,quaternionW,quaternionX,quaternionY,quaternionZ,pitch,roll,yaw
1780494313520296704,0.5196647644042969,0.11218810826539993,0.36488962173461914,-0.04960779845714569,0.01651746965944767,-0.38898465037345886,-0.92109614610672,0.02529160864651203,-0.10315710306167603,-6.16908073425293e-05,0.8980659575003846,0.178466541738422,0.08718724282434279,0.39246101296527863,0.39952917286092854,0.017930483836487945,0.8203625968342498
1780494313530331904,0.5296998023986816,-0.0014503113925457,0.3555426001548767,-0.029368042945861816,0.02006482146680355,-0.38928788900375366,-0.9208976030349731,0.0242314450442791,-0.17971232533454895,-0.007874369621276855,0.8979621118844056,0.17787979694744158,0.08893812476130583,0.3925721578998654,0.39985838176441296,0.02178488412688825,0.8198711393131521
1780494313540366848,0.5397348403930664,0.016815511509776115,0.35043972730636597,0.024136994034051895,0.023217400535941124,-0.3894463777542114,-0.920756459236145,0.020483773201704025,-0.21367251873016357,0.03080284595489502,0.8977903325221858,0.17728411737556016,0.09051024742274671,0.39287515165888265,0.40003044925022807,0.025210229918669707,0.8198817543445762
1780494313550402048,0.5497698783874512,-0.2536495327949524,0.4467160403728485,-0.05858371779322624,0.02704298309981823,-0.3884371817111969,-0.9210783243179321,0.04656540974974632,-0.2055417001247406,-0.08941972255706787,0.8977312893481566,0.1759837249913385,0.09214432978689102,0.39321452134932244,0.3989349761843437,0.029351703371379167,0.8197413904341708
1780494313560436992,0.5598049163818359,-0.2610608637332916,0.3070417642593384,0.05424962565302849,0.030549753457307816,-0.38581737875938416,-0.922069251537323,0.045698415488004684,-0.20846667885780334,-0.0783427357673645,0.8978365804969706,0.17396690672345003,0.09327861343008073,0.39360402490021984,0.39609363590899427,0.03311961976887062,0.8196702185987313
1780494313570471680,0.5698397159576416,-0.27067112922668457,0.37072354555130005,0.13606032729148865,0.033315181732177734,-0.38350918889045715,-0.922935962677002,0.07128381729125977,-0.20090243220329285,0.011238574981689453,0.8976877842833045,0.1721996502593951,0.09423001723676362,0.39449292825868065,0.39359304728826977,0.036081293683254335,0.8209050119698393
1780494313580505856,0.57987380027771,-0.3472921550273895,0.4321501553058624,0.18738716840744019,0.0364828035235405,-0.3807370960712433,-0.9239633679389954,0.0849924087524414,-0.2085115611553192,-0.0006734728813171387,0.8974470471375008,0.17009443973964591,0.09532158339358324,0.3956900118727247,0.390593306018364,0.03946462060005706,0.8227240582359202
1780494313590540800,0.5899088382720947,-0.21002934873104095,0.430835485458374,0.42771321535110474,0.03926532715559006,-0.3780297338962555,-0.9249604344367981,0.043620407581329346,-0.260352224111557,0.1052277684211731,0.8969021890923058,0.16802717322933955,0.09636730303290703,0.3975510650371472,0.38766716993096934,0.04242534587338159,0.8261223049239601
1780494313600576000,0.5999438762664795,-0.16993412375450134,0.6485598087310791,0.6310085654258728,0.04197590798139572,-0.37662914395332336,-0.925412654876709,0.04141336679458618,-0.37144824862480164,0.14861822128295898,0.8957645390624728,0.16649118330324414,0.09784871194030981,0.40039028538806676,0.386154789866461,0.04532805605478507,0.8318184731814965
1780494313610610944,0.6099789142608643,0.14865556359291077,0.7246122360229492,1.1255085468292236,0.04572617635130882,-0.37657231092453003,-0.9252580404281616,0.038899075239896774,-0.44665461778640747,0.16331040859222412,0.8936784348482925,0.1651823804456068,0.10042793705400156,0.4049293482355836,0.3860934293366931,0.04937974401508771,0.841209800771746
1780494313620645888,0.6200137138366699,0.39897671341896057,0.8188857436180115,1.256535530090332,0.04772009328007698,-0.3803318440914154,-0.9236181378364563,0.12009607255458832,-0.5355159044265747,0.20259463787078857,0.8904800707447854,0.16586914730225666,0.10333615226225436,0.410918718559938,0.3901550942048552,0.05162057561917628,0.854480076886935
1780494313630680832,0.6300487518310547,-0.1266753375530243,1.0348061323165894,1.1142220497131348,0.05219564214348793,-0.38216692209243774,-0.92261803150177,0.11049357056617737,-0.65654456615448,0.1246444582939148,0.8874559841841494,0.16508775548987525,0.10694399133450878,0.4168102260197724,0.3921400898218886,0.0565131623329789,0.8669511311119493
1780494313640715008,0.640082836151123,-0.23968763649463654,1.0591760873794556,1.352916955947876,0.05705888941884041,-0.3810427188873291,-0.9227950572967529,0.04587690159678459,-0.6210172176361084,0.1501815915107727,0.8844603116966085,0.1627151462611795,0.11011925034766971,0.4232344904378262,0.39092382575600726,0.06175405587955024,0.8804070632414318
1780494313650749952,0.6501178741455078,-0.390480101108551,1.1891520023345947,1.4933925867080688,0.062136679887771606,-0.37896817922592163,-0.9233212471008301,0.07822892814874649,-0.5554953217506409,0.16102266311645508,0.8810186529050389,0.15968128246956184,0.11331930264851782,0.4306583643278285,0.3886810627756749,0.06719560503916915,0.8960945424950237
1780494313660784896,0.6601529121398926,-0.1829143762588501,1.1511521339416504,1.708366870880127,0.06698612868785858,-0.37701526284217834,-0.9237815737724304,0.054946839809417725,-0.44871413707733154,0.16081160306930542,0.8771302166692139,0.1566179974193884,0.11653334320653191,0.4387864297504549,0.38657162859343963,0.07238625839077842,0.9135249748189522
1780494313670819840,0.6701877117156982,0.35489341616630554,1.2292709350585938,1.9494730234146118,0.07090866565704346,-0.3791239857673645,-0.9226250648498535,0.02561844140291214,-0.3315998911857605,0.17360162734985352,0.8722753842151185,0.15549245535413306,0.12045570181362647,0.44771440805877205,0.388849427677217,0.07670455328119666,0.933306106134282
1780494313680854784,0.680222749710083,0.7116307616233826,1.368509292602539,2.061328887939453,0.07527866959571838,-0.38568568229675293,-0.9195540547370911,-0.013770490884780884,-0.24489900469779968,0.09930258989334106,0.8664746622425842,0.15616763394457395,0.12583577378677846,0.457163703932291,0.39595090051874965,0.08168217735434309,0.9545926636265821
1780494313690889728,0.6902577877044678,0.9119377732276917,1.5167664289474487,2.139880657196045,0.08035437762737274,-0.3948250412940979,-0.915235698223114,-0.06913918256759644,-0.1591758131980896,0.06474131345748901,0.8600295761574313,0.1577070432611664,0.13232776838059396,0.46686947993736994,0.4058774075203965,0.08757183044257127,0.9766480706648809
1780494313700923904,0.7002918720245361,1.153099536895752,1.5636769533157349,2.2721939086914062,0.08569462597370148,-0.4061082899570465,-0.9097980856895447,-0.08255133032798767,-0.10310804843902588,0.05905956029891968,0.8529337404281971,0.15997416852544802,0.1396754483974247,0.47686816501003726,0.4181912982404748,0.09391374558757319,0.9996511130418438
1780494313710958848,0.7103269100189209,1.2740232944488525,1.5475760698318481,2.3565521240234375,0.09021911025047302,-0.4193895757198334,-0.9033122062683105,-0.05771789699792862,-0.09509101510047913,0.08811140060424805,0.8451894081245573,0.16314389524474812,0.14740413083612514,0.48714574336913247,0.4327727971506449,0.099545773834371,1.0238333346242068
1780494313720993792,0.7203617095947266,1.237838625907898,1.5044339895248413,2.2798447608947754,0.09407541155815125,-0.43288832902908325,-0.8965252637863159,-0.03429146856069565,-0.10916489362716675,0.07218444347381592,0.8372504976388655,0.16643881137404556,0.15503387712768452,0.4972667365674877,0.447694429456166,0.10455075144049891,1.0480631758463053
1780494313731028736,0.7303967475891113,1.1931300163269043,1.5456761121749878,2.1407907009124756,0.09795770049095154,-0.4459257423877716,-0.8896934986114502,-0.05514155328273773,-0.1194429099559784,0.04035884141921997,0.8294513839807581,0.16946011962489083,0.16259309505740704,0.5068107954711856,0.4622082526085892,0.10966104462303221,1.0711365088662852
1780494313741063936,0.7404317855834961,1.2629420757293701,1.5696879625320435,2.1200129985809326,0.10217128694057465,-0.45894187688827515,-0.8825720548629761,-0.08349453657865524,-0.08242470026016235,0.06311404705047607,0.8216592411236883,0.1723082679206079,0.17036385713095248,0.5159090496580951,0.47680387211780567,0.11525234956439932,1.0933069413627403
1780494313751098880,0.7504668235778809,1.446097493171692,1.6196091175079346,2.0996580123901367,0.1063590794801712,-0.4729859232902527,-0.8746268153190613,-0.0985770896077156,0.028207510709762573,0.11359471082687378,0.8135726212951326,0.17549702308546,0.17857042896833364,0.5247979104527425,0.49267668004943366,0.1210109426467086,1.115317536587958
1780494313761133056,0.7605009078979492,1.779529333114624,1.722548484802246,2.033848762512207,0.1109565794467926,-0.4893360137939453,-0.8650079965591431,-0.1114143505692482,0.1665668785572052,0.15884649753570557,0.8051137186040986,0.17952190475568527,0.18779743333414972,0.53319398880926,0.5113282304506727,0.1275756553579733,1.1365016367816423
1780494313771167744,0.7705357074737549,2.088726758956909,1.8383499383926392,2.0388855934143066,0.11618203669786453,-0.5083892941474915,-0.8532537817955017,-0.12855690717697144,0.31280213594436646,0.15064764022827148,0.7961438107722765,0.18447859645286324,0.198345008675066,0.5410932988048787,0.5333132952164578,0.13533124014964643,1.1568449084091632
1780494313781202688,0.7805707454681396,2.346541404724121,1.9505044221878052,2.0800933837890625,0.12154431641101837,-0.5297329425811768,-0.8394104838371277,-0.13459056615829468,0.40148282051086426,0.12752693891525269,0.7864740672411485,0.19023469788939523,0.21001314032123963,0.5487838436097333,0.5582856778378267,0.14379783005395305,1.1771838147443598
1780494313791237888,0.7906057834625244,2.4482388496398926,2.0468087196350098,2.0424258708953857,0.12701664865016937,-0.5524483919143677,-0.8238128423690796,-0.15568791329860687,0.36731356382369995,0.06513059139251709,0.7762283948367801,0.1963893626984769,0.22254170579476978,0.5562157877910812,0.5852987389401315,0.1529768551147593,1.1973365636510507
1780494313801272832,0.8006408214569092,2.360750198364258,2.1088809967041016,1.90733003616333,0.13284535706043243,-0.574765145778656,-0.8074634075164795,-0.16595692932605743,0.2762574553489685,0.022215604782104492,0.7658689782705225,0.20214982001834222,0.23538002345068826,0.5631841766373626,0.6123171423590094,0.1630610883220451,1.2164759420637836
1780494313811308032,0.810675859451294,2.2198598384857178,2.137423276901245,1.8048878908157349,0.1390157788991928,-0.5956479907035828,-0.7911245822906494,-0.12030848860740662,0.22044962644577026,0.031160593032836914,0.7556814962038902,0.20709280042566347,0.24809330104748925,0.5696558521843038,0.6380721300465909,0.17394341694066182,1.2343100697607676
1780494313821341696,0.8207097053527832,2.3217811584472656,2.1603500843048096,1.7454663515090942,0.1450660675764084,-0.6159199476242065,-0.7743374109268188,-0.04399183392524719,0.22717183828353882,0.08532679080963135,0.7454612393864454,0.2116996947668306,0.26079596310646985,0.5757223550871123,0.6635531869685537,0.18519550014824895,1.2512833859439494
1780494313831376896,0.830744743347168,2.3696372509002686,2.2109830379486084,1.6811504364013672,0.15113605558872223,-0.636600136756897,-0.7562394142150879,0.03477701544761658,0.21272629499435425,0.056639254093170166,0.7350263640852683,0.21641101341812197,0.27394626256266347,0.5812536819547297,0.6900816446690682,0.1972533624959467,1.2671057495006763
1780494313841411840,0.8407797813415527,2.182777166366577,2.219653367996216,1.6416128873825073,0.15695469081401825,-0.6563509106636047,-0.737949013710022,0.07537561655044556,0.12842732667922974,0.04556620121002197,0.7245108078857492,0.22064465188524474,0.2869519719765056,0.586565139159305,0.7159718134169278,0.2095675839676686,1.2824886392387422
1780494313851446784,0.8508148193359375,1.82976233959198,2.158860445022583,1.5586954355239868,0.16234055161476135,-0.6736749410629272,-0.7209768891334534,0.09736403822898865,0.009627699851989746,0.0740652084350586,0.7143174941853441,0.22379324891002603,0.29904539094919824,0.5918099730408355,0.7391702767540549,0.22147385977587108,1.2976596888219818
1780494313861481984,0.8608498573303223,1.471236228942871,2.068324327468872,1.4953079223632812,0.16702395677566528,-0.6880285739898682,-0.7062009572982788,0.13076657056808472,-0.04923039674758911,0.07199990749359131,0.7046721789344144,0.22570801961891304,0.3097667207487197,0.5971077545388456,0.7587688565015311,0.23224296097659367,1.312967019612624
1780494313871516928,0.870884895324707,1.170971155166626,2.0472335815429688,1.368007779121399,0.17148706316947937,-0.6996810436248779,-0.6935694813728333,0.17207983136177063,-0.005107104778289795,0.06094008684158325,0.6956118525308632,0.2263853688409299,0.31931948424625695,0.6024191559231262,0.7749509609122949,0.24239150315289038,1.3281242538441629
1780494313881551872,0.8809199333190918,1.0989923477172852,2.019329309463501,1.262280821800232,0.17625287175178528,-0.7097371816635132,-0.6820616722106934,0.20198199152946472,0.12866723537445068,0.01288747787475586,0.6870449539895794,0.2262437087294614,0.3283031535252261,0.6074537498844782,0.7891250346526315,0.2528799767433691,1.342217687817837
1780494313891585792,0.890953779220581,1.0711278915405273,1.9282816648483276,1.200804352760315,0.18085460364818573,-0.7193353176116943,-0.6707073450088501,0.2528764605522156,0.23903441429138184,-0.0316699743270874,0.6787375376949752,0.2259751644735874,0.3370186313482198,0.6121021895268446,0.8028450317889474,0.26338332624748323,1.3553134615672016
1780494313901620992,0.9009888172149658,0.8962571024894714,1.8152376413345337,1.1548595428466797,0.18483376502990723,-0.7281582355499268,-0.6600167155265808,0.3088796138763428,0.21047329902648926,-0.029939889907836914,0.6707903289322625,0.22559712465690823,0.3451051548339384,0.6164808970310015,0.815630960757052,0.27304955645287154,1.3679004545806324
1780494313911655936,0.9110238552093506,0.5687106251716614,1.7062628269195557,1.1404374837875366,0.18797242641448975,-0.7351569533348083,-0.6513144969940186,0.31311094760894775,0.08670419454574585,0.015572309494018555,0.6633095132733522,0.22460904237552917,0.35198510875128264,0.6210295665289736,0.8258981741061534,0.28096988016156527,1.3812180461860575
1780494313921690880,0.9210588932037354,0.19095109403133392,1.6183558702468872,1.1350258588790894,0.1903964728116989,-0.739765465259552,-0.6453652381896973,0.2742336392402649,-0.044414222240448,0.06417322158813477,0.6563737797108272,0.22267241511697689,0.35739946413056844,0.6259841300052961,0.8327217144167074,0.2868829255370713,1.3958408853286595
1780494313931726080,0.9310939311981201,0.04902830719947815,1.401709794998169,1.072118878364563,0.19195617735385895,-0.742631733417511,-0.6416003108024597,0.23997437953948975,-0.061323344707489014,0.07255434989929199,0.6499781583970816,0.22023907594429346,0.36151705645966953,0.6311327871081875,0.8369915323399559,0.29070746327056074,1.4113455109978599
1780494313941760768,0.9411287307739258,-0.3753453493118286,1.4173049926757812,0.9527221322059631,0.1936829835176468,-0.74327152967453,-0.6403392553329468,0.2484099119901657,0.05580204725265503,0.012318015098571777,0.6444408474553314,0.21687944186648928,0.36440866100415525,0.6362905446069972,0.8379473929439029,0.2937206723490618,1.426504294632967
1780494313951794944,0.9511628150939941,0.2794750928878784,1.170975685119629,0.981948733329773,0.19459904730319977,-0.7452414035797119,-0.6377666592597961,0.2879143953323364,0.2873557209968567,0.06148809194564819,0.6388766082512096,0.21456281188027632,0.36753157052351615,0.64087432718613,0.8408968267946195,0.2961526749598882,1.4407260723076463
1780494313961829888,0.9611978530883789,0.40872442722320557,1.0655968189239502,0.6594846248626709,0.19566380977630615,-0.7489186525344849,-0.6331164240837097,0.36540183424949646,0.13627833127975464,-0.10096865892410278,0.6337887655561757,0.2134743612790506,0.37130916202076475,0.6441039092311818,0.8464287725032441,0.29973755186490425,1.4511170292694755
1780494313971864832,0.9712328910827637,0.3424817621707916,0.8531895279884338,0.45387929677963257,0.19759126007556915,-0.752824068069458,-0.6278643608093262,0.28150418400764465,0.196091890335083,-0.07741212844848633,0.6297149473012683,0.21279970943059878,0.3752120681781096,0.6460582940577063,0.8523420441959624,0.3048912757607509,1.4571402907093565
1780494313981900032,0.9812679290771484,-0.31334856152534485,0.5780964493751526,0.32868197560310364,0.1992035061120987,-0.7533571720123291,-0.6267144083976746,0.1316985785961151,0.2609407901763916,-0.37931281328201294,0.6271857770060297,0.21109850384551107,0.37693529434032097,0.6480704345138334,0.8531523980185569,0.3077548258099299,1.4627960281021588
1780494313991934720,0.9913027286529541,-0.22316884994506836,0.5064952373504639,0.39404046535491943,0.19986774027347565,-0.7522549033164978,-0.6278260350227356,-0.02651265263557434,0.3680080771446228,-0.5538451671600342,0.6253320485948847,0.20913642427404489,0.3772916018708115,0.6502868074582668,0.8514778186022183,0.3082045339953771,1.4692699681303147
1780494314001969920,1.0013377666473389,0.10279726982116699,0.59510338306427,0.4732074439525604,0.20002736151218414,-0.7527812123298645,-0.627143919467926,-0.11846913397312164,0.3846781849861145,-0.510246217250824,0.6229351842132542,0.2080035418641935,0.3783682927100093,0.6523217945841434,0.8522769679340897,0.3087499012397602,1.4758269978234597
1780494314012003840,1.0113718509674072,-0.07970356941223145,0.5074673891067505,0.48623695969581604,0.19984199106693268,-0.7540831565856934,-0.6256370544433594,-0.14127877354621887,0.35090023279190063,-0.3696174621582031,0.6202069899259748,0.20725590116521508,0.37977157908314235,0.6543407882221962,0.8542570737977206,0.30917818276891185,1.4827286660267933
1780494314022039040,1.021406888961792,-0.5243430733680725,0.3640090227127075,0.41287434101104736,0.19928064942359924,-0.7530602812767029,-0.6270467042922974,-0.12075887620449066,0.15741807222366333,-0.3815287947654724,0.6182254848010509,0.20569994176619344,0.37968959899927374,0.6567501317753998,0.852701005762347,0.30771357079032235,1.4905621462942287
1780494314032073984,1.0314419269561768,-0.8444454073905945,0.16084793210029602,0.5786726474761963,0.19726961851119995,-0.7497379183769226,-0.6316468715667725,-0.09361666440963745,-0.030169308185577393,-0.42677903175354004,0.6168334523978903,0.20366192939284009,0.37775440147266764,0.6598029480622861,0.8476659364894976,0.30271174723500005,1.5006749020896468
1780494314042108672,1.0414767265319824,-1.2476967573165894,0.0926385223865509,0.7112053632736206,0.19311344623565674,-0.7444064021110535,-0.6391919255256653,-0.02741825580596924,-0.12490206956863403,-0.41386282444000244,0.6154784701084453,0.2012914342874307,0.3740130825751342,0.6639143601194952,0.8396454149598206,0.29340173261466174,1.5147576329909427
1780494314052145152,1.0515131950378418,-1.694819450378418,0.05063248425722122,0.7494251728057861,0.1881730705499649,-0.7362233996391296,-0.6500507593154907,-0.010652318596839905,-0.21095067262649536,-0.2904094457626343,0.6143939444038066,0.1978397360712368,0.3685567240813549,0.6689883600004363,0.8274726788481425,0.2817725618353687,1.5314385833761963
1780494314062180352,1.0615482330322266,-2.1591103076934814,0.029108546674251556,0.8637488484382629,0.18256692588329315,-0.7250794172286987,-0.6640249490737915,-0.023387253284454346,-0.33902275562286377,-0.1160043478012085,0.6108585991170528,0.19185470212553182,0.3621868117104604,0.6773952513186129,0.8111497435273264,0.26831029177765414,1.5582283623709248
1780494314072214016,1.0715820789337158,-2.703798770904541,0.06860362738370895,0.9503793120384216,0.17623324692249298,-0.7102866768836975,-0.6814945340156555,-0.01619906723499298,-0.40346759557724,0.04149514436721802,0.607308238257595,0.18453607397281777,0.35383494986188013,0.686967345929769,0.7899053762670991,0.25305455446685166,1.5877813416670599
1780494314082249216,1.0816171169281006,-3.0899980068206787,0.16153915226459503,0.9739009141921997,0.17026126384735107,-0.691769540309906,-0.7017592191696167,-0.0032080411911010742,-0.3696165680885315,0.1949537992477417,0.6037756921002719,0.17566374011401018,0.3438933593516305,0.6973768320624224,0.7639366365736147,0.23802139755820353,1.618430349318665
1780494314092284160,1.0916521549224854,-3.2945399284362793,0.2568439543247223,1.1204005479812622,0.16470696032047272,-0.6706104278564453,-0.7232933640480042,0.02201482653617859,-0.2465190887451172,0.31231313943862915,0.599562980415995,0.16558713183482554,0.33306789040454926,0.7086401716742325,0.7350313377748598,0.22390002715133542,1.6506590427848296
1780494314102319360,1.1016871929168701,-3.3286685943603516,0.24161389470100403,1.2374459505081177,0.15871594846248627,-0.6481132507324219,-0.7448211312294006,0.11311936378479004,-0.14018630981445312,0.31560665369033813,0.5975723607845572,0.15666892762755516,0.32100510533581994,0.7178564713036575,0.7051042529457638,0.20995242017861232,1.67567861808751
1780494314112354304,1.1117222309112549,-3.4631059169769287,0.192901611328125,1.1456167697906494,0.15260744094848633,-0.6244344115257263,-0.7660238742828369,0.20554684102535248,-0.1210184097290039,0.3026908040046692,0.5954449441100265,0.14772067893895993,0.30849093357547885,0.7269506640514516,0.6744072473531684,0.1966456518527127,1.6998965018308936
1780494314122389248,1.1217572689056396,-3.7499616146087646,0.04524504020810127,0.9582812190055847,0.14727014303207397,-0.5978339314460754,-0.7879759669303894,0.24460609257221222,-0.11464470624923706,0.2426115870475769,0.5939327147658822,0.1379933093172663,0.2949065304931848,0.7356847134854672,0.6407962670896836,0.1847651096960895,1.7217498081762432
1780494314132424448,1.1317923069000244,-4.017758846282959,0.1704438328742981,0.9400601387023926,0.14254893362522125,-0.5676896572113037,-0.8108071684837341,0.22537098824977875,-0.03681778907775879,0.31694120168685913,0.5930081587160745,0.12732895300074598,0.2799709957343915,0.7441404070544665,0.603696761789011,0.1740325956774863,1.741581568931468
1780494314142458112,1.1418261528015137,-4.120447635650635,0.2960648834705353,0.9767664670944214,0.13908089697360992,-0.535805344581604,-0.8328080177307129,0.13766776025295258,-0.003943800926208496,0.4365677833557129,0.5914256356610382,0.11577701284960885,0.2649371359467131,0.7527415091491585,0.5654612741482384,0.16547528109682214,1.7615040493672827
1780494314152493312,1.1518611907958984,-4.043506145477295,0.3410026431083679,0.8717881441116333,0.13710397481918335,-0.5020886659622192,-0.8538790941238403,0.08192066848278046,-0.02421748638153076,0.45264923572540283,0.5898553913937545,0.10347683462090151,0.24970583658069045,0.7609272609043024,0.5260122756622735,0.15920712081490312,1.7797985566979835
1780494314162528256,1.1618962287902832,-3.739929676055908,0.29217490553855896,1.1754907369613647,0.13502216339111328,-0.4698618948459625,-0.8723524808883667,0.07428263127803802,0.033475786447525024,0.5704573392868042,0.5875068529034326,0.09199427247344602,0.2352888164835195,0.7687729927625254,0.4891343338451152,0.15356083552279148,1.7981268204227956
1780494314172563200,1.171931266784668,-4.077877521514893,0.14276546239852905,1.6084579229354858,0.13086465001106262,-0.4376993179321289,-0.8895469307899475,0.20081563293933868,0.1095438003540039,0.3608298897743225,0.5835434199125705,0.08133737395807732,0.22047847721775576,0.7773356022951087,0.453038264188995,0.1460660971269362,1.8199774997144527
1780494314182598400,1.1819663047790527,-4.9992241859436035,0.03908035531640053,1.5734187364578247,0.12494098395109177,-0.39896491169929504,-0.9084144234657288,0.28074443340301514,0.052010565996170044,0.27517467737197876,0.5788069543913644,0.06948666864741146,0.20239664132345808,0.7868860429065909,0.4103877574913675,0.13667990318335937,1.8447050048679177
1780494314192633088,1.1920011043548584,-5.862304210662842,-0.44598299264907837,1.1704906225204468,0.11771447211503983,-0.35058316588401794,-0.9291042685508728,0.27509254217147827,-0.20373812317848206,0.3195156455039978,0.575167919812879,0.05595070576185883,0.17977036019688664,0.7960741276934694,0.3581937196171716,0.1260252669979275,1.867405884846116
1780494314202667264,1.2020351886749268,-6.887472629547119,-0.7269794940948486,0.7706173062324524,0.10906074941158295,-0.291572242975235,-0.9503111839294434,0.35215139389038086,-0.267143577337265,0.16013479232788086,0.5734153991159454,0.04076868375200688,0.15225738905297956,0.8039591734498106,0.2958700769302432,0.11426330474665525,1.8854338461093394
1780494314212702208,1.2120702266693115,-7.110748291015625,-0.9997472763061523,0.8769197463989258,0.09873122721910477,-0.22417233884334564,-0.9695354104042053,0.44316941499710083,-0.07033754885196686,0.06693226099014282,0.5719175535604596,0.024442149032874044,0.12097469436612303,0.8109735317659277,0.22609367706593392,0.10148371504491883,1.9016153182836717
1780494314222737408,1.2221052646636963,-6.468855857849121,-1.1105682849884033,0.8557963967323303,0.0863662138581276,-0.1581335812807083,-0.9836333990097046,0.3848556876182556,-0.027459070086479187,0.2680267095565796,0.5674624683310386,0.009604325998632294,0.08995032509001244,0.8184150279536244,0.15880016737821434,0.08757865990698355,1.9220983132511045
1780494314232772352,1.232140302658081,-5.767324447631836,-0.6614870429039001,0.5659541487693787,0.0773654356598854,-0.09780571609735489,-0.9921938180923462,0.131710484623909,-0.10411383211612701,0.12142056226730347,0.5633343557376443,-0.004337557055199426,0.06232384577633439,0.8238636610190728,0.09796232299486184,0.07781666352311674,1.9382741243003374
1780494314242807040,1.2421751022338867,-4.3858137130737305,-0.9836552143096924,0.7883997559547424,0.06874553859233856,-0.04703421890735626,-0.9965248703956604,-0.07590191066265106,0.06859488785266876,-0.0082816481590271,0.559120522069286,-0.015339708613950875,0.03875892519355695,0.8280378227547145,0.04705157922543888,0.06887614957193346,1.9521484543719145
1780494314252842240,1.2522101402282715,-2.856003999710083,-0.6907222867012024,0.8158074021339417,0.05962277203798294,-0.012114121578633785,-0.9981474876403809,-0.005957607179880142,0.39720016717910767,0.06208181381225586,0.5554977775379686,-0.021427258542430473,0.021613360979739406,0.8309607738917384,0.012114417648842756,0.05966253571167818,1.962688664663119
1780494314262877184,1.2622451782226562,-2.617746114730835,-0.41936057806015015,0.6922271251678467,0.0542425774037838,0.014650914818048477,-0.9984202980995178,0.1265435516834259,0.6996740102767944,-0.4215626120567322,0.5520729877802263,-0.026666016697534548,0.008875477126351365,0.8333219868455439,-0.01465143873993008,0.05427504402293075,1.9717701742216238
1780494314272911360,1.2722792625427246,-2.2668683528900146,-0.2170698046684265,0.6958759427070618,0.051405105739831924,0.03857079893350601,-0.9979327917098999,0.10623344779014587,0.8010135293006897,-0.3449016809463501,0.5488361891142276,-0.03208732825040652,-0.0020048952391435526,0.8353114200375349,-0.03858036776898865,0.051466103118540496,1.979963741323329
1780494314282946304,1.2823143005371094,-2.7451508045196533,-0.25943082571029663,0.7036010026931763,0.04945474490523338,0.06260133534669876,-0.9968125820159912,0.04739278927445412,0.42239928245544434,-0.12127518653869629,0.5454942009494426,-0.03783547600454717,-0.012735427977609718,0.837163369874465,-0.06264229372373785,0.04957223616194944,1.9881503471435897
1780494314292981248,1.292349100112915,-3.7175509929656982,-0.42281246185302734,0.6640064120292664,0.04673304781317711,0.09476263076066971,-0.9944023489952087,-0.02076258882880211,-0.05072576552629471,0.08029407262802124,0.5418377476094227,-0.045400276817962285,-0.027159375863194904,0.8388164328271565,-0.0949050325973789,0.04696156013380155,1.996770265865705
1780494314303016192,1.3023841381072998,-4.044570446014404,-0.6557410359382629,0.5002571940422058,0.04188854619860649,0.13361941277980804,-0.990147054195404,0.006069827824831009,-0.26429569721221924,0.19711726903915405,0.5383034009125922,-0.05381850976816694,-0.04505593198550954,0.8398232240230137,-0.134020248806538,0.0422801666560344,2.004425308487811
1780494314313051136,1.3124191761016846,-3.316904306411743,-0.5439605712890625,0.21654585003852844,0.03612993285059929,0.17035511136054993,-0.9847201704978943,0.02546979859471321,-0.2785704433917999,0.07938569784164429,0.5355019392839088,-0.06125527695892562,-0.06235156616237409,0.8399986694081909,-0.17119002999475932,0.0366741085022027,2.009659861456038
1780494314323086336,1.3224542140960693,-2.095003604888916,-0.47031164169311523,0.26137295365333557,0.03142281249165535,0.19683058559894562,-0.9799338579177856,-0.02455635741353035,-0.04709608852863312,-0.19125449657440186,0.5336418991836627,-0.06637827260752603,-0.07501336567509063,0.8397579295622396,-0.19812421912429914,0.03205527449733868,2.0125915640908616
1780494314333120256,1.3324882984161377,-1.7278698682785034,-0.10715422034263611,0.6857625842094421,0.02957693301141262,0.21481715142726898,-0.9762063026428223,-0.010442415252327919,0.3406027555465698,-0.03862518072128296,0.5309067794425592,-0.07028810238169514,-0.08340514712863883,0.8403815527124855,-0.21650460951700862,0.030288564135107797,2.01801477446122
1780494314343155200,1.3425230979919434,-1.7379146814346313,0.18499456346035004,0.7581944465637207,0.03176945075392723,0.2314939796924591,-0.9723174571990967,-0.002884563058614731,0.4559755027294159,0.00590205192565918,0.5271278919279467,-0.0754260791510358,-0.09028940322541654,0.841602656504683,-0.2336131015901232,0.032662329507368824,2.0263036421907934
1780494314353190144,1.3525581359863281,-1.8808181285858154,0.1306152045726776,0.6894239187240601,0.03520425409078598,0.24879500269889832,-0.9679161906242371,-0.11482460796833038,0.13555863499641418,0.13977593183517456,0.5234760765361703,-0.08125366535191297,-0.09715840504691571,0.8425740298231363,-0.25143593361225547,0.036355156572404936,2.0343455286124605
1780494314363225344,1.362593173980713,-2.145768404006958,0.026200376451015472,0.8143972754478455,0.037878040224313736,0.2679218649864197,-0.9626957774162292,-0.05255699157714844,-0.08129161596298218,0.27280014753341675,0.5195167797847525,-0.08719592339423325,-0.10511416982230028,0.8434751472665294,-0.2712353948089556,0.03932551894305912,2.0428670592746423
1780494314373260288,1.3726282119750977,-2.525306463241577,-0.05533429607748985,0.7548338174819946,0.04007181525230408,0.2900894582271576,-0.9561602473258972,0.07726827263832092,-0.12303623557090759,0.20950192213058472,0.5150545950413288,-0.09367508838262431,-0.11465106317255692,0.8442742439833375,-0.2943203043790092,0.04188459046980742,2.052240581451414
1780494314383295232,1.3826632499694824,-2.8077611923217773,-0.30031874775886536,0.6427597403526306,0.04052361845970154,0.3153911530971527,-0.9480960965156555,0.09462347626686096,-0.1678081750869751,0.1844700574874878,0.510711744862353,-0.10025025707073608,-0.1261024313271364,0.8445245292127874,-0.32086882402329964,0.0427160974631387,2.0607217369829605
1780494314393330432,1.3926982879638672,-2.5478811264038086,-0.3425258696079254,0.396461546421051,0.03890036419034004,0.34103772044181824,-0.9392443895339966,0.10102272033691406,-0.13241955637931824,0.11357605457305908,0.5067640522312786,-0.10605603176330586,-0.13831097145044383,0.8442821085776807,-0.34802058243712825,0.04139300112168511,2.0676917083459965
1780494314403364096,1.4027321338653564,-1.4665184020996094,-0.4393043518066406,0.1556452214717865,0.036466751247644424,0.3601283133029938,-0.9321897625923157,0.09445365518331528,0.04154402017593384,-0.13253796100616455,0.5044006600166744,-0.10993362941008564,-0.1477149806116528,0.843608187037459,-0.3684054437215511,0.039099514495816584,2.071117593501053
1780494314413399296,1.4127671718597412,-0.8715247511863708,-0.20254026353359222,0.45870068669319153,0.03398565575480461,0.37021464109420776,-0.9283243417739868,0.03057428076863289,0.34655171632766724,-0.19910180568695068,0.5022734232303587,-0.11130066699690923,-0.153133901572744,0.8437318342990865,-0.379240056127415,0.036593334239446086,2.074703796491397
1780494314423434240,1.422802209854126,-0.6824901103973389,0.4267268776893616,0.5875148773193359,0.03722429275512695,0.3775599002838135,-0.9252366423606873,0.01096295565366745,0.5570714473724365,-0.45868968963623047,0.4995758732443765,-0.11429903908299191,-0.1559403832072235,0.8444182864565537,-0.38715974424513744,0.04021049801637693,2.0810044235027823
1780494314433469184,1.4328372478485107,-0.1686723232269287,0.5313579440116882,0.5441349148750305,0.044239241629838943,0.3812442123889923,-0.9234152436256409,-0.05351659283041954,0.3865627646446228,-0.5200356245040894,0.49735979427161436,-0.11802233684289679,-0.15608682879083088,0.8451869001403249,-0.39114178709441283,0.0478716806770823,2.0872940117986096
1780494314443504384,1.4428722858428955,-0.24928142130374908,0.2408882975578308,0.4725709557533264,0.049882080405950546,0.3823123574256897,-0.9226858019828796,-0.029923584312200546,-0.01288178563117981,-0.19491368532180786,0.4953970142474361,-0.12045794852420598,-0.15539302502599966,0.8461233356006406,-0.3922974534702412,0.054009252927932426,2.092962426845726
1780494314453539072,1.4529070854187012,-0.9159635305404663,0.10473259538412094,0.21137532591819763,0.052809130400419235,0.38759714365005493,-0.9203149676322937,0.019487008452415466,-0.25034433603286743,-0.004108250141143799,0.49368036819388905,-0.1229215707434011,-0.1572666576338431,0.8464261136841982,-0.3980235417380966,0.05731873021374623,2.0971271389834376
1780494314463573248,1.4629411697387695,-1.0454238653182983,-0.019317708909511566,0.01791052334010601,0.05351939797401428,0.396911084651947,-0.9162954092025757,0.049172259867191315,-0.2619318664073944,-0.017252564430236816,0.49264690460160127,-0.12566219614652138,-0.16143515260100413,0.8458409185849126,-0.40814904793423634,0.05834216878542862,2.098863225157503
1780494314473608192,1.4729762077331543,-0.9724337458610535,-0.10288157314062119,0.09780669212341309,0.053191643208265305,0.4061000347137451,-0.9122792482376099,0.074310801923275,-0.10505938529968262,0.003908276557922363,0.49179796191426794,-0.127948863635212,-0.1657994842436579,0.8451475569541134,-0.41818227839396827,0.058240377860129,2.0999338013862765
1780494314483643392,1.483011245727539,-0.7759326696395874,-0.030738409608602524,0.21519456803798676,0.05311458557844162,0.4141685366630554,-0.9086491465568542,0.09307987987995148,0.05563431978225708,0.006503760814666748,0.49042536624501737,-0.1299315441818026,-0.16968564974398218,0.8448713524196385,-0.427029120545,0.05838800680491593,2.102379852477462
1780494314493678336,1.4930462837219238,-0.46469175815582275,0.09385092556476593,0.05461101606488228,0.05433329939842224,0.41971391439437866,-0.9060288071632385,0.08188192546367645,0.11155137419700623,0.007988035678863525,0.4894782263531437,-0.1318621925521804,-0.17204059967862143,0.8446452669304773,-0.4331300905438356,0.05989689020381358,2.1043444961707998
1780494314503713024,1.5030810832977295,-0.14705464243888855,-0.16595295071601868,0.21046052873134613,0.05443244427442551,0.42259159684181213,-0.9046841859817505,4.1425228118896484e-05,0.10948237776756287,0.137792706489563,0.4888280530495809,-0.13259394403892413,-0.17342653980502107,0.8446236466887194,-0.43630288638299386,0.060094899667578416,2.105618524628321
1780494314513748224,1.5131161212921143,0.16959546506404877,0.05330416560173035,0.508687436580658,0.055230479687452316,0.42187798023223877,-0.904968798160553,-0.04158911481499672,0.16035163402557373,0.12115538120269775,0.48713337538028445,-0.13240032434263643,-0.17316391598718692,0.8456864650465225,-0.4355156730615177,0.06095465160033329,2.109881062186884
1780494314523783168,1.523151159286499,-0.3709000051021576,0.4745888113975525,0.3494604825973511,0.0596344955265522,0.4222380518913269,-0.9045212864875793,-0.0796540379524231,0.05081489682197571,-0.27104634046554565,0.48548709825335673,-0.1341396106774602,-0.17247006217729388,0.846500430446645,-0.4359128527044716,0.0658340693016069,2.114731814694449
1780494314533817344,1.5331852436065674,-0.8846383690834045,0.3081264793872833,0.3411988317966461,0.065065898001194,0.42786964774131775,-0.9014953970909119,-0.1686120480298996,-0.12704265117645264,0.06328439712524414,0.4839745323144585,-0.13786756556821317,-0.17391039892742896,0.8464728518336052,-0.4421344536488077,0.07205057606050025,2.1190085824328433
1780494314543852288,1.5432202816009521,-1.3309365510940552,-0.028233174234628677,0.2227342426776886,0.0674891546368599,0.43768423795700073,-0.8965922594070435,0.02366684377193451,-0.18283197283744812,0.29756277799606323,0.48211618315300664,-0.14136735988887292,-0.1780986560758266,0.8460851263474475,-0.4530214848837011,0.07513127309876134,2.1230502439531875
1780494314553887232,1.5532550811767578,-1.2866714000701904,-0.5249817967414856,0.25290676951408386,0.06598495692014694,0.4495833218097687,-0.8907978534698486,0.17890334129333496,-0.15797260403633118,0.27702832221984863,0.4799099701319947,-0.14362097219861142,-0.18432063667862492,0.8456271174939459,-0.4662988134164086,0.07393895939970055,2.1267694359528453
1780494314563922176,1.5632901191711426,-1.4892977476119995,-0.41856321692466736,0.319429874420166,0.06270765513181686,0.4613291621208191,-0.8850102424621582,0.11614061892032623,-0.1622263789176941,0.2226719856262207,0.47726012037610915,-0.1449265501392547,-0.19102659845690426,0.8454158679672547,-0.47949271915243635,0.070737066246552,2.131035119120843
1780494314573957120,1.5733251571655273,-1.7646312713623047,-0.11898703873157501,0.3336716592311859,0.062090322375297546,0.4758700132369995,-0.8773212432861328,0.0005012340843677521,-0.16582664847373962,-0.06719779968261719,0.47434027413629637,-0.14817777797230952,-0.19845083288230328,0.8447851279264298,-0.49595294829569886,0.07065481221171305,2.1362413889836844
1780494314583992320,1.583360195159912,-1.3437916040420532,-0.0765833929181099,0.05900469794869423,0.06239135563373566,0.48964574933052063,-0.8696863651275635,-0.08991821110248566,-0.15527990460395813,-0.023105382919311523,0.4722380849265753,-0.151827149164065,-0.20519586785956476,0.8437027337870211,-0.5116834241830379,0.07161736955400586,2.1397815821492774
1780494314594026240,1.5933942794799805,-0.8324332237243652,-0.2515798509120941,0.15682926774024963,0.06113327294588089,0.4990308880805969,-0.8644251823425293,-0.08425034582614899,-0.058967411518096924,0.023467540740966797,0.470819853800132,-0.15365868909097574,-0.21018189351731392,0.8429360236949913,-0.5224801188759498,0.07060374958957367,2.141711862861665
1780494314604061184,1.6034290790557861,-0.48087817430496216,0.057677075266838074,0.2689054608345032,0.06135357543826103,0.5044053792953491,-0.8612844347953796,0.008775819092988968,0.20206129550933838,-0.2506997585296631,0.4692730078061584,-0.154955769794162,-0.21294712773367777,0.842867140200543,-0.5286931998613276,0.07111484590599085,2.1448158289730888
1780494314614096128,1.613464117050171,-0.30701184272766113,0.26149436831474304,0.17115573585033417,0.06409744918346405,0.5076248645782471,-0.8591906428337097,0.01572127640247345,0.27707362174987793,-0.4379895329475403,0.46816289036413006,-0.1568835902542243,-0.2139911748818925,0.8428635014390564,-0.5324258033271896,0.07446419063410492,2.147881229512819
1780494314624131328,1.6234991550445557,-0.22946056723594666,0.14648017287254333,-0.062382712960243225,0.06627944111824036,0.5098118185997009,-0.8577289581298828,-0.017344504594802856,0.10205036401748657,-0.2380656599998474,0.46797066940824683,-0.15848372293950586,-0.21451905199787052,0.8425366411687735,-0.5349660010484839,0.07711991776691321,2.148731030612201
1780494314634166272,1.6335341930389404,-0.1740037053823471,-0.17629800736904144,-0.18915797770023346,0.06552763283252716,0.5116327404975891,-0.8567019104957581,0.002755463123321533,-0.09032231569290161,0.013562202453613281,0.4683667947943833,-0.15877980915188106,-0.21549484686450424,0.8420116273981723,-0.5370839804108926,0.0763396095493883,2.1473559255340704
1780494314644201216,1.6435692310333252,-0.09052558988332748,-0.24400515854358673,-0.3195130527019501,0.06219949200749397,0.5129510164260864,-0.8561614751815796,0.018550023436546326,-0.14818966388702393,0.06026303768157959,0.46903924788511026,-0.15781684045268735,-0.21682503713856136,0.8414767303378046,-0.5386190289391102,0.07252184400985014,2.144604132978409
1780494314654236416,1.65360426902771,0.15304233133792877,-0.13160470128059387,-0.42616841197013855,0.058532144874334335,0.5129797458648682,-0.8564028143882751,-0.058486368507146835,-0.09757447242736816,-0.059185564517974854,0.47041793640781016,-0.15650022513427483,-0.2175000625040665,0.8407783643223717,-0.5386524495718291,0.06824038920688724,2.1402162601890944
1780494314664270080,1.6636381149291992,0.3164410889148712,0.03814971446990967,-0.32625964283943176,0.05634621903300285,0.511077880859375,-0.8576855659484863,-0.15590982139110565,0.0713958740234375,-0.021266460418701172,0.47228195831583625,-0.15541386968041848,-0.21680346962738745,0.8401147069024386,-0.536438374588383,0.06560139297517116,2.1353609663321915
1780494314674305280,1.673673152923584,0.4081752598285675,0.24434229731559753,-0.09080237150192261,0.05627173185348511,0.5081022381782532,-0.8594565987586975,-0.1564914584159851,0.2559816241264343,-0.11107867956161499,0.47350505039513974,-0.15480574504169814,-0.2151903511462812,0.8399532148264448,-0.5329800010481257,0.06538029823693356,2.132802924550015
1780494314684340224,1.6837081909179688,0.5526869297027588,0.3006122410297394,-0.04821416735649109,0.058508120477199554,0.5039390921592712,-0.8617553114891052,-0.12120647728443146,0.302793025970459,-0.17379766702651978,0.47443332862035814,-0.15482105900060444,-0.2124918483452819,0.8401135892817643,-0.5281532829278456,0.06779008922539403,2.131772733536924
1780494314694375168,1.6937432289123535,0.39972957968711853,0.32668858766555786,-0.031394973397254944,0.06095588952302933,0.4996356666088104,-0.8640882968902588,-0.07749640941619873,0.14329344034194946,-0.11653304100036621,0.475350109556322,-0.1548866657687829,-0.20968061678654487,0.8402895660072078,-0.5231781185047917,0.07042691803976098,2.1308240336794473
1780494314704410368,1.7037782669067383,0.16779650747776031,0.28731322288513184,0.04523402452468872,0.06380920857191086,0.49724116921424866,-0.8652627468109131,0.003268428146839142,-0.04374995827674866,-0.011659860610961914,0.47585352249589513,-0.1556007479070958,-0.20774271834630958,0.8403539855840706,-0.5204160726683139,0.07361222033687846,2.130727072092135
1780494314714445312,1.713813304901123,0.026797570288181305,0.08185791224241257,-0.030019186437129974,0.06558122485876083,0.49630436301231384,-0.865667998790741,0.09329328685998917,-0.19166263937950134,0.18976467847824097,0.4760496670274731,-0.15617868712101748,-0.2068192807676715,0.840363471145386,-0.51933665076218,0.07561350877793477,2.1308731422212683
1780494314724479232,1.7238471508026123,-0.32078278064727783,-0.19932156801223755,-0.13708598911762238,0.0645715519785881,0.4975782632827759,-0.8650123476982117,0.1493871808052063,-0.2799116373062134,0.31594008207321167,0.47624959648750603,-0.15614648085390093,-0.20763453549001282,0.8400550499724134,-0.5208046610182516,0.07450993390462783,2.129962974432247
1780494314734514176,1.733882188796997,-0.4915342926979065,-0.3059758245944977,-0.12019754946231842,0.06160968169569969,0.5013592839241028,-0.863042950630188,0.168645441532135,-0.22766238451004028,0.322057843208313,0.4762006381073976,-0.15591091143929758,-0.21016736376409256,0.8394965538427629,-0.5251690797343475,0.0712656827141252,2.128781714777429
1780494314744549376,1.7439172267913818,-0.642888605594635,-0.23715415596961975,-0.07723090797662735,0.05870698764920235,0.5061442852020264,-0.86044842004776,0.12032439559698105,-0.11179614067077637,0.2236838936805725,0.47590889254329044,-0.1559447534460777,-0.21320650913257663,0.8388891840122835,-0.5307082051236671,0.06812278566983516,2.128043361736736
1780494314754584320,1.7539522647857666,-0.9355037212371826,-0.10794863849878311,-0.00333191454410553,0.05698063597083092,0.5129719376564026,-0.8565120697021484,0.043803662061691284,0.011686205863952637,0.12380033731460571,0.4752656841511094,-0.15704305582765404,-0.21698256696067175,0.8380802624322057,-0.5386434148497152,0.0664284802007364,2.1281984496991764
1780494314764619264,1.7639873027801514,-1.0055217742919922,-0.06949685513973236,0.0021749697625637054,0.05634677782654762,0.5214380621910095,-0.8514266610145569,0.025394555181264877,0.06337028741836548,-0.03848111629486084,0.47436114862855966,-0.15907539497599263,-0.22131803940479847,0.8370752006885928,-0.5485353968288232,0.06608288572501794,2.129060355929402
1780494314774654208,1.774022102355957,-0.9595959782600403,-0.10513554513454437,-0.04390570521354675,0.055476441979408264,0.5298210382461548,-0.8462931513786316,0.009831167757511139,-0.0069939494132995605,-0.1250661015510559,0.4735598173980664,-0.16101449955527006,-0.22567181506277023,0.8359950460752626,-0.5583895325372972,0.06545862282370048,2.1295758570047654
1780494314784689152,1.7840571403503418,-0.6511260271072388,-0.0377274751663208,-0.052816640585660934,0.05460737273097038,0.5369411706924438,-0.8418504595756531,-0.01928327977657318,-0.024200141429901123,-0.11064893007278442,0.4729917300591021,-0.16264361305893035,-0.22939448026687156,0.8349874647960409,-0.5668071022157758,0.06477513457356475,2.1296703097669307
1780494314794724352,1.7940921783447266,-0.12651102244853973,-0.012562333606183529,-0.1301548331975937,0.053980521857738495,0.5401189923286438,-0.8398556709289551,-0.03748577460646629,0.0408746600151062,-0.08935880661010742,0.4730409541444034,-0.16334854468631066,-0.2310615151260813,0.8343620071913522,-0.5705785045626435,0.06418528042661326,2.1288974916866086
1780494314804758272,1.804126262664795,0.008674494922161102,-0.011852334253489971,-0.13370883464813232,0.05317161977291107,0.5405811667442322,-0.8396098613739014,-0.05581140145659447,0.11357831954956055,-0.13071173429489136,0.4735582477422759,-0.1632637172638469,-0.23138716279912147,0.8339949084970213,-0.571127787878337,0.06324450013455145,2.12732430788692
1780494314814793472,1.8141613006591797,0.2331603318452835,0.019036738201975822,-0.1686665415763855,0.052389152348041534,0.5396944880485535,-0.8402292728424072,-0.09140586853027344,0.11760830879211426,-0.14321494102478027,0.4742606418587774,-0.16282587663699602,-0.2310261822947685,0.8337814852472157,-0.5700742000461511,0.06227040741878444,2.12550929105331
1780494314824828160,1.8241961002349854,0.4847680628299713,0.08352465182542801,-0.23572227358818054,0.05171217769384384,0.5367631316184998,-0.8421467542648315,-0.16072097420692444,0.036768972873687744,-0.13343918323516846,0.47545334550819995,-0.16193990206770356,-0.22956933016420505,0.8336771378838358,-0.5665960518145549,0.06132817765023069,2.1228491859837866
1780494314834863104,1.8342311382293701,0.7167850732803345,0.15832272171974182,-0.34768903255462646,0.0512058325111866,0.5318692922592163,-0.8452768921852112,-0.1680423766374588,0.04155600070953369,-0.21748250722885132,0.47729016633039667,-0.16070185481412358,-0.22701644703895557,0.8335661942184026,-0.5608064589683193,0.060504825475216635,2.1189827091267297
1780494314844898304,1.8442661762237549,1.214306354522705,0.16613350808620453,-0.3955093026161194,0.0506233386695385,0.524008572101593,-0.8502072095870972,-0.1186470165848732,0.15372580289840698,-0.23409759998321533,0.4798480799551456,-0.15870810007626132,-0.2229531791267795,0.8335763902343969,-0.5515506494587733,0.059472138470409136,2.1137821804786068
1780494314854933248,1.8543012142181396,1.6695146560668945,0.28513050079345703,-0.2627038359642029,0.050780631601810455,0.5116673707962036,-0.8576816320419312,-0.04400573670864105,0.2932489514350891,-0.20761066675186157,0.48264573140600164,-0.15574004783920892,-0.21657380337366888,0.8342024977260079,-0.5371242973150778,0.059137814672279486,2.108843968105371
1780494314864967424,1.864335298538208,1.9049333333969116,0.2596520185470581,-0.15107370913028717,0.0522473081946373,0.49616774916648865,-0.8666532039642334,0.0378863625228405,0.31099167466163635,-0.1361086368560791,0.4851814890680501,-0.1523474084592392,-0.20847937878027212,0.8354194568742239,-0.5191792912206126,0.060213412760367735,2.105278403518661
1780494314875002112,1.8743700981140137,1.6567234992980957,0.19060996174812317,-0.14262428879737854,0.0534946545958519,0.48026037216186523,-0.8754931688308716,0.0668666809797287,0.08840417861938477,0.09283936023712158,0.48738068437125337,-0.14867186277024064,-0.20037486430372278,0.8367835328613384,-0.50095152380891,0.06102643860131801,2.102387419656446
1780494314885037056,1.8844051361083984,1.0363051891326904,0.12639474868774414,-0.13924607634544373,0.054242730140686035,0.46849024295806885,-0.8818019032478333,0.07814252376556396,-0.09803736209869385,0.14280349016189575,0.48914308166025644,-0.14592111387114706,-0.19443784583598114,0.8376395203437568,-0.48758111812704424,0.061436097466171125,2.099803566745111
1780494314895072256,1.8944401741027832,0.6449851989746094,0.010036186315119267,0.012243050150573254,0.05453628674149513,0.46110305190086365,-0.8856691122055054,0.09977585077285767,-0.08338698744773865,0.20122087001800537,0.4901110791369969,-0.144089710009469,-0.19079726053341445,0.8382277605123328,-0.4792378827257463,0.061498718788410775,2.098436287356377
1780494314905107200,1.904475212097168,0.05948441103100777,-0.03493927791714668,0.13194549083709717,0.054739631712436676,0.4578278362751007,-0.8873540759086609,0.10596592724323273,-0.06732490658760071,0.2637273669242859,0.4900058722037003,-0.14319171070903777,-0.18925933880065265,0.8387915876847611,-0.4755503956751649,0.06161052596380945,2.0991161454407012
1780494314915142400,1.9145102500915527,-0.2961309552192688,-0.00042577553540468216,0.13845717906951904,0.055305350571870804,0.4590925872325897,-0.8866652846336365,0.076210156083107,-0.11018511652946472,0.2619094252586365,0.489303641202193,-0.14365909442347002,-0.1898141711170864,0.8389962357997028,-0.47697351294046997,0.06229384748120838,2.1007900549138543
1780494314925177344,1.9245452880859375,-0.4942091703414917,-0.07104028761386871,0.17389719188213348,0.05573998764157295,0.46234655380249023,-0.8849456310272217,0.04669226333498955,-0.15054845809936523,0.21897578239440918,0.488378960327016,-0.14460226413514954,-0.19135667428419095,0.8390226050166562,-0.4806397742730355,0.06290381009360282,2.10273366617064
1780494314935211264,1.9345791339874268,-0.7839533090591431,-0.1020919531583786,0.28683730959892273,0.0559663251042366,0.46793225407600403,-0.8819904923439026,0.05150133743882179,-0.13278821110725403,0.2308064103126526,0.4868320522313206,-0.14599565624660268,-0.19413920310288102,0.8390410514253863,-0.48694961975793916,0.06336960676802766,2.1058355584142645
1780494314945246208,1.9446141719818115,-0.8311626315116882,-0.12615786492824554,0.21842311322689056,0.05620432645082474,0.4750192165374756,-0.8781787157058716,0.06783436983823776,-0.16373994946479797,0.21078979969024658,0.48497389406470687,-0.1477635224593187,-0.19767801118535366,0.8389813363998565,-0.49498587967331015,0.06391384118068182,2.1094989868286724
1780494314955281152,1.9546492099761963,-0.9529916048049927,-0.175509974360466,0.03668501228094101,0.055502742528915405,0.4827320873737335,-0.874007523059845,0.0678645670413971,-0.22856643795967102,0.08009272813796997,0.4836815429708422,-0.14942671994550435,-0.20166281530156197,0.8384842602172253,-0.503771685280754,0.0634185762027362,2.111468189944014
1780494314965316352,1.964684247970581,-0.7191871404647827,-0.2778206467628479,0.0649494081735611,0.0537128709256649,0.4902825653553009,-0.8699068427085876,0.0754527747631073,-0.08415466547012329,0.003634929656982422,0.4826054842604545,-0.15060540489467772,-0.20582659147604346,0.8378814690475181,-0.5124139250944642,0.06166725475585261,2.1126065810026136
1780494314975351296,1.9747192859649658,-0.3060719966888428,-0.15850874781608582,0.0352836549282074,0.05201994627714157,0.49454575777053833,-0.8675934672355652,0.04400360956788063,0.09302440285682678,-0.09752494096755981,0.4817486832995414,-0.15090172902246388,-0.20840332246693685,0.8376842301526145,-0.5173121431031628,0.05988719821137189,2.1136295903660756
1780494314985386240,1.9847540855407715,-0.16808882355690002,-0.05611580237746239,0.061503276228904724,0.051278598606586456,0.4965684413909912,-0.8664815425872803,-0.08164360374212265,0.1577436625957489,-0.21176546812057495,0.4812917587427479,-0.15105751057179936,-0.2096207478177281,0.8376150043195907,-0.5196408597930691,0.059111310086975025,2.1142463489195924
1780494314995421184,1.9947891235351562,0.13629451394081116,0.06614646315574646,0.08730504661798477,0.05177723616361618,0.4967602789402008,-0.8663419485092163,-0.16395984590053558,0.2143450677394867,-0.2061067819595337,0.4809292080540026,-0.15125017627578918,-0.20964832343084913,0.8377816324802148,-0.5198618965579753,0.05969435073950506,2.11523134597256
1780494315005455360,2.0048232078552246,0.5447938442230225,0.1532858908176422,0.06279171258211136,0.053122762590646744,0.493805855512619,-0.8679479956626892,-0.12792134284973145,0.2605123817920685,-0.3034692406654358,0.4810057216627783,-0.15099554542515523,-0.20790944824798713,0.8382168838764139,-0.5164610479314056,0.061128750887098716,2.115813022158792
1780494315015490304,2.0148582458496094,1.0223503112792969,0.14515991508960724,0.18174979090690613,0.05505197122693062,0.48686009645462036,-0.871743381023407,-0.042890723794698715,0.31302088499069214,-0.23323708772659302,0.4812883627915029,-0.14987042225224453,-0.20412537986931936,0.839185973213242,-0.5084914251137703,0.06306782969726968,2.1165472341379434
1780494315025525248,2.024893283843994,1.1550427675247192,0.095732182264328,0.24547924101352692,0.05721157044172287,0.476854145526886,-0.8771185278892517,0.05196506530046463,0.284986674785614,-0.11947876214981079,0.4812902006270903,-0.14789042515983988,-0.19891995258318246,0.8407847135061216,-0.49707223896298786,0.06513445672060192,2.118326997673415
1780494315035560192,2.0349280834198,0.8716923594474792,0.0710192397236824,0.16990672051906586,0.05889444053173065,0.4677160978317261,-0.8819144368171692,0.06047507002949715,0.11266720294952393,-0.09649437665939331,0.4812404635538431,-0.14596149032452935,-0.1942627527475909,0.8422380203942291,-0.48670505802144665,0.06668121133045987,2.1199301116940816
1780494315045595136,2.0449631214141846,0.6705403327941895,0.12946417927742004,0.1862737089395523,0.060549020767211914,0.46084538102149963,-0.8854125142097473,-0.023607492446899414,-0.048766523599624634,-0.043527305126190186,0.4811457895613444,-0.14468803520236964,-0.1906806634935034,0.8433296393411494,-0.47894753429191583,0.06827879326324451,2.121330933442388
1780494315055629824,2.054997682571411,0.4618443548679352,0.24864356219768524,0.16931869089603424,0.06308809667825699,0.45561733841896057,-0.8879373669624329,-0.09394136071205139,-0.11571255326271057,-0.01863306760787964,0.4809560807952583,-0.1442791419333243,-0.18765619596591596,0.8441860264304701,-0.4730655925310766,0.07093096666141403,2.122971257226166
1780494315065664512,2.065032482147217,0.2352226823568344,0.3619946241378784,0.059284862130880356,0.06635771691799164,0.4524913430213928,-0.8892964720726013,-0.09473906457424164,-0.1271434724330902,-0.06215006113052368,0.4810055055517036,-0.14486551520875496,-0.18537998810969783,0.8445602439871708,-0.469557090309779,0.07448019149738211,2.123982374382509
1780494315075698688,2.075066566467285,0.3655892014503479,0.35933610796928406,0.06191739812493324,0.06993712484836578,0.44998565316200256,-0.8902930617332458,-0.023687757551670074,-0.12709444761276245,-0.03431326150894165,0.4813363856602347,-0.1458335037213493,-0.18326503432926036,0.8446666247862235,-0.466749280449128,0.07839418851544117,2.124320166431624
1780494315085733632,2.08510160446167,0.5086063146591187,0.14170128107070923,0.09004384279251099,0.07258652150630951,0.4457746148109436,-0.8921973705291748,0.04911758005619049,-0.2214857041835785,0.20254594087600708,0.4815578434059189,-0.14586713617256214,-0.1806213759533183,0.845104005093519,-0.46203943524207614,0.0811782299591837,2.1248307516346796
1780494315095768576,2.0951366424560547,0.016100985929369926,-0.0026553738862276077,0.017932360991835594,0.07343733310699463,0.4430953860282898,-0.8934615254402161,0.06860672682523727,-0.3304550051689148,0.37121421098709106,0.48161177806022215,-0.14549402091952085,-0.1791667906106716,0.8454471455421204,-0.45904856630612856,0.08200982932471401,2.125150091804489
1780494315105803776,2.1051716804504395,-0.3151155710220337,-0.07863588631153107,0.10993631929159164,0.0732562318444252,0.44468238949775696,-0.8926875591278076,0.0724804550409317,-0.16558387875556946,0.2915370464324951,0.48119780150557767,-0.14577946234454844,-0.1800126828100909,0.8454539599162277,-0.46081962478885724,0.08187909729661018,2.125942395961246
1780494315115838464,2.115206480026245,-0.37629422545433044,-0.08051887899637222,0.1366904377937317,0.07318910211324692,0.4476509988307953,-0.8912081122398376,0.10100522637367249,0.11457434296607971,0.13618797063827515,0.48029425596168335,-0.14640790424920347,-0.1815507100471065,0.8455302631673226,-0.4641366909228786,0.08193958941086968,2.1277927987425582
1780494315125873664,2.12524151802063,-0.4684374928474426,-0.039863333106040955,0.042486973106861115,0.0729934573173523,0.4514031410217285,-0.8893296122550964,0.10567169636487961,0.22233343124389648,-0.022566139698028564,0.479532872662662,-0.1472331001574369,-0.18346011395585168,0.8454069462729273,-0.46833716876054077,0.08189338306867333,2.1292005450638674
1780494315135908608,2.1352765560150146,-0.44452470541000366,0.04580923169851303,0.007980926893651485,0.07317549735307693,0.4554486870765686,-0.8872495889663696,0.09268753975629807,0.1622423529624939,-0.12095963954925537,0.4791189508086003,-0.1483901706273156,-0.18535249955795466,0.8450266269601353,-0.4728761364505187,0.08228829694758785,2.1298476717933035
1780494315145942784,2.145310640335083,-0.4019830822944641,0.0437716469168663,-0.08370238542556763,0.07345487177371979,0.4593753516674042,-0.885199785232544,0.07510469108819962,-0.08007237315177917,-0.12828898429870605,0.47894012944309255,-0.14961147475929495,-0.18712700742104124,0.8445212432040891,-0.4772918210063419,0.08279143955005094,2.129969402726962
1780494315155977728,2.1553456783294678,-0.33677107095718384,-0.004197876900434494,-0.3392827808856964,0.07269663363695145,0.46253517270088196,-0.8836154937744141,0.028362303972244263,-0.36407023668289185,-0.016607224941253662,0.47959452996460056,-0.15032904132174943,-0.18866219522639888,0.8436804503522355,-0.4808525142910358,0.08208692083310412,2.1279247428714707
1780494315166012416,2.1653804779052734,-0.6289970278739929,-0.02175476774573326,-0.49879175424575806,0.07046164572238922,0.46708351373672485,-0.8814012408256531,-0.032116301357746124,-0.47462135553359985,-0.035255253314971924,0.48100900713935607,-0.1509595080016304,-0.19107746506177464,0.8422179303375508,-0.4859894813482476,0.07977310494752986,2.1235481507972542
1780494315176047616,2.175415515899658,-0.6447057127952576,0.07135027647018433,-0.588309645652771,0.06815200299024582,0.47335395216941833,-0.878231942653656,-0.054953157901763916,-0.25277289748191833,-0.1549864411354065,0.48282969987579705,-0.15217126452744392,-0.19423681934502882,0.8402329239061294,-0.49309443614747367,0.07744616140187847,2.1179681233266847
1780494315186082560,2.185450553894043,-0.37609609961509705,0.09452617168426514,-0.6233581900596619,0.06596963852643967,0.4781879782676697,-0.8757763504981995,-0.046667277812957764,0.061255961656570435,-0.16122615337371826,0.4850835785094094,-0.15314032587462356,-0.19662109284458834,0.8382016977087602,-0.4985903543436719,0.07518504335603853,2.1114925051302857
1780494315196117760,2.1954855918884277,-0.291890412569046,0.0778176337480545,-0.625511884689331,0.06376533210277557,0.4814475476741791,-0.8741523027420044,0.009095385670661926,0.2696358263492584,-0.0630425214767456,0.4875796053133835,-0.15370619766194693,-0.198237866743631,0.8362669112879016,-0.5023055252924298,0.0728163651208275,2.1045672761962484
1780494315206152704,2.2055206298828125,-0.18143658339977264,-0.1429019719362259,-0.4467863440513611,0.060995448380708694,0.483833372592926,-0.8730319738388062,0.0772644430398941,0.3194045424461365,0.07749974727630615,0.48964691037878993,-0.15366626132656086,-0.1996764896049978,0.8347225925300864,-0.5050296331828967,0.06975287810577603,2.0985830536301764
1780494315216186624,2.2155544757843018,-0.09188566356897354,-0.460840106010437,-0.42348554730415344,0.05617940053343773,0.4853692650794983,-0.8725024461746216,0.09215128421783447,0.13296261429786682,0.21255987882614136,0.4909565665794923,-0.15227605920148962,-0.20139704402978603,0.8337942390462203,-0.5067854544956755,0.06430005151499878,2.093929051619121
1780494315226221568,2.2255895137786865,-0.24479559063911438,-0.40667808055877686,-0.597728967666626,0.04982071742415428,0.4868030846118927,-0.8720898032188416,-0.01721269264817238,-0.1310749650001526,0.14690065383911133,0.4925807148385925,-0.1502471352688749,-0.20342293677925027,0.8327118787864519,-0.5084261504985895,0.05706593982967715,2.0880756325820866
1780494315236256512,2.2356245517730713,-0.4860803782939911,-0.20251043140888214,-0.42163917422294617,0.0444408655166626,0.49030983448028564,-0.8704144358634949,-0.1778331995010376,-0.22813335061073303,0.03328675031661987,0.4941268885289068,-0.149281686834329,-0.20617412934272378,0.831291614668541,-0.5124452234151501,0.05101283934431905,2.082363595532635
1780494315246291712,2.245659589767456,-0.5617852210998535,0.046646393835544586,-0.5936274528503418,0.041612498462200165,0.4951840341091156,-0.8677909970283508,-0.19947993755340576,-0.2621212899684906,-0.06357496976852417,0.49564634914229333,-0.14988707898799433,-0.2088980018366358,0.8295963960385457,-0.5180466379248617,0.04791550894736797,2.0771995120975326
1780494315256326656,2.255694627761841,-0.5212322473526001,0.04295578598976135,-0.9176049828529358,0.03820611536502838,0.5001617670059204,-0.8650887608528137,-0.13894464075565338,-0.2590423822402954,-0.10082316398620605,0.4984497437256704,-0.15061252314639897,-0.2115927688084332,0.8270986807754023,-0.5237855550350348,0.04413570863941142,2.068695748554106
1780494315266361600,2.2657296657562256,-0.5044745206832886,0.0733344629406929,-1.0265167951583862,0.0338272824883461,0.5050184726715088,-0.8624454140663147,0.0026412270963191986,-0.10951066017150879,-0.0685238242149353,0.5022321876923231,-0.15115095936051157,-0.2143144672113239,0.824005784037791,-0.5294033705524656,0.03920242564673877,2.057467992296189
1780494315276396544,2.2757644653320312,-0.3292151391506195,-0.15353569388389587,-1.0010205507278442,0.028470806777477264,0.5088774561882019,-0.860368013381958,0.18031519651412964,0.008731186389923096,0.05804562568664551,0.5060678460026006,-0.15099256917039644,-0.21683459121744553,0.8210233008919736,-0.5338802940731681,0.03307935717118036,2.0458764516021932
1780494315286430720,2.2857985496520996,-0.5414347052574158,-0.49688029289245605,-0.9848990440368652,0.020675228908658028,0.512538492679596,-0.8584153056144714,0.2816624343395233,0.0031933188438415527,0.32097023725509644,0.5095263155376591,-0.14962752763830958,-0.2200089890300464,0.8182851479473066,-0.5381385290216315,0.02408068871128462,2.0343809632398053
1780494315296465664,2.2958335876464844,-0.9272335171699524,-0.6781139969825745,-0.8744010329246521,0.010493139736354351,0.5191795229911804,-0.8546007871627808,0.31618228554725647,-0.00553816556930542,0.37663447856903076,0.5120853868684991,-0.14796799279879072,-0.2253997990717334,0.8155176739730675,-0.545890684485,0.012277794085977544,2.023627362189623
1780494315306500608,2.305868625640869,-1.4089727401733398,-0.5263122320175171,-0.8084055185317993,0.0008666859939694405,0.5288496017456055,-0.8487151265144348,0.29185792803764343,-0.02103710174560547,0.19893485307693481,0.5139624919558942,-0.1474067170018428,-0.23219321905200782,0.8125270741708622,-0.5572445332405864,0.0010211738416628998,2.0138673235557967
1780494315316535808,2.315903663635254,-1.8570618629455566,-0.47264978289604187,-0.8814866542816162,-0.007571560330688953,0.5430980920791626,-0.8396351337432861,0.21966871619224548,-0.0910869836807251,0.08786511421203613,0.5155515444253268,-0.14887289956700783,-0.2408719539795598,0.8087175577767685,-0.5741223489328219,-0.009017434856294982,2.003865592199834
1780494315326570496,2.3259384632110596,-1.6220240592956543,-0.7894095778465271,-1.0127592086791992,-0.018142063170671463,0.5576372742652893,-0.8298864364624023,0.21656735241413116,-0.1709032654762268,0.13503170013427734,0.5173107263374417,-0.14966787631808212,-0.2503124177101299,0.8045698910351285,-0.5915366913925796,-0.021857417193187244,1.9921038233183188
1780494315336605440,2.3359735012054443,-1.494347095489502,-0.7199212312698364,-1.0841976404190063,-0.03031427040696144,0.5702473521232605,-0.8209134936332703,0.27831536531448364,-0.18177390098571777,-0.04691481590270996,0.5194165271336738,-0.14933819620742375,-0.2593093680850913,0.8004143540993187,-0.6068069112016584,-0.03691071324414766,1.9787840448468055
1780494315346640640,2.346008539199829,-0.874742329120636,-0.7711633443832397,-1.0770713090896606,-0.042801205068826675,0.5799446105957031,-0.8135308027267456,0.2753146290779114,-0.021991729736328125,-0.1569129228591919,0.5218303191554136,-0.148075914773359,-0.2670358081508558,0.7965291208113453,-0.6186606832765905,-0.05256319724549009,1.964844147089258
1780494315356675584,2.356043577194214,-0.24241818487644196,-0.5710193514823914,-1.2269047498703003,-0.05481204017996788,0.583648681640625,-0.8101541996002197,0.23488101363182068,0.1323699951171875,-0.24656271934509277,0.5250860914073663,-0.14528161109214963,-0.27169126223992474,0.7933232666870378,-0.6232149182385114,-0.06755335828017994,1.950461237023714
1780494315366709760,2.3660776615142822,0.13733313977718353,-0.39738765358924866,-1.3985686302185059,-0.066645547747612,0.5832878351211548,-0.8095268607139587,0.2281293272972107,0.2702888250350952,-0.40372997522354126,0.5296289753217787,-0.1416223743359398,-0.27418911354729314,0.7900991940343806,-0.6227705532542712,-0.08214130502872204,1.9340698141249546
1780494315376744448,2.376112461090088,0.6008712649345398,-0.2329808622598648,-1.3700339794158936,-0.07714993506669998,0.5792475342750549,-0.8114925622940063,0.24568328261375427,0.39224904775619507,-0.34358251094818115,0.5349914875207773,-0.13754822508980957,-0.2744707636082418,0.7871025105747579,-0.6178052628774825,-0.094786754524026,1.917384758488584
1780494315386779648,2.3861474990844727,0.8198843002319336,-0.3668728768825531,-1.3274351358413696,-0.08728750050067902,0.5721696019172668,-0.8154770135879517,0.3564067780971527,0.3259474039077759,-0.27021628618240356,0.5403836207129908,-0.1325812995200069,-0.27328316806839054,0.7846807695558509,-0.6091488613815702,-0.10663257949646147,1.9018847916310087
1780494315396814592,2.3961825370788574,0.7185278534889221,-0.5258907675743103,-1.2790601253509521,-0.0983111560344696,0.5644910931587219,-0.8195637464523315,0.4161669909954071,0.13013476133346558,-0.03610336780548096,0.5454362203051721,-0.12693536560725066,-0.2722233418333072,0.78248398646226,-0.5998166074908983,-0.11938503637766244,1.8871382064319908
1780494315406849536,2.406217575073242,0.45286816358566284,-0.6528127789497375,-1.1624817848205566,-0.11013317853212357,0.5583685636520386,-0.8222500681877136,0.48559093475341797,0.023861050605773926,0.1131742000579834,0.5497615286652151,-0.1212958079931312,-0.2723275249236544,0.7803122734503203,-0.5924179382413324,-0.13314874952796213,1.8733692935830437
1780494315416884736,2.416252613067627,0.13427609205245972,-0.7043261528015137,-1.135548710823059,-0.12207875400781631,0.5546028017997742,-0.8231115341186523,0.5688713788986206,-0.02461928129196167,0.06992244720458984,0.5534871945476164,-0.11628155043573483,-0.27372038425181544,0.7779510088014772,-0.5878855480609374,-0.14724039953264206,1.8601857538908095
1780494315426919680,2.4262876510620117,-0.17047394812107086,-0.7010406255722046,-1.2199225425720215,-0.1343824565410614,0.5532121062278748,-0.8221299648284912,0.5315077304840088,-0.11578845977783203,0.08654958009719849,0.5570613556560476,-0.11196570990576186,-0.27640314123621246,0.7750790559691991,-0.5862152126746838,-0.1620236278684122,1.8462431133190862
1780494315436953600,2.436321496963501,-0.6088497042655945,-0.6698372960090637,-1.2824130058288574,-0.1469036340713501,0.5546844005584717,-0.8189899325370789,0.4997173547744751,-0.16062617301940918,0.10554999113082886,0.5607885993282073,-0.10871069853412907,-0.28051204356503323,0.7713696896430999,-0.587983639035597,-0.1774843085473113,1.8304876040086
1780494315446988544,2.4463565349578857,-0.8560366034507751,-0.6994612216949463,-1.246274709701538,-0.15962468087673187,0.5587791204452515,-0.8138094544410706,0.5212274789810181,-0.12169110774993896,0.11221039295196533,0.5634419597676682,-0.10601332332683257,-0.2861056357686445,0.7677486164055246,-0.592912918195793,-0.1936861138253528,1.8160418674195973
1780494315457023744,2.4563915729522705,-1.3766907453536987,-0.8463757038116455,-1.2374788522720337,-0.17279179394245148,0.5654883980751038,-0.8064526319503784,0.5577405691146851,-0.08778148889541626,0.13354003429412842,0.5657390766397639,-0.10405251398581263,-0.29316675702858025,0.763652800689594,-0.6010252799350638,-0.21107022707351578,1.80074548078957
1780494315467058688,2.4664266109466553,-1.6237101554870605,-1.0456621646881104,-1.1227644681930542,-0.18713627755641937,0.5758864283561707,-0.795823335647583,0.5591608285903931,-0.05847620964050293,0.21577578783035278,0.567286849262866,-0.10282435590704983,-0.30251524933615925,0.7590106919350244,-0.6136880097373026,-0.23095221593201137,1.7844472443309953
1780494315477093632,2.47646164894104,-1.463478922843933,-1.0997811555862427,-1.042006015777588,-0.2020888775587082,0.5858914256095886,-0.7847874760627747,0.5123000741004944,-0.0296323299407959,0.25137072801589966,0.5682494274387241,-0.10109184904913696,-0.3120684400669104,0.7546432027673201,-0.6259796164368862,-0.2520322270939673,1.7687976836620347
1780494315487128832,2.486496686935425,-1.3902150392532349,-0.8816585540771484,-1.1189082860946655,-0.21617087721824646,0.5949344038963318,-0.7741596698760986,0.43658408522605896,-0.012018144130706787,0.08177685737609863,0.5693628325413823,-0.09951015918488224,-0.320964004130615,0.7502704547682517,-0.6371840199420478,-0.272297270487525,1.7529676319833716
1780494315497163520,2.4965314865112305,-1.1355127096176147,-0.9686272740364075,-1.1508206129074097,-0.23020735383033752,0.6019448041915894,-0.7646352052688599,0.3236216902732849,0.04208284616470337,-0.02813512086868286,0.570981367001556,-0.09746955902599005,-0.3289104265434445,0.7458538532626654,-0.6459343591319701,-0.29243651141337723,1.7363484425583189
1780494315507197696,2.506565570831299,-1.0906270742416382,-0.7824262380599976,-1.1130669116973877,-0.24367648363113403,0.6080009341239929,-0.7556167840957642,0.22167330980300903,0.04455643892288208,-0.03143155574798584,0.572628709769814,-0.09538475437130875,-0.3362935728382625,0.7415557195445207,-0.6535402492634633,-0.31195718759635177,1.719983512901216
1780494315517232640,2.5166006088256836,-0.9783377051353455,-0.7258696556091309,-1.2490675449371338,-0.25639352202415466,0.6125887632369995,-0.7476612329483032,0.21281442046165466,0.04462254047393799,-0.06731069087982178,0.5748709509145821,-0.09336210165697022,-0.34271402986089716,0.7371254490515408,-0.6593317295356128,-0.3303602191307739,1.7029373788158544
1780494315527267584,2.5266356468200684,-0.9862360954284668,-0.8533703088760376,-1.2047573328018188,-0.2700178325176239,0.6168428063392639,-0.7393208742141724,0.2017500400543213,0.07778304815292358,0.04208576679229736,0.5774207077245816,-0.09109702939360978,-0.34934352356250786,0.732288050743621,-0.6647251154952847,-0.35017264131244596,1.6842276446566984
1780494315537302784,2.536670684814453,-0.8649906516075134,-0.7264647483825684,-1.0670336484909058,-0.28293007612228394,0.620456874370575,-0.731425940990448,0.24099889397621155,0.19268399477005005,0.008159339427947998,0.5796105433934116,-0.08876664025211851,-0.35553834297447473,0.7278493371163308,-0.6693251143863141,-0.3690927884393306,1.6669459899568038
1780494315547337472,2.546705484390259,-0.6556776762008667,-0.6972197890281677,-1.0737085342407227,-0.29474639892578125,0.6228786706924438,-0.7246701121330261,0.21915438771247864,0.22187834978103638,-0.09686309099197388,0.5816975331557857,-0.08637821811248243,-0.36083757964079377,0.7238529097342944,-0.6724169852030643,-0.3862961969475733,1.6512191530199525
1780494315557372672,2.5567405223846436,-0.7311282157897949,-0.6034566164016724,-0.9951090812683105,-0.3058845102787018,0.6249331831932068,-0.7182570695877075,0.15888133645057678,0.1463986039161682,-0.06721961498260498,0.5838159590621396,-0.08417423567025531,-0.36576789072685945,0.7199219395910932,-0.6750459415001676,-0.4026077342268938,1.6358443741014765
1780494315567407616,2.5667755603790283,-0.6801435947418213,-0.5853593945503235,-0.9488478302955627,-0.31625285744667053,0.6268987655639648,-0.7120267748832703,0.17391887307167053,0.06693363189697266,-0.07215291261672974,0.5857225965729626,-0.08217655719986712,-0.37045058337329506,0.7161999989838366,-0.6775662522115953,-0.4179856646314226,1.6213772701914728
1780494315577442560,2.576810598373413,-0.8104557991027832,-0.710796058177948,-0.88165283203125,-0.32650211453437805,0.6289863586425781,-0.7055299282073975,0.17891910672187805,-0.062458038330078125,0.03435683250427246,0.5874678705085651,-0.08025586657681212,-0.375225309432338,0.7124930985264355,-0.680248681847178,-0.43342728533267527,1.6070459036808846
1780494315587476736,2.5868446826934814,-1.0469053983688354,-0.6971308588981628,-0.8360688090324402,-0.33687856793403625,0.6330174207687378,-0.6969947814941406,0.17600515484809875,-0.1437596082687378,0.11449050903320312,0.5886874959107853,-0.07894992600295977,-0.38114238537617784,0.7084802898909964,-0.685444791388139,-0.4502230008283335,1.5919244110388835
1780494315597511424,2.596879482269287,-0.9974930286407471,-0.592451810836792,-0.8036312460899353,-0.3468371033668518,0.6371698975563049,-0.6882721781730652,0.1422472596168518,-0.17389780282974243,0.08266603946685791,0.5899136998347698,-0.07793376117996301,-0.3870274562561905,0.7043705887590263,-0.6908206635037414,-0.46678215947633306,1.5765353755257303
1780494315607546624,2.606914520263672,-1.1604372262954712,-0.44206735491752625,-0.7334263324737549,-0.3551439940929413,0.641870379447937,-0.6796140074729919,0.1031603217124939,-0.1450594663619995,0.04605388641357422,0.5913291004830203,-0.07794712547343306,-0.39257767749221933,0.7000978395714327,-0.6969349364799137,-0.4815379293665647,1.560918244479173
1780494315617581568,2.6169495582580566,-1.1028972864151,-0.5807621479034424,-0.5456662774085999,-0.3628205358982086,0.6472365260124207,-0.6704074144363403,0.11684885621070862,0.004481613636016846,0.14722931385040283,0.5923599670307059,-0.0783645271617637,-0.3983155786549497,0.6959262485286326,-0.7039536336479985,-0.496057329177454,1.5457489932898998
1780494315627616768,2.6269845962524414,-1.0728533267974854,-0.5358066558837891,-0.47322165966033936,-0.3697044253349304,0.6527139544487,-0.6612738370895386,0.1574241816997528,0.11677145957946777,0.10110849142074585,0.592653050264245,-0.07876757554426048,-0.4039291328991708,0.6923866054096137,-0.7111611854174023,-0.5097870519191667,1.5327819587583553
1780494315637651712,2.637019634246826,-0.9210619330406189,-0.49386000633239746,-0.5858307480812073,-0.37655967473983765,0.6575864553451538,-0.6525204181671143,0.15358299016952515,0.1485964059829712,-0.03911471366882324,0.5930505021784263,-0.07901791498011394,-0.4092627148177192,0.6888768676482776,-0.7176106472477972,-0.5233997494208296,1.5197910385914015
1780494315647686656,2.647054672241211,-0.6642271876335144,-0.5197757482528687,-0.468610942363739,-0.38344889879226685,0.6602964997291565,-0.6457363963127136,0.06129011511802673,0.10769355297088623,0.03221100568771362,0.5935844042980819,-0.07833295002105703,-0.41351632637272995,0.6859487993876765,-0.721213483561523,-0.5358603727986426,1.5086043461177072
1780494315657720576,2.6570885181427,-0.6183867454528809,-0.269412100315094,-0.6541469693183899,-0.38983699679374695,0.6622455716133118,-0.6398889422416687,0.011098623275756836,0.027222752571105957,0.011654138565063477,0.5943097443085632,-0.07759588547355742,-0.4171743149383321,0.6831839408341415,-0.7238117452189397,-0.5471757395338595,1.4980267585224538
1780494315667755520,2.667123556137085,-0.6844842433929443,-0.2302684187889099,-0.6216569542884827,-0.39555707573890686,0.6638887524604797,-0.6346544027328491,-0.008571922779083252,-0.10779750347137451,-0.054096758365631104,0.5958762761302829,-0.07748297773367838,-0.42032032568740185,0.6798959981840597,-0.726006874334542,-0.5573497922088816,1.485814441171748
1780494315677790720,2.6771585941314697,-0.7727875113487244,-0.21096371114253998,-0.22378359735012054,-0.3997578024864197,0.6669481992721558,-0.6287875771522522,0.00014537572860717773,-0.15777766704559326,0.0358462929725647,0.5964310372353987,-0.07800509476617204,-0.42369968342627795,0.6772472292374138,-0.7301054264917619,-0.5662992617996473,1.476033163358416
1780494315687825664,2.6871936321258545,-0.5060380697250366,-0.34593191742897034,-0.17925234138965607,-0.4027774930000305,0.6702795624732971,-0.6232941746711731,0.04692727327346802,0.00986570119857788,0.059344589710235596,0.5961942834273071,-0.07858752448050367,-0.42682187894724977,0.6754254253881221,-0.7345854390941171,-0.5737046733111186,1.4692228839511625
1780494315697860608,2.6972286701202393,-0.3144223392009735,-0.24843662977218628,-0.325154185295105,-0.4061168432235718,0.6717054843902588,-0.6195812821388245,0.03920397162437439,0.08674794435501099,-0.006517350673675537,0.5963444246183159,-0.07834048265283688,-0.4290362821874228,0.6739169399662933,-0.7365085175967566,-0.5802108384365329,1.4634147556304866
1780494315707895552,2.707263469696045,-0.2262703776359558,-0.44338294863700867,-0.05226296931505203,-0.40981146693229675,0.6725828051567078,-0.6161875128746033,-0.023370295763015747,0.1325167417526245,0.06682533025741577,0.5961476967967991,-0.07748156580413539,-0.43116454065857795,0.6728311441300955,-0.7376934115889474,-0.5869005217997008,1.4589589280056754
1780494315717930496,2.7172985076904297,-0.15677517652511597,-0.3028940260410309,0.017137406393885612,-0.4119795262813568,0.6737385392189026,-0.6134732365608215,-0.06365221738815308,0.1252574920654297,0.10782742500305176,0.5952429529842388,-0.07681001153507884,-0.4328551905428008,0.6726236767427253,-0.7392563129222114,-0.5913775584665533,1.4577565510029122
1780494315727965696,2.7273335456848145,-0.32907772064208984,-0.05555719882249832,0.03089716099202633,-0.4130675494670868,0.6751163005828857,-0.6112227439880371,-0.1279022991657257,-0.07506442070007324,-0.03233194351196289,0.5947195372782805,-0.07684857340478352,-0.434146214618044,0.6722500382791229,-0.7411223606707095,-0.594302697518092,1.4562078326185095
1780494315737999616,2.737367630004883,-0.5570937991142273,0.0961885154247284,0.1327340453863144,-0.4121706187725067,0.6784292459487915,-0.6081522107124329,-0.1771390736103058,-0.219124436378479,0.07179057598114014,0.5942936017008995,-0.07861198604677423,-0.4355961922806973,0.6714843709424385,-0.7456224995644365,-0.595631353240279,1.4536621911889176
1780494315748034816,2.7474026679992676,-0.3791544735431671,-0.020943433046340942,0.09425056725740433,-0.41110795736312866,0.681674599647522,-0.6052355170249939,-0.09292039275169373,-0.13335001468658447,0.023600995540618896,0.5938663400091094,-0.08040079536542157,-0.43694158968368835,0.6707760784796606,-0.7500489621417009,-0.596665566997653,1.4513439007426279
1780494315758069504,2.7574374675750732,-0.32267069816589355,-0.1095820963382721,0.26512670516967773,-0.41033807396888733,0.6844756007194519,-0.602590799331665,-0.03616458177566528,-0.08422541618347168,-0.014474570751190186,0.5929954055198202,-0.08157685530419008,-0.4382348804400414,0.6705607240439949,-0.7538841470532986,-0.5978303614233582,1.4506407444429024
1780494315768104448,2.767472505569458,-0.2595825493335724,-0.0823906809091568,0.2473365217447281,-0.40901124477386475,0.6874659061431885,-0.6000837683677673,-0.016754746437072754,-0.03655648231506348,0.060929715633392334,0.5916595018572324,-0.08273217391211087,-0.439446813566532,0.6708062745144797,-0.7579938270408082,-0.5982632737828464,1.4516123260096512
1780494315778139648,2.7775075435638428,-0.023264531046152115,-0.03779751807451248,0.09056129306554794,-0.40830475091934204,0.6889067888259888,-0.5989112854003906,-0.06035369634628296,0.003109872341156006,-0.049755096435546875,0.5909001342845965,-0.08323593714825438,-0.4400183395375779,0.6710385150038638,-0.7599797391175486,-0.5983689140659572,1.4524848008601514
1780494315788174592,2.7875425815582275,-0.050457537174224854,-0.0904117226600647,0.464458167552948,-0.4069086015224457,0.6899721026420593,-0.5986350178718567,-0.17226925492286682,-0.0005037188529968262,0.05519324541091919,0.5898766597755883,-0.08358554178572707,-0.4401090139791232,0.6718355668058237,-0.7614505047895749,-0.5969901836803674,1.455458267560866
1780494315798209792,2.7975776195526123,-0.2511938512325287,0.0958058163523674,0.5057307481765747,-0.40311291813850403,0.6931112408638,-0.5975757241249084,-0.19793075323104858,0.041416287422180176,0.03881418704986572,0.5881354619608271,-0.08535534933751647,-0.44037097987157187,0.6729669580822562,-0.7657963519170256,-0.5934614019632346,1.4600589128580834
1780494315808243456,2.8076114654541016,-0.17507348954677582,0.006048768758773804,0.4891073405742645,-0.3993712067604065,0.6964375972747803,-0.5962192416191101,-0.20682993531227112,-0.025218725204467773,0.013486087322235107,0.5865354902872756,-0.08730974019826175,-0.4407577409195773,0.6738589197036471,-0.7704212445924005,-0.5901959872188024,1.4638752398754225
1780494315818278656,2.8176465034484863,-0.2678026556968689,0.13532033562660217,0.5238757133483887,-0.3954550325870514,0.6997161507606506,-0.5949895977973938,-0.2073129117488861,-0.22748714685440063,0.0280187726020813,0.5847733256051529,-0.08919780525441923,-0.4410770447663633,0.6749332722852754,-0.775000091531705,-0.5865995780546377,1.4684121722723744
1780494315828313600,2.827681541442871,0.1088748648762703,0.20132091641426086,0.4324062168598175,-0.39094796776771545,0.7023380398750305,-0.5948789119720459,-0.23762255907058716,-0.2755039930343628,0.058563053607940674,0.58358963856754,-0.09131049811968435,-0.44070731385760936,0.6759160970818122,-0.7786767062378882,-0.5814125211181943,1.472866074142569
1780494315838348544,2.837716579437256,0.42739343643188477,0.23251906037330627,0.5879327058792114,-0.38620930910110474,0.702473521232605,-0.5978071093559265,-0.27882975339889526,-0.11371314525604248,0.02378666400909424,0.5824230420836879,-0.09218009627307565,-0.4388613485634175,0.6780021426907226,-0.778866986769816,-0.5735887380116281,1.481269773740313
1780494315848383744,2.8477516174316406,0.6586362719535828,0.3974353075027466,0.6539050936698914,-0.3798544406890869,0.7018319368362427,-0.602613091468811,-0.2753884494304657,0.08422458171844482,-0.14697492122650146,0.5812054908881622,-0.09315949048172864,-0.4359068275291392,0.6808132710674669,-0.7779659351166743,-0.5624340344158103,1.492623408005757
1780494315858418688,2.8577866554260254,0.709424614906311,0.48539552092552185,0.7047027349472046,-0.3723330795764923,0.6998326182365417,-0.609592080116272,-0.2651028335094452,0.09354811906814575,-0.011730551719665527,0.5802326776131981,-0.09400915637045085,-0.43170157366425044,0.6841974641402346,-0.7751631348097895,-0.5483159693103645,1.5062523408692503
1780494315868453376,2.867821455001831,0.31286126375198364,0.3960784375667572,0.8611543774604797,-0.3640556335449219,0.69964599609375,-0.614783763885498,-0.19098281860351562,0.0343780517578125,0.10268354415893555,0.5787630838966803,-0.0958036362283777,-0.42828702744154706,0.6873320023569642,-0.7749018845169865,-0.5346412015835162,1.519278386620697
1780494315878488576,2.877856492996216,-0.1516999900341034,0.04662788659334183,0.9329792857170105,-0.35629093647003174,0.7020149827003479,-0.6166292428970337,-0.12422353029251099,-0.059024930000305176,0.12213772535324097,0.5761707735196968,-0.0980913517316333,-0.4266889390181582,0.6901752252284802,-0.7782229902532457,-0.5239391170301833,1.5313674308014664
1780494315888522752,2.887890577316284,-0.9206550121307373,0.010486394166946411,0.7967602014541626,-0.35014110803604126,0.708970844745636,-0.6121777296066284,-0.19781723618507385,-0.1770647168159485,-0.03148376941680908,0.5727548117949725,-0.10171158033405575,-0.42844590460177073,0.6914049983393632,-0.7880378758722767,-0.5195465722880951,1.5378542973515117
1780494315898557696,2.897925615310669,-0.33657318353652954,0.24184490740299225,0.8928308486938477,-0.34356191754341125,0.7156007289886475,-0.6081782579421997,-0.43195077776908875,-0.11219191551208496,0.04035294055938721,0.5700806828634718,-0.10580134734784905,-0.4297870906677932,0.6921684351898852,-0.7974837373936818,-0.5142132654607636,1.54299374883382
1780494315908592640,2.9079606533050537,-0.14168331027030945,0.4842498302459717,1.0232599973678589,-0.33402031660079956,0.7203456163406372,-0.6078919172286987,-0.5032446980476379,-0.05056107044219971,0.11980903148651123,0.5673627308582616,-0.10995058702545059,-0.4289113016962689,0.6942949338863342,-0.8043004754311117,-0.502438644181966,1.5538829360548176
1780494315918627584,2.9179954528808594,0.7880523204803467,0.12309056520462036,0.9370784759521484,-0.3252123296260834,0.7213951945304871,-0.6114130616188049,-0.35084354877471924,0.19304871559143066,0.12473398447036743,0.5647551335453745,-0.11202423798915041,-0.4263144992000747,0.6976805606682479,-0.8058148778688985,-0.4888429683464003,1.5687966669916091
1780494315928662528,2.928030490875244,1.505048155784607,0.41722607612609863,1.1087071895599365,-0.3160405158996582,0.7182239294052124,-0.6198974251747131,-0.2403254210948944,0.1430126428604126,-0.22989505529403687,0.5623844483142333,-0.1122676456657465,-0.4212448899903524,0.7026183659267913,-0.8012464571365622,-0.47147837015665417,1.588838359010128
1780494315938697472,2.938065528869629,1.0030572414398193,0.48028531670570374,1.0169415473937988,-0.3052791953086853,0.712677001953125,-0.6315822601318359,-0.2576633393764496,-0.0468292236328125,-0.020761489868164062,0.5602986551982211,-0.11218959916516019,-0.41427328879785386,0.7084183977849664,-0.7933070024692901,-0.4502440991035721,1.6119862714228053
1780494315948732672,2.9481005668640137,0.609889805316925,-0.028053276240825653,0.6773925423622131,-0.2976946234703064,0.7109707593917847,-0.6371017098426819,-0.17616704106330872,0.03689301013946533,-0.008787572383880615,0.5581404457336648,-0.11290984615838141,-0.4107316823069404,0.7120605504594045,-0.7908776936796105,-0.4371174858616534,1.627078164746328
1780494315958767616,2.9581356048583984,0.5405493378639221,-0.11475101858377457,0.6238701939582825,-0.2937958240509033,0.7090652585029602,-0.6410230994224548,-0.18452143669128418,0.13643956184387207,-0.5200181007385254,0.5560690789459333,-0.11225315332702875,-0.40851887822054733,0.71505167249948,-0.7881716771606706,-0.4297539808653561,1.6386350534629879
1780494315968801792,2.968169689178467,0.3351993262767792,0.20591966807842255,0.7805495858192444,-0.28851839900016785,0.7086570858955383,-0.6438651084899902,-0.44704678654670715,-0.13399583101272583,0.25147008895874023,0.5537707893726944,-0.11273936416891871,-0.40664145537750906,0.7178234722367053,-0.7875930505651312,-0.42127590880453375,1.6501953697602156
1780494315978836480,2.9782044887542725,0.325571209192276,0.39192643761634827,0.5809834599494934,-0.2818244397640228,0.7078894376754761,-0.6476631164550781,-0.6431938409805298,-0.29083627462387085,0.0447121262550354,0.5520612391894226,-0.11395267112935663,-0.4039594287638548,0.7204581262300374,-0.7865055837908612,-0.410428252981796,1.6616591473681908
1780494315988871680,2.9882395267486572,0.038641978055238724,0.5564722418785095,0.7469024062156677,-0.274318665266037,0.7087209224700928,-0.6499722599983215,-0.6951026916503906,-0.3297841548919678,-0.13989901542663574,0.5508686979909485,-0.11655190965289368,-0.40178294662736586,0.7221701667206656,-0.7876835032269037,-0.3993665678606225,1.6705068980709834
1780494315998906624,2.998274564743042,0.5595185160636902,1.357789397239685,1.1573224067687988,-0.26135170459747314,0.7095615863800049,-0.6543833613395691,-0.5335701704025269,-0.11375170946121216,0.39838671684265137,0.5491779841265957,-0.12101245977208583,-0.39769875272701355,0.7249793956052356,-0.7888757991407191,-0.37997716664369163,1.6852574705701926
1780494316008941568,3.0083096027374268,-0.3691857159137726,0.669489860534668,0.6273717284202576,-0.24729780852794647,0.7108348608016968,-0.6584509015083313,-0.31521743535995483,-0.21370351314544678,0.027530550956726074,0.5483043045144864,-0.12659903632197164,-0.39337923907495087,0.7270404707259172,-0.790684442196157,-0.3592748326529435,1.698002248317298
1780494316018976768,3.0183446407318115,-0.44017493724823,0.23542018234729767,0.5354585647583008,-0.2403136044740677,0.7151301503181458,-0.6563827395439148,-0.1824921816587448,-0.16183120012283325,-0.18544471263885498,0.5467807609552146,-0.13052349806237942,-0.39341105002300364,0.727476627150694,-0.7968103038230951,-0.35096115620344115,1.7035440696500048
1780494316029011712,3.0283796787261963,-0.6529103517532349,-0.2926100790500641,0.36898383498191833,-0.2374613881111145,0.7197688817977905,-0.6523379683494568,0.0846293568611145,0.028308510780334473,-0.14174461364746094,0.5446423926938989,-0.13267153895653586,-0.3952584825451278,0.7276906050237796,-0.8034693055742473,-0.3491061548378759,1.7070121122460662
1780494316039046400,3.038414478302002,-0.8751844167709351,-0.4152040481567383,0.24156518280506134,-0.23751185834407806,0.7257392406463623,-0.6456707119941711,-0.13445162773132324,0.0861809253692627,0.27701836824417114,0.5422828253188722,-0.13419835981960598,-0.39894291218945077,0.7271620802438087,-0.8121083205636165,-0.35249007211419453,1.7071954449643
1780494316049080576,3.0484485626220703,-0.25326818227767944,-0.23003660142421722,0.2917018532752991,-0.23787552118301392,0.7305940985679626,-0.6400371193885803,-0.4583677649497986,0.034405291080474854,-0.17896318435668945,0.5402332050264167,-0.13524998262054277,-0.4021055783951192,0.7267507196032246,-0.8191916246549942,-0.35583833549048866,1.7073017361732064
1780494316059115264,3.058483123779297,-0.12435784935951233,0.3929429352283478,0.36066731810569763,-0.23496994376182556,0.7315342426300049,-0.6400365829467773,-0.692184567451477,-0.12745404243469238,0.06951045989990234,0.5390741680373995,-0.13620705790369994,-0.4017827273774041,0.7276107113750727,-0.8205695130447985,-0.35184397250590377,1.7119788014302353
1780494316069149952,3.0685179233551025,-0.24906516075134277,0.25837475061416626,0.1804341971874237,-0.2306581437587738,0.733998715877533,-0.638782262802124,-0.7102903127670288,-0.09540313482284546,0.11566519737243652,0.5385623579514316,-0.13881448001425528,-0.4016707851429776,0.7275587895534992,-0.8241912038962377,-0.3465205497607988,1.7144428310769877
1780494316079184896,3.0785529613494873,0.24790571630001068,-0.009975604712963104,0.020775018259882927,-0.2289450317621231,0.7344509363174438,-0.6388787031173706,-0.4572274684906006,0.04974400997161865,-0.4165412187576294,0.5385246076878514,-0.13968998816852837,-0.40130705278228973,0.7276198617899283,-0.8248573177191254,-0.3440980580283657,1.7155378372666283
1780494316089220096,3.088587999343872,0.32933133840560913,0.17830722033977509,0.1363048106431961,-0.22798418998718262,0.7329351902008057,-0.6409595608711243,-0.24459578096866608,-0.044428110122680664,-0.007752597332000732,0.5386146266251461,-0.1393916643617702,-0.40011271250902525,0.7282678331075424,-0.8226265808787294,-0.34173661530888444,1.7177429158361526
1780494316099255040,3.098623037338257,-0.23383374512195587,0.21095263957977295,-0.1895960569381714,-0.22670073807239532,0.7317759990692139,-0.6427367925643921,-0.27165132761001587,-0.09095269441604614,0.21101993322372437,0.5390110788544038,-0.1395626709348416,-0.3989409110821006,0.7285845354989609,-0.820924173907713,-0.339088455783299,1.718982479432556
1780494316109290240,3.1086580753326416,-0.30859217047691345,-0.2066161036491394,-0.41384196281433105,-0.22954459488391876,0.733771026134491,-0.6394445896148682,-0.26880744099617004,0.12102633714675903,-0.49738097190856934,0.5399543548095274,-0.13991344487896637,-0.4008764385423835,0.7267542024492595,-0.8238559821636269,-0.34464782480338846,1.7118216218705988
1780494316119325184,3.1186931133270264,0.38710540533065796,-0.09834062308073044,-0.08941593021154404,-0.23227116465568542,0.7324489951133728,-0.6399754881858826,-0.23649409413337708,0.312259316444397,-0.39046579599380493,0.5405581314611133,-0.13853196999946887,-0.4010251143283107,0.726487919935293,-0.8219121007041099,-0.34815370167804555,1.709235425930917
1780494316129359104,3.1287269592285156,-0.733372688293457,-0.010103169828653336,-0.368791401386261,-0.23392704129219055,0.7329062819480896,-0.638847827911377,-0.30385369062423706,-0.1021842360496521,0.40027666091918945,0.5411809175158184,-0.13844424753440213,-0.4017577235342078,0.7256357207115808,-0.8225840498758394,-0.35100709604911323,1.7055919650763698
1780494316139394048,3.1387619972229004,-0.03747968375682831,-0.14355097711086273,-0.5646546483039856,-0.23822101950645447,0.7347608804702759,-0.6351199150085449,-0.41935649514198303,-0.21953260898590088,0.06338834762573242,0.5424439579918695,-0.1383606883240125,-0.40409944840565964,0.7234048775312102,-0.8253140735044793,-0.35884113456249,1.6963110727635828
1780494316149428992,3.148797035217285,0.006103745196014643,0.09693140536546707,-0.40116772055625916,-0.24210111796855927,0.7329975962638855,-0.6356898546218872,-0.40569552779197693,-0.0545613169670105,-0.2937535047531128,0.5442277367493576,-0.13698037809826294,-0.4042170919786072,0.7222610787195796,-0.822718270604264,-0.3638876797727775,1.6899336960101405
1780494316159464192,3.15883207321167,-0.05946487933397293,0.17347452044487,-0.4144371747970581,-0.243840754032135,0.7325186133384705,-0.6355769634246826,-0.370722234249115,0.17356348037719727,0.3081386685371399,0.5459036627902986,-0.1370074255853992,-0.40427774045634984,0.7209559810258926,-0.8220144133601469,-0.36633485474137395,1.6842935876250007
1780494316169499136,3.1688671112060547,0.21257436275482178,-0.05572644621133804,-0.6651900410652161,-0.24733389914035797,0.730691134929657,-0.6363303661346436,-0.23772773146629333,0.26314425468444824,-0.28768080472946167,0.548120445143389,-0.13600044214181473,-0.40415182921533443,0.7195339286242459,-0.8193337720263267,-0.37071667219336596,1.6771186013038866
1780494316179534080,3.1789019107818604,0.1578509360551834,-0.14497110247612,-0.5600002408027649,-0.2527969479560852,0.7276319265365601,-0.637687623500824,-0.13427278399467468,0.0028368234634399414,-0.36258697509765625,0.5502589849272332,-0.1335930228736506,-0.4041151791637434,0.7183723969912437,-0.8148633999484869,-0.37742286669719366,1.6698139877266267
1780494316189569024,3.188936948776245,-0.5345466732978821,-0.12192277610301971,-0.6756120324134827,-0.2580011487007141,0.7271255254745483,-0.6361790895462036,-0.2008306384086609,-0.2971329092979431,0.3127538561820984,0.5519897419189043,-0.13232270371321148,-0.40546413782780416,0.7165170789541816,-0.8141254722619025,-0.3852799478804252,1.6609572561931205
1780494316199603968,3.19897198677063,-0.540071964263916,-0.14346055686473846,-0.8415091633796692,-0.26458540558815,0.7290191650390625,-0.6312888860702515,-0.31805619597435,-0.3687744140625,0.11213910579681396,0.5541353555407874,-0.1319735661771973,-0.4085811181083341,0.7131468898378097,-0.816887890326862,-0.39687918336940325,1.646825025490565
1780494316209638144,3.2090060710906982,-0.27214759588241577,0.15982182323932648,-0.6749944686889648,-0.27000826597213745,0.7292910218238831,-0.6286733150482178,-0.35541898012161255,-0.18214136362075806,-0.09756875038146973,0.556624770906211,-0.13149259076403086,-0.4103328317149797,0.7102855139899021,-0.8172851348675962,-0.4056667069944247,1.6345509882914537
1780494316219673088,3.219041109085083,-0.5135271549224854,0.03634808585047722,-0.7843891382217407,-0.27442067861557007,0.73001629114151,-0.6259149312973022,-0.25701242685317993,0.10480731725692749,0.20262086391448975,0.5591450493833899,-0.13166699306034452,-0.411954300880638,0.707328917309685,-0.818345762460747,-0.4131918329473513,1.6224717324352502
1780494316229708288,3.2290761470794678,0.07017461210489273,-0.2987707853317261,-0.8087895512580872,-0.28141510486602783,0.7291702032089233,-0.6237918734550476,-0.08693203330039978,0.2809310555458069,-0.13943743705749512,0.5615818142532316,-0.13006074378451732,-0.4137490508408205,0.7046429510642896,-0.81710859921968,-0.4237984251409554,1.6100782467627985
1780494316239742976,3.2391109466552734,0.19134443998336792,-0.24112027883529663,-0.6418551802635193,-0.28841736912727356,0.7258902192115784,-0.6244187355041504,-0.05522581934928894,0.08473294973373413,-0.3829970359802246,0.5636616640334562,-0.12702417337229588,-0.4143132745266527,0.7032033051344213,-0.8123278244893665,-0.43270362726169187,1.6017110098140763
1780494316249777920,3.249145984649658,-0.26611554622650146,-0.18011271953582764,-0.6591556072235107,-0.2943549156188965,0.7243478298187256,-0.6234383583068848,-0.16107416152954102,-0.10252165794372559,0.026850223541259766,0.565480179651978,-0.12513318537894583,-0.41547863595153417,0.7013924448581031,-0.8100879671934267,-0.4411184519302328,1.5928732361273485
1780494316259813120,3.259181022644043,-0.11538193374872208,-0.03195267543196678,-0.6852090358734131,-0.3000839650630951,0.723625659942627,-0.6215428113937378,-0.18682396411895752,-0.05872398614883423,0.11237233877182007,0.5674947093033759,-0.12387541956929898,-0.4169933775210783,0.6990858945563123,-0.8090410792758975,-0.4497971984857122,1.582579420234229
1780494316269848064,3.2692160606384277,-0.20430462062358856,0.18164122104644775,-0.6056212782859802,-0.30428582429885864,0.7224693894386292,-0.6208446621894836,-0.16203799843788147,-0.048961758613586426,0.07781487703323364,0.5698249651501898,-0.1231536495448609,-0.4176252630033068,0.6969373807238274,-0.8073672104371244,-0.4557091223312775,1.5733665653376117
1780494316279883264,3.2792510986328125,-0.24633222818374634,0.0669371485710144,-0.7673472762107849,-0.30823463201522827,0.7219441533088684,-0.6195062398910522,-0.10337117314338684,-0.09001672267913818,0.13922065496444702,0.5723252156014743,-0.1229680470911715,-0.4184802661461597,0.6944039565372965,-0.8066078551118351,-0.46168476282405596,1.5630442440170846
1780494316289916928,3.2892849445343018,-0.16259658336639404,-0.03577404469251633,-0.9271026253700256,-0.31447404623031616,0.7204375267028809,-0.6181227564811707,-0.05089765787124634,-0.08970022201538086,-0.10842442512512207,0.575214655397108,-0.12171113092728424,-0.41967250393861716,0.6915123940598565,-0.8044329931187195,-0.4706283171072249,1.55061669991267
1780494316299952128,3.2993199825286865,-0.22146576642990112,0.11899462342262268,-0.8597789406776428,-0.3207356035709381,0.7189589738845825,-0.616625189781189,-0.1420482099056244,-0.02268517017364502,-0.13914263248443604,0.5783013527847168,-0.12061172692118488,-0.42088030453011827,0.6883894636224293,-0.8023034045392918,-0.4796348526735661,1.5374897799903677
1780494316309987072,3.3093550205230713,0.4448517858982086,0.1452328860759735,-0.7767333388328552,-0.325761079788208,0.7156394124031067,-0.6178509593009949,-0.198012113571167,0.1946999430656433,-0.12592339515686035,0.581449438501583,-0.11903301990314538,-0.42060153775023296,0.6861792248299818,-0.7975391637359224,-0.48520814487206915,1.527862992649813
1780494316320022016,3.319390058517456,0.5637667775154114,0.12146510928869247,-0.713533341884613,-0.33045342564582825,0.7095972299575806,-0.6223121285438538,-0.11693426966667175,0.16760003566741943,-0.22625958919525146,0.5846252832537613,-0.11616323490834247,-0.4187481750353742,0.6851054307562974,-0.7889264156777521,-0.48814606431481666,1.5221354422780524
1780494316330057216,3.329425096511841,0.6110541224479675,0.12140465527772903,-0.5339905023574829,-0.3340384066104889,0.7039880156517029,-0.6267529129981995,-0.02988368272781372,0.07607179880142212,0.09225285053253174,0.5873757253934608,-0.11366115106113393,-0.41677892559705476,0.6843729425020112,-0.7809972691128668,-0.4896718026615832,1.518069834708441
1780494316340092160,3.3394601345062256,0.32988178730010986,0.07560321688652039,-0.5856432914733887,-0.33710962533950806,0.6989052295684814,-0.6307841539382935,0.05566126108169556,-0.041419267654418945,0.29725754261016846,0.5897432710919914,-0.1113917979329907,-0.41496962622132216,0.6838091913006638,-0.773865641292759,-0.49081030460786457,1.514848645346042
1780494316350127104,3.3494949340820312,-0.11870822310447693,-0.11515741795301437,-0.6585054993629456,-0.34173330664634705,0.6962708830833435,-0.6312093734741211,0.09562429785728455,-0.186947762966156,0.0733633041381836,0.5919529176081777,-0.10978314644360616,-0.4151421264539916,0.6820531369913277,-0.7701889660948694,-0.4962123467090649,1.507360536902715
1780494316360162048,3.359529972076416,-0.18067918717861176,-0.1974676102399826,-0.5996240973472595,-0.3471267521381378,0.6951553821563721,-0.6294934749603271,0.05745390057563782,-0.09327244758605957,0.02927374839782715,0.5936269218647773,-0.10839474445936793,-0.41653791890086017,0.6799660971539198,-0.7686360582358553,-0.5039467116902011,1.4986844860965336
1780494316370196992,3.369565010070801,0.006892839912325144,-0.1575324386358261,-0.6269281506538391,-0.35267022252082825,0.6935136318206787,-0.6282218098640442,-0.014883488416671753,0.06306284666061401,-0.01543968915939331,0.5953042591965685,-0.10669974301303504,-0.4177370800365622,0.6780293638822688,-0.7663547232746382,-0.5115371114223394,1.4905057632795022
1780494316380231168,3.379599094390869,0.3556992709636688,-0.059884171932935715,-0.4900147616863251,-0.35718387365341187,0.690591037273407,-0.6288908123970032,-0.09099727869033813,0.18648415803909302,0.05023181438446045,0.597117559169224,-0.10477362921289134,-0.4178242063948941,0.6766801651651184,-0.7623059581253576,-0.5165262679716907,1.4846153394870494
1780494316390266112,3.389634132385254,0.41049835085868835,-0.00609950628131628,-0.3797529637813568,-0.36033862829208374,0.6862528920173645,-0.6318331360816956,-0.07992321252822876,0.0787312388420105,0.20168787240982056,0.5986907094347673,-0.10241755757743676,-0.4166462182315117,0.6763772301519847,-0.7563248403489384,-0.5182999345150966,1.4826257472431799
1780494316400301056,3.3996689319610596,0.2136888951063156,-0.0071329474449157715,-0.496553897857666,-0.36338141560554504,0.682813286781311,-0.6338137984275818,-0.06177416443824768,-0.05849999189376831,-0.05916410684585571,0.6003486173330871,-0.10063036429499153,-0.41589258019882547,0.6756392196792294,-0.7516064161770885,-0.5205747305662828,1.47927660882627
1780494316410336000,3.4097039699554443,0.38883912563323975,0.21274109184741974,-0.28644511103630066,-0.3657614588737488,0.6792000532150269,-0.6363221406936646,-0.07446989417076111,-0.013199687004089355,-0.27330005168914795,0.6020506982749676,-0.09900534350213068,-0.4147732749273922,0.6750526000065754,-0.7466721341915062,-0.5216880742824987,1.4766405670755007
1780494316420370944,3.419739007949829,0.10112613439559937,0.4440086781978607,-0.18284441530704498,-0.36491429805755615,0.6769742369651794,-0.6391739845275879,-0.01931723952293396,-0.16742229461669922,0.10284286737442017,0.603626547375089,-0.0990934627194102,-0.41302963505991674,0.6747014221630431,-0.7436437902441084,-0.518759197346178,1.4756578763656398
1780494316430406144,3.429774045944214,-0.30310922861099243,0.4010990262031555,-0.3636957108974457,-0.36395391821861267,0.67638099193573,-0.6403485536575317,0.02829107642173767,-0.3096970319747925,0.08532536029815674,0.6053917563750638,-0.10018165120555125,-0.41205503066687776,0.673554116623916,-0.7428380662216119,-0.5168361916313797,1.4721000453402961
1780494316440441088,3.4398090839385986,-0.5630978941917419,0.33890020847320557,-0.5102134943008423,-0.36471834778785706,0.6778935790061951,-0.638310968875885,0.10931673645973206,-0.1603611707687378,-0.11957782506942749,0.6074096617616203,-0.10195972459154133,-0.4128543605811625,0.6709762631419779,-0.7448936034805309,-0.5191097526850129,1.4634159833404579
1780494316450476288,3.4498441219329834,-0.17997664213180542,0.12074977904558182,-0.4079664945602417,-0.3663037419319153,0.6786105632781982,-0.6366390585899353,0.23616155982017517,0.327279269695282,0.0681728720664978,0.6092703001513525,-0.1029694168750102,-0.413615503204245,0.6686622679196517,-0.7458693132977507,-0.5221131942017081,1.4553921530828111
1780494316460510976,3.459878921508789,0.22501026093959808,-0.2673606872558594,-0.46101799607276917,-0.3696883022785187,0.6767480373382568,-0.6366652846336365,0.3207533657550812,0.5600378513336182,0.1355208158493042,0.6105572492013248,-0.10168696971859581,-0.41391681790315066,0.6674971568463491,-0.7433364687902587,-0.5260801632649421,1.4506858814582797
1780494316470545152,3.4699130058288574,0.18108594417572021,-0.24010294675827026,-0.40136638283729553,-0.374519944190979,0.6738840341567993,-0.6368791460990906,0.1456381380558014,0.5018208026885986,-0.057044804096221924,0.6116219086695052,-0.0992782911971101,-0.41437212634611176,0.6666019154376325,-0.7394532621487562,-0.5315900995475209,1.44653686220154
1780494316480580096,3.479948043823242,1.4014315605163574,-0.054210178554058075,-0.06081651151180267,-0.37708574533462524,0.6685121655464172,-0.6410130858421326,-0.11568155884742737,0.360357403755188,-0.18840885162353516,0.6124069236890725,-0.09611303253681304,-0.41262057803300156,0.667431104159671,-0.7322064348416139,-0.5317463439893653,1.448675245011713
1780494316490615040,3.489983081817627,1.7597891092300415,0.37708157300949097,-0.19506965577602386,-0.37667056918144226,0.6566497087478638,-0.6533991098403931,-0.17990905046463013,-0.26890861988067627,0.13524115085601807,0.6139023747756305,-0.09101861987528231,-0.4062216657856165,0.6706887723291908,-0.7163679256944532,-0.5229447050024209,1.4594755348444755
1780494316500650240,3.5000181198120117,0.606381893157959,0.5486842393875122,-0.2262914925813675,-0.3751617670059204,0.6481167078018188,-0.6627203822135925,-0.2454437017440796,-0.7297054529190063,0.1809089183807373,0.616210030875624,-0.08855979948152509,-0.40099496584994965,0.6720456713708344,-0.7051088611797156,-0.5151151297675178,1.4642003572942939
1780494316510684928,3.5100529193878174,0.4572261869907379,0.5208158493041992,-0.11586245149374008,-0.3725041151046753,0.6441921591758728,-0.6680248379707336,-0.11748611927032471,-0.3612789511680603,-0.08142590522766113,0.6180783641079591,-0.08856316400077716,-0.39767343540727074,0.6723031446377679,-0.6999666159881642,-0.5086747958830914,1.465576907079671
1780494316520720128,3.520087957382202,0.32826924324035645,0.2596171200275421,-0.18434856832027435,-0.37087878584861755,0.6409211158752441,-0.6720632910728455,0.23872241377830505,0.11593008041381836,-0.27747589349746704,0.6195277091166521,-0.08831196747776791,-0.3951826801928423,0.6724708775817895,-0.6956976408768456,-0.5042632009470391,1.4664288389364093
1780494316530755072,3.530122995376587,0.16459645330905914,0.13317902386188507,-0.1293308585882187,-0.370692640542984,0.6388243436813354,-0.6741591095924377,0.410792738199234,0.38305675983428955,0.036463797092437744,0.6205735759242801,-0.08794033804987325,-0.39393773760102935,0.6722857368043854,-0.6929691841890101,-0.5027351517202288,1.4658445742883808
1780494316540790016,3.5401580333709717,0.6196268200874329,0.00498736510053277,-0.052697330713272095,-0.3707599937915802,0.6358790397644043,-0.6769009828567505,0.3492756485939026,0.424927294254303,0.1777859926223755,0.6211608178305045,-0.08679675769091531,-0.3924485057161225,0.6727628112826023,-0.6891469120060264,-0.5010999096455843,1.4673283200019471
1780494316550824192,3.55019211769104,0.575534462928772,0.0410098135471344,-0.049883436411619186,-0.3710944652557373,0.631351113319397,-0.6809439659118652,0.1238410472869873,0.13923299312591553,0.10860204696655273,0.6216500851689818,-0.0847329862651245,-0.390318244730391,0.673812436905892,-0.6832942307834671,-0.49897368245768847,1.4705712005379286
1780494316560858880,3.5602269172668457,0.45156508684158325,0.39004597067832947,0.26491257548332214,-0.36908063292503357,0.6283676028251648,-0.6847872734069824,-0.16516008973121643,-0.0968429446220398,0.05188322067260742,0.6219501821839021,-0.08410469370075849,-0.38798550331132287,0.6749604498982477,-0.6794530015235238,-0.49433638109408634,1.4746100346466382
1780494316570894080,3.5702619552612305,0.5893248319625854,0.4708627760410309,0.33278802037239075,-0.36386367678642273,0.6257373094558716,-0.6899681687355042,-0.21539050340652466,-0.2534991502761841,0.09344106912612915,0.6219262964711137,-0.08453629435131323,-0.38453807369746884,0.6768986550655355,-0.6760763887545042,-0.48529761170647717,1.4818063036047258
1780494316580929024,3.5802969932556152,-0.16446399688720703,0.416904479265213,0.11404930800199509,-0.35949012637138367,0.6248777508735657,-0.6930328607559204,-0.024054765701293945,-0.44027698040008545,0.17778939008712769,0.6221543423209805,-0.0857046168721588,-0.38228037621194183,0.6778202576045846,-0.674974956952197,-0.47851135902090697,1.4856069637088576
1780494316590963968,3.59033203125,-0.07212048023939133,0.29536551237106323,0.10083523392677307,-0.356302946805954,0.6266480088233948,-0.6930804252624512,0.1494700312614441,-0.14933782815933228,0.030848979949951172,0.6224188243246286,-0.0877740089997453,-0.3817794114145177,0.6775949618458547,-0.6772444543648933,-0.47485279968891975,1.4855894715132354
1780494316600999168,3.6003670692443848,0.13053809106349945,0.13061706721782684,0.10744094103574753,-0.35412105917930603,0.6264435052871704,-0.6943823099136353,0.30791744589805603,0.2417052984237671,0.061920762062072754,0.6225300505392843,-0.0884660813514463,-0.38076579432397534,0.6779730782927065,-0.6769820693674776,-0.4715996473460577,1.4872414300933026
1780494316611034112,3.6104021072387695,-0.07548805326223373,0.02202294021844864,0.18140996992588043,-0.35284215211868286,0.626821756362915,-0.6946920156478882,0.25808507204055786,0.38282179832458496,0.019887328147888184,0.6221651884516773,-0.08887203273493466,-0.38046781284903564,0.6784221823341788,-0.6774674627505394,-0.4699568496509558,1.488963180447278
1780494316621069312,3.6204371452331543,-0.011673121713101864,-0.014121747575700283,0.13719777762889862,-0.35175949335098267,0.6278952360153198,-0.694271445274353,0.07629260420799255,0.2685586214065552,-0.15457499027252197,0.6215861018134745,-0.08942922170465926,-0.38061357438064275,0.6787977899853295,-0.6788459258096952,-0.4689613235659834,1.4904424809915648
1780494316631104000,3.63047194480896,0.29173043370246887,0.04729154333472252,0.03458990156650543,-0.3511613607406616,0.6270042657852173,-0.6953785419464111,-0.02418959140777588,-0.08095329999923706,-0.027765929698944092,0.6213569199600326,-0.08907103880848793,-0.3799698297784243,0.6794150957285359,-0.6777017252831594,-0.467634078719824,1.4925113595708583
1780494316641138176,3.6405060291290283,0.3271501958370209,0.12276007235050201,-0.06470339745283127,-0.35066884756088257,0.6249582171440125,-0.6974658370018005,-0.08751776814460754,-0.14532870054244995,-0.011045575141906738,0.6217276447255706,-0.0884575970014402,-0.3787378315698717,0.6798438158565844,-0.6750780027695977,-0.46586569700999453,1.4938939927092734
1780494316651173120,3.650541067123413,1.2955375909805298,0.20851172506809235,0.08682354539632797,-0.3496655225753784,0.6196272373199463,-0.7027062773704529,-0.0943957269191742,0.2498185634613037,-0.23532778024673462,0.6223974234369818,-0.08661350203157132,-0.37569265459888795,0.6811567562005589,-0.6682676734633137,-0.46172451255661756,1.4980510433022445
1780494316661208064,3.660576105117798,1.9971191883087158,0.4159119129180908,0.3637329041957855,-0.3459179699420929,0.6081892848014832,-0.7144553661346436,0.028779327869415283,0.24592137336730957,-0.14475172758102417,0.6228766755052947,-0.0827471267300708,-0.36868038394161373,0.6850198319804192,-0.6537774652958205,-0.4509037345924638,1.5105407027379352
1780494316671243264,3.6706111431121826,0.904287576675415,0.4043945372104645,0.18173567950725555,-0.3409939110279083,0.5981203317642212,-0.725241482257843,0.08229640126228333,-0.2450472116470337,0.05383950471878052,0.6233120785719917,-0.08000262304483954,-0.36190998090549403,0.6885512409335856,-0.6411535924985371,-0.43950816184121033,1.5221207185039842
1780494316681277952,3.6806459426879883,0.22161953151226044,0.23504026234149933,0.12015220522880554,-0.33798182010650635,0.5951412916183472,-0.729092001914978,0.08518946170806885,-0.43602263927459717,0.2931331396102905,0.6235996239939194,-0.07982680979700774,-0.3592794013761492,0.6896879345385346,-0.637441433618568,-0.43407748216437697,1.5260881455462283
1780494316691313152,3.690680980682373,0.13353706896305084,0.3376558721065521,0.11685574799776077,-0.3351154923439026,0.594158947467804,-0.7312131524085999,0.11589246988296509,-0.09975892305374146,0.11849653720855713,0.6237623304692571,-0.08045260737131145,-0.35766015903230747,0.6903094340670421,-0.636219646338372,-0.42973527663247907,1.5285127913502368
1780494316701348096,3.700716018676758,0.1087222695350647,0.27411508560180664,0.13891124725341797,-0.33216601610183716,0.593792736530304,-0.7328546047210693,0.08634695410728455,0.30627739429473877,-0.1768285632133484,0.6239426935352252,-0.08139865180617337,-0.3562961534592832,0.6907407902983816,-0.6357644292759477,-0.4255529636494417,1.5303899664119804
1780494316711383040,3.7107510566711426,0.2901948392391205,0.16764912009239197,0.14728422462940216,-0.3295881450176239,0.5929144620895386,-0.7347272038459778,0.0738508403301239,0.3138695955276489,0.05285769701004028,0.6239196180361462,-0.08188081717865282,-0.3548688925803639,0.6914390090621559,-0.634673326626263,-0.4216772042930224,1.533016865832583
1780494316721417216,3.720785140991211,0.4497362971305847,0.08988920599222183,0.16882866621017456,-0.32788601517677307,0.5904263257980347,-0.737487256526947,0.04152438044548035,-0.022692620754241943,0.1698603630065918,0.6237742417468201,-0.08127233942596027,-0.3530597307222273,0.6925671550781166,-0.6315869692720563,-0.41835329857533887,1.536727816342283
1780494316731451904,3.7308199405670166,0.45585545897483826,0.27996593713760376,0.3179608881473541,-0.32504478096961975,0.5880211591720581,-0.7406598329544067,-0.06078895926475525,-0.1228722333908081,-0.22918879985809326,0.6234079851471029,-0.0809938829294695,-0.35087044511907317,0.6940406322404421,-0.6286101569375753,-0.4135500257284415,1.541744440250566
1780494316741487104,3.7408549785614014,0.6566556692123413,0.1396447718143463,0.40082594752311707,-0.32133427262306213,0.5849776268005371,-0.7446780800819397,-0.009644091129302979,0.06939548254013062,-0.2642940878868103,0.6227947743493869,-0.08062284297383703,-0.34808178515799465,0.696035656675163,-0.6248524863100842,-0.4073697576771103,1.5485163771194268
1780494316751522048,3.750890016555786,0.6157287359237671,0.20051585137844086,0.5762296915054321,-0.31728318333625793,0.5817477107048035,-0.7489331960678101,0.15778306126594543,0.023019075393676758,0.33285653591156006,0.6215969898596931,-0.08001970761649008,-0.34515250640042316,0.6986298959403721,-0.6208758069633673,-0.4007239730965809,1.5572396697288
1780494316761556992,3.760925054550171,0.16620686650276184,0.3074473738670349,0.38750186562538147,-0.3123479187488556,0.5799689888954163,-0.7523794174194336,0.14553886651992798,-0.19773632287979126,0.3921194076538086,0.6204718276769468,-0.08042908026148941,-0.3425513735125512,0.700859864443369,-0.6186906061083762,-0.39349539654893734,1.5650842826952909
1780494316771592192,3.7709600925445557,-0.2144017219543457,0.21513687074184418,0.2641698122024536,-0.3084847331047058,0.5815761089324951,-0.7527326345443726,0.04679650068283081,-0.23787188529968262,0.05651986598968506,0.6198201909006311,-0.08218676621016872,-0.34187572244854725,0.7015620405780285,-0.6206647934546281,-0.38894292581831497,1.5682000141287709
1780494316781627136,3.7809951305389404,-0.22838997840881348,0.19459804892539978,0.26270508766174316,-0.3054032027721405,0.5838882327079773,-0.7521990537643433,0.0616593062877655,0.031193554401397705,-4.398822784423828e-05,0.6191635671299346,-0.08397680916729672,-0.3418309182615345,0.701951545328215,-0.6235099448376469,-0.3856799239390711,1.5702742409036667
1780494316791662080,3.791029930114746,-0.09698694944381714,0.16799572110176086,0.33048173785209656,-0.30238640308380127,0.5862142443656921,-0.7516084909439087,0.07280266284942627,0.21650487184524536,-0.02350747585296631,0.6183582489643854,-0.08568056046760919,-0.34184002098305544,0.7024509141852668,-0.6263780110123943,-0.3825039656380083,1.5727180448866647
1780494316801697024,3.801064968109131,0.26984110474586487,0.2367236614227295,0.39374271035194397,-0.298753559589386,0.5865389704704285,-0.7528069615364075,-0.008161723613739014,0.11658602952957153,0.05142146348953247,0.617473202428028,-0.08669104746041409,-0.3407068720554812,0.7036550194224778,-0.6267789370829814,-0.37779031878372693,1.5773296620819253
1780494316811731200,3.811099052429199,0.5135078430175781,0.2281075417995453,0.502035915851593,-0.2942763864994049,0.5850294828414917,-0.7557393312454224,-0.07523044943809509,-0.0875319242477417,0.07936298847198486,0.6164528602412835,-0.0871456164573738,-0.33843165747277937,0.7055887664863754,-0.624916407568879,-0.3713254173912605,1.584236398985185
1780494316821766144,3.821134090423584,0.7499454021453857,0.21809937059879303,0.4559863805770874,-0.2896409332752228,0.5816127061843872,-0.7601544260978699,-0.05313250422477722,-0.1317378282546997,-0.16654229164123535,0.6153685443798059,-0.08681785339106124,-0.3352393748029679,0.7080951638507984,-0.6207098087841942,-0.36404591007926046,1.5927685343758462
1780494316831801088,3.8311691284179688,0.8634072542190552,0.09732262045145035,0.33156776428222656,-0.28626617789268494,0.5763629674911499,-0.765413224697113,0.043880313634872437,-0.0560535192489624,-0.17855650186538696,0.6146134462591504,-0.08542973624760418,-0.3316551758237889,0.7106032005464521,-0.6142710573511645,-0.3578955415096132,1.600794074699087
1780494316841836032,3.8412039279937744,0.75179523229599,0.14978408813476562,0.35137128829956055,-0.2833286225795746,0.5710942149162292,-0.7704389691352844,0.12042582035064697,0.15858101844787598,0.0414961576461792,0.6139533760809985,-0.08395064716576049,-0.32822674350504977,0.7129380440223013,-0.6078382289213536,-0.3523990358497293,1.608150992637997
1780494316851870976,3.851238965988159,0.7622777223587036,0.1179279014468193,0.35629841685295105,-0.2802988588809967,0.5663338303565979,-0.7750474214553833,0.11408489942550659,0.3275412917137146,0.0926743745803833,0.6132215580429045,-0.08271545957940771,-0.32501451919425534,0.7151803797566328,-0.6020507240643989,-0.3470188935524432,1.6152792291026097
1780494316861906176,3.861274003982544,0.8730273842811584,0.2465970665216446,0.41273054480552673,-0.2768678665161133,0.5609051585197449,-0.7802112698554993,0.01641559600830078,0.17682677507400513,0.07435494661331177,0.6124444429213498,-0.08135537579420372,-0.3213653036327035,0.7176472273561814,-0.595478710757809,-0.34100024309363003,1.6230891684109348
1780494316871941120,3.8713090419769287,0.42488420009613037,0.3855155408382416,0.3646508753299713,-0.2720108926296234,0.5565968155860901,-0.7849904894828796,-0.08643332123756409,-0.1250324845314026,-0.014875233173370361,0.6118553996002739,-0.0810986086830911,-0.31769130317475236,0.719811308169005,-0.5902838082342791,-0.3335666648075074,1.6303062002732256
1780494316881976064,3.8813440799713135,0.24624231457710266,0.2535184919834137,0.4316866397857666,-0.2673395276069641,0.5553557872772217,-0.7874703407287598,-0.08695429563522339,-0.20835566520690918,-0.08109045028686523,0.6110779532629153,-0.08197353323442949,-0.31550777638700134,0.7213314560091288,-0.5887907546968401,-0.3272826511063321,1.6358694324843461
