time,seconds_elapsed,rotationRateX,rotationRateY,rotationRateZ,gravityX,gravityY,gravityZ,accelerationX,accelerationY,accelerationZ,quaternionW,quaternionX,quaternionY,quaternionZ,pitch,roll,yaw
1781515344691537408,0.038672447204589844,-0.12912976741790771,-0.023123934864997864,0.10206380486488342,0.09244479238986969,-0.5464988350868225,-0.8323418498039246,0.008919350802898407,-0.06823194026947021,0.01631706953048706,-0.5857148300654689,-0.2128843331224113,0.1962379611462537,0.7570396505155963,0.5781778375932113,0.1106125586567727,-1.857538114389017
1781515344701571328,0.0487062931060791,-0.17940065264701843,-0.050812553614377975,0.08597591519355774,0.09161171317100525,-0.545263946056366,-0.8332433700561523,0.02852073311805725,-0.09830600023269653,0.013831138610839844,-0.5861919445237865,-0.21217941937433632,0.1958525298318478,0.756968012485174,0.5767039394278426,0.10950610275608406,-1.8562402787337182
1781515344711604480,0.058739423751831055,-0.1223141998052597,-0.043345049023628235,0.11074171215295792,0.09066183120012283,-0.5440577864646912,-0.8341351747512817,0.007711581885814667,-0.04238319396972656,0.005964457988739014,-0.5866806789329316,-0.21143953794995907,0.19551399837149305,0.7568839846756884,0.5752657795791648,0.10826461947415428,-1.8548719287982796
1781515344721638400,0.06877350807189941,-0.03317607194185257,-0.018476452678442,0.12433262169361115,0.08975841850042343,-0.5435476303100586,-0.8345654010772705,-0.02129223197698593,0.021056175231933594,-0.002058744430541992,-0.5871762989331222,-0.21098906499590644,0.19545053839874735,0.7566417360421501,0.574657846137134,0.1071392531653124,-1.8533748007980215
1781515344731672320,0.07880735397338867,0.011467297561466694,-0.0022041378542780876,0.12268439680337906,0.08898773044347763,-0.5436049699783325,-0.8346105813980103,-0.03608551621437073,0.03690636157989502,-0.002272963523864746,-0.5876471163215369,-0.21080686050380032,0.1955892886734217,0.7562910733736197,0.5747261452483529,0.10622055605650083,-1.8518809126338793
1781515344741705472,0.08884048461914062,0.00420565577223897,0.0034540146589279175,0.10528143495321274,0.08836679905653,-0.5437998175621033,-0.834549605846405,-0.0389130637049675,0.011115491390228271,0.007569074630737305,-0.5880701563032328,-0.21072888632665068,0.19575116824061672,0.7559420188046297,0.5749583106694771,0.10549253220528211,-1.8505337172413785
1781515344751739136,0.09887433052062988,-0.026528820395469666,0.01763121969997883,0.08832588791847229,0.08792281895875931,-0.5438022613525391,-0.8345949053764343,-0.03801131993532181,-0.021947860717773438,0.022461116313934326,-0.5884548662486634,-0.21064193917967147,0.19578691580999258,0.7556575562070615,0.574961251663019,0.10496074872002947,-1.8493774200281878
1781515344761773312,0.10890841484069824,-0.039094679057598114,0.0441720187664032,0.08979382365942001,0.08768384158611298,-0.5435885787010193,-0.8347592353820801,-0.042914554476737976,-0.026784956455230713,0.030529499053955078,-0.5888593853102071,-0.21056348188813953,0.19566141641052343,0.7553967998045034,0.5747066385681864,0.10465708059463792,-1.8482719856375769
1781515344771806208,0.1189413070678711,-0.047577645629644394,0.06639250367879868,0.09439416974782944,0.08765814453363419,-0.5433023571968079,-0.8349482417106628,-0.047817446291446686,-0.013170421123504639,0.024203002452850342,-0.5893065522666484,-0.2105581005268023,0.1954255801100039,0.7551105634664654,0.5743656937252992,0.10460312347164431,-1.8471327430147222
1781515344781840384,0.12897539138793945,-0.05929635465145111,0.06916751712560654,0.10200707614421844,0.08768396079540253,-0.5429522395133972,-0.8351732492446899,-0.045417122542858124,-0.0017254948616027832,0.009169220924377441,-0.5897970216087588,-0.2105608411776109,0.195134563582342,0.7548020920806917,0.5739487240537487,0.10460572042581115,-1.8459062923765337
1781515344791874304,0.1390094757080078,-0.0932718962430954,0.051944583654403687,0.10298552364110947,0.08764321357011795,-0.5424141883850098,-0.8355271220207214,-0.030453264713287354,-0.0026297569274902344,-0.0005782246589660645,-0.5903248191345835,-0.2104724602474637,0.19477624832002696,0.7545065931604389,0.5733080733601729,0.10451350494865444,-1.8445944520082846
1781515344801907200,0.14904236793518066,-0.0982661247253418,0.025144662708044052,0.10431896895170212,0.0874035507440567,-0.5416870713233948,-0.8360238075256348,-0.014039300382137299,-0.009231507778167725,-0.004369258880615234,-0.5908604505412239,-0.2102291346011951,0.19440116434516547,0.7542519462581682,0.5724428513611202,0.10416830301646302,-1.8432354581635761
1781515344811941376,0.15907645225524902,-0.041391391307115555,0.004496109671890736,0.10030718147754669,0.08693799376487732,-0.541185200214386,-0.8363972306251526,-0.006951421499252319,-0.0029432177543640137,-0.016904771327972412,-0.5913395522346818,-0.2099630180565346,0.1942084404529535,0.7540000710198536,0.5718459433464501,0.10357149518083358,-1.8419141576810127
1781515344821975296,0.16911029815673828,0.032860737293958664,0.0010776757262647152,0.10255622118711472,0.08639366179704666,-0.5412495136260986,-0.8364120125770569,-0.008192367851734161,0.021977663040161133,-0.028517186641693115,-0.5917405878394457,-0.20986216182963968,0.19429837087912355,0.7536902385878376,0.571922361930501,0.10292578961919778,-1.8406703510119673
1781515344832008448,0.17914342880249023,0.10547129064798355,0.0026056645438075066,0.10094234347343445,0.08584790676832199,-0.5419247150421143,-0.8360309600830078,-0.014772467315196991,0.04520535469055176,-0.025663375854492188,-0.5920524393607888,-0.20997396993114523,0.19466755377941078,0.7533188772786956,0.5727255542547552,0.10232644102742187,-1.8395477484865994
1781515344842042368,0.1891775131225586,0.1412351429462433,-0.00269882008433342,0.0934135913848877,0.08531567454338074,-0.5430570244789124,-0.8353503942489624,-0.01924511045217514,0.052059710025787354,-0.023414254188537598,-0.5922880037850359,-0.2102492425468652,0.19524360160826496,0.7529077345044024,0.5740734977912431,0.10177870428656155,-1.838543593731413
1781515344852076288,0.19921135902404785,0.1092148944735527,-0.0169571191072464,0.08941724896430969,0.08471768349409103,-0.544235348701477,-0.8346441388130188,-0.019776277244091034,0.03680431842803955,-0.0208093523979187,-0.592486355467908,-0.21050595703110256,0.19587031208174832,0.7525170881690136,0.5754773633863423,0.10115512838459048,-1.8376064903860334
1781515344862109440,0.2092444896697998,0.04045873507857323,-0.03379042446613312,0.0921829417347908,0.08400535583496094,-0.5449618697166443,-0.8342419266700745,-0.019094467163085938,0.0043125152587890625,-0.01638972759246826,-0.5927218757092636,-0.21054993344022646,0.19633581407206346,0.7521978584745889,0.5763436268252304,0.10035833915141162,-1.8366184396781418
1781515344872143360,0.21927833557128906,-0.050241075456142426,-0.04001103714108467,0.09183593094348907,0.08319777995347977,-0.5450022220611572,-0.8342965245246887,-0.020285792648792267,-0.024226903915405273,-0.00888890027999878,-0.5930369058381637,-0.21030869351286033,0.19652478492021566,0.7519676800031939,0.5763917469041876,0.09939347088019918,-1.835520151031248
1781515344882177280,0.22931241989135742,-0.12279091030359268,-0.052011508494615555,0.10176020115613937,0.08226923644542694,-0.544354259967804,-0.8348115086555481,-0.02201227843761444,-0.035189807415008545,-0.005428969860076904,-0.5934515627216967,-0.20977568710761677,0.19643933427278323,0.7518118564512047,0.5756191351029576,0.09823110086064407,-1.834252343438591
1781515344892211456,0.23934650421142578,-0.16576313972473145,-0.05235984921455383,0.11708430200815201,0.08124091476202011,-0.5432011485099792,-0.8356629014015198,-0.015597604215145111,-0.03480172157287598,-0.006042420864105225,-0.5939692359483947,-0.20903208270782167,0.1961482885130513,0.7516860790404396,0.574245099045982,0.09691278341330696,-1.8327777304584651
1781515344902244352,0.24937939643859863,-0.13246937096118927,-0.07953394204378128,0.12931539118289948,0.08002306520938873,-0.5420026183128357,-0.8365581035614014,0.000360243022441864,-0.029500067234039307,-0.004094362258911133,-0.5945305536476725,-0.20820339936918292,0.19588845749967618,0.75154010502137,0.5728182957473951,0.09536733102389791,-1.8311384314049546
1781515344912278528,0.259413480758667,-0.08005329966545105,-0.10749100893735886,0.15074478089809418,0.07847151905298233,-0.5412258505821228,-0.8372077345848083,0.01327957957983017,-0.028537273406982422,-0.01667410135269165,-0.5950727311306613,-0.2073943500266596,0.19591761827838444,0.7513270878754986,0.5718942752576932,0.09345700293902016,-1.8293646810826696
1781515344922312192,0.26944732666015625,-0.028999967500567436,-0.1131756603717804,0.17735908925533295,0.0766521468758583,-0.5408965945243835,-0.8375890254974365,0.018989942967891693,-0.021878063678741455,-0.008480310440063477,-0.595640754010411,-0.20665453205709802,0.19621265240535304,0.7510037400549897,0.5715027363975455,0.0912610233841894,-1.8273503551907873
1781515344932345344,0.2794804573059082,0.030342984944581985,-0.1156286969780922,0.20091953873634338,0.07465924322605133,-0.541064977645874,-0.8376602530479431,0.019365407526493073,-0.0071680545806884766,-0.0025191903114318848,-0.5962405725334222,-0.20604484846651408,0.19676224722441032,0.7505514330435136,0.5717029372182972,0.08889341852949562,-1.8250962964042217
1781515344942379264,0.28951430320739746,0.052357472479343414,-0.11685961484909058,0.21819013357162476,0.07252804934978485,-0.5415968894958496,-0.8375037312507629,0.016720615327358246,-0.007475376129150391,-0.00876396894454956,-0.5968701006529668,-0.2055282458775711,0.1975000659171113,0.7499986632363412,0.5723355779347475,0.08638475188552161,-1.8226413698521644
1781515344952413440,0.2995483875274658,0.02602892927825451,-0.12126807868480682,0.23829780519008636,0.07028850167989731,-0.5421023964881897,-0.8373676538467407,0.01813618093729019,-0.017223775386810303,-0.0010112524032592773,-0.5975673384751095,-0.2049762423508445,0.19824461273621805,0.7493978510423963,0.5729370092760416,0.08374351977577531,-1.819971243497737
1781515344962446336,0.30958127975463867,-0.03605121746659279,-0.12007710337638855,0.25859376788139343,0.06790832430124283,-0.5422515273094177,-0.8374674320220947,0.015252076089382172,-0.033416807651519775,0.012287378311157227,-0.5983916273935567,-0.20426305922938673,0.19885392264349064,0.7487731087673102,0.5731145246544451,0.08091069668583617,-1.8169857482666234
1781515344972480256,0.31961536407470703,-0.1302802562713623,-0.1062164232134819,0.2729191780090332,0.06551282107830048,-0.5417258739471436,-0.8379983305931091,0.015190906822681427,-0.051917314529418945,0.010315775871276855,-0.5993633963555614,-0.20332204795293937,0.1991506775500786,0.7481728636709223,0.5724889825400191,0.07801906690958808,-1.813740334164073
1781515344982514432,0.3296494483947754,-0.18292827904224396,-0.09537762403488159,0.29698988795280457,0.06312121450901031,-0.5405808687210083,-0.8389207720756531,0.020298585295677185,-0.0533369779586792,0.015052974224090576,-0.6004908034728637,-0.2021847730433048,0.19915052382784562,0.7475768989255991,0.5711273892152742,0.07509946843248656,-1.8102119899071514
1781515344992547328,0.33968234062194824,-0.2394607961177826,-0.07927042245864868,0.317016065120697,0.060703095048666,-0.5390084981918335,-0.8401100635528564,0.0350000262260437,-0.035866379737854004,0.015647172927856445,-0.6017682356535722,-0.20091201135527378,0.1989455333704815,0.7469471306087546,0.5692595600960336,0.07213076521666135,-1.8063671899209024
1781515345002581248,0.3497164249420166,-0.28696438670158386,-0.06606647372245789,0.3159284293651581,0.05839553847908974,-0.5369768738746643,-0.8415734171867371,0.058029014617204666,-0.018732964992523193,0.0022637248039245605,-0.6031486940613275,-0.19953525762676033,0.1984917400762906,0.7463232527640337,0.5668493770886304,0.0692774813474865,-1.8023845242697765
1781515345012615424,0.35975050926208496,-0.28886961936950684,-0.06844481080770493,0.3135499656200409,0.05615901201963425,-0.534691572189331,-0.8431791663169861,0.08625127375125885,-0.033103227615356445,-0.026556551456451416,-0.6045443468842376,-0.1980948722944345,0.19791121059239872,0.7457316165667018,0.5641427128642911,0.06650566502250349,-1.7984424052645882
1781515345022648320,0.3697834014892578,-0.2737972140312195,-0.0970197319984436,0.3683234453201294,0.05360715463757515,-0.5325042605400085,-0.8447280526161194,0.11718447506427765,-0.06426697969436646,-0.044569432735443115,-0.6060068689349714,-0.1965829195409943,0.1974617417479892,0.7450634545001141,0.5615564379421306,0.06337585853666332,-1.7942034769845525
1781515345032682496,0.37981748580932617,-0.2894690930843353,-0.14411747455596924,0.41314074397087097,0.05051148682832718,-0.5303574204444885,-0.8462680578231812,0.15275083482265472,-0.08354943990707397,-0.05836451053619385,-0.6076385919318215,-0.19491148165161612,0.1971686872905149,0.7442509067880967,0.5590221139663863,0.059616608829686335,-1.789334470030506
1781515345042716160,0.38985133171081543,-0.4014342427253723,-0.2153511643409729,0.4267587959766388,0.0467328317463398,-0.5277136564254761,-0.8481358289718628,0.1975298672914505,-0.09872066974639893,-0.07618057727813721,-0.609348812608516,-0.19279241089342244,0.1968836525253003,0.7434796539816919,0.5559066350127909,0.055044981811093685,-1.7841574733751164
1781515345052750336,0.3998854160308838,-0.5887993574142456,-0.2510501742362976,0.5014628171920776,0.04233173653483391,-0.5236724615097046,-0.8508673310279846,0.2393912822008133,-0.09972536563873291,-0.03743833303451538,-0.6113156338748482,-0.18995012066280745,0.19617669473794472,0.7427831525643878,0.551156054668977,0.049710292932832995,-1.7784261188652684
1781515345062783232,0.40991830825805664,-0.6515053510665894,-0.35842081904411316,0.5556325912475586,0.03694051504135132,-0.5185641050338745,-0.854240357875824,0.2725840210914612,-0.11076939105987549,0.00083160400390625,-0.613591262088866,-0.18638244051917918,0.1952982215533429,0.7420416782174679,0.5451707710938607,0.04321677312993465,-1.7718210036470512
1781515345072817408,0.419952392578125,-0.8821849226951599,-0.41608771681785583,0.6042931079864502,0.03062622621655464,-0.5122700929641724,-0.8582781553268433,0.28158384561538696,-0.13580119609832764,0.010774493217468262,-0.6160504086045111,-0.1820445676780034,0.19421820663643852,0.7413641661238773,0.5378259752544347,0.03566820273053739,-1.76474095846861
1781515345082851328,0.42998647689819336,-1.2381222248077393,-0.47750526666641235,0.6990233063697815,0.023460006341338158,-0.5033649206161499,-0.8637553453445435,0.2960743010044098,-0.17896229028701782,-0.020033657550811768,-0.6190012412393233,-0.1765047256057688,0.1922716786613669,0.7407530346965763,0.5274886599532675,0.027153800105726232,-1.7567319394119008
1781515345092884224,0.4400193691253662,-1.7272131443023682,-0.6197142004966736,0.8487070798873901,0.015021874569356441,-0.49042338132858276,-0.8713548183441162,0.3234943747520447,-0.23337727785110474,-0.07392716407775879,-0.6225645137299707,-0.16909748388768733,0.189020182986124,0.7403315108660523,0.5125755024992171,0.017237968417468243,-1.7477040965572785
1781515345102918400,0.45005345344543457,-1.781641960144043,-0.9451900720596313,1.0286386013031006,0.0035442127846181393,-0.47581565380096436,-0.8795378804206848,0.3816181421279907,-0.34484776854515076,-0.09015816450119019,-0.6267192843629644,-0.1600521798349415,0.18604935255192231,0.7395889490497028,0.4958911713793892,0.004029608833895844,-1.7366605212692863
1781515345112952320,0.46008729934692383,-2.567690134048462,-0.8891612887382507,1.2012726068496704,-0.010215803049504757,-0.45618727803230286,-0.889825165271759,0.26996615529060364,-0.26662155985832214,0.024728119373321533,-0.6317277197235126,-0.1484997993279418,0.1817559637531636,0.7388048968004505,0.4737059454741552,-0.01148018161101632,-1.7239647060915186
1781515345122985472,0.4701204299926758,-2.743384838104248,-0.811583399772644,1.1166157722473145,-0.022915750741958618,-0.43196117877960205,-0.9016010165214539,0.23318186402320862,-0.32678210735321045,-0.005060970783233643,-0.6372339063923979,-0.1358576742883754,0.1753344772327081,0.7380606136815001,0.44666616092624695,-0.025411259984724887,-1.7113883625860973
1781515345133019392,0.48015451431274414,-3.508411169052124,-0.9029316902160645,0.7722575664520264,-0.034611545503139496,-0.4040030837059021,-0.9141026139259338,0.4093979299068451,-0.2566109299659729,0.20432478189468384,-0.642053816890258,-0.12216917030785235,0.16740190685267686,0.738117967875424,0.41588874359482064,-0.03784588402502117,-1.7017920160302118
1781515345143053312,0.4901883602142334,-4.881103515625,-1.3549691438674927,0.5794548392295837,-0.04742185026407242,-0.3646036684513092,-0.929954469203949,0.5395178198814392,0.059717804193496704,0.409599244594574,-0.6459104601943607,-0.1038384470013108,0.15569307966988316,0.7401195416181384,0.3732071274053513,-0.05094960031569502,-1.6969071779485958
1781515345153086464,0.5002214908599854,-5.112692356109619,-1.5820887088775635,0.7544825673103333,-0.06380542367696762,-0.31648918986320496,-0.9464478492736816,0.44895249605178833,0.16101735830307007,0.45155954360961914,-0.6496268183252228,-0.0812909013680279,0.14201365965050727,0.7424344913890847,0.32202611903278544,-0.06731382819185669,-1.6930007844291155
1781515345163120384,0.5102553367614746,-4.900235652923584,-1.5024280548095703,0.6743720173835754,-0.08079969137907028,-0.2681021988391876,-0.9599961638450623,0.17186413705348969,0.16254189610481262,0.24644941091537476,-0.6530923922055922,-0.0586655262542307,0.12868674029810964,0.7439545557283322,0.2714225630229727,-0.08396877580844837,-1.6892182151966513
1781515345173154304,0.520289421081543,-4.710056304931641,-1.3842278718948364,0.4312984347343445,-0.09617841243743896,-0.22105157375335693,-0.9705080389976501,0.03454817086458206,0.35908257961273193,0.21525907516479492,-0.6553854089834833,-0.037135579860308104,0.11561537251312035,0.7454689672011466,0.2228925917360669,-0.09877856789954303,-1.688168578789197
1781515345183187200,0.5303223133087158,-4.272852420806885,-1.3168299198150635,0.4205629527568817,-0.11010435968637466,-0.1764560341835022,-0.9781309962272644,0.04697874188423157,0.6377444863319397,0.2855193614959717,-0.6568207486497187,-0.017025328660856653,0.10317279435652878,0.7467610822893485,0.17738481754460683,-0.11209419900432112,-1.6888013266146915
1781515345193221376,0.5403563976287842,-3.5974886417388916,-1.2508727312088013,0.47895941138267517,-0.12346719205379486,-0.13714797794818878,-0.9828256368637085,0.04647134244441986,0.7478047609329224,0.252158522605896,-0.6580288185328643,0.001016670514868476,0.09266139471983056,0.7472690366772375,0.13758161494111432,-0.12497004613256799,-1.6890099947686754
1781515345203255296,0.5503904819488525,-3.0996603965759277,-1.0978062152862549,0.48669084906578064,-0.13574962317943573,-0.1038130596280098,-0.9852892160415649,-0.052757441997528076,0.5838698148727417,0.22024410963058472,-0.6592024285667086,0.016611750225406497,0.08413933939662949,0.7470588084152743,0.10400043540256833,-0.13691444115885285,-1.6884473950349954
1781515345213289216,0.5604243278503418,-3.2793736457824707,-0.9384996891021729,0.3416178226470947,-0.14614565670490265,-0.07203415036201477,-0.9866369962692261,-0.23488156497478485,0.33468368649482727,0.3349188566207886,-0.6599842947001828,0.031008688428721235,0.07563048651959435,0.7468195244734223,0.0720965957134875,-0.1470557554973613,-1.6887774867675456
1781515345223321344,0.5704565048217773,-3.7820942401885986,-0.9087979793548584,0.230889692902565,-0.15537159144878387,-0.03670365363359451,-0.9871739745140076,-0.40396982431411743,0.1272798329591751,0.5356206893920898,-0.660035503412333,0.04621120635409816,0.0654027754052777,0.7469539770292388,0.036711898634150066,-0.15610965607274646,-1.6913203418997802
1781515345233355264,0.5804903507232666,-4.522792339324951,-0.8391768336296082,0.11519505083560944,-0.16410256922245026,0.0045333500020205975,-0.9864328503608704,-0.5719814300537109,0.03610080108046532,0.6072977781295776,-0.6593044313421927,0.06324459607974896,0.05276067634766682,0.7473514399518474,-0.004533365552948071,-0.1648498936144145,-1.6961940887114608
1781515345243389440,0.590524435043335,-4.927804946899414,-0.6907293200492859,0.043533649295568466,-0.17161501944065094,0.051794081926345825,-0.9838016629219055,-0.7499700784683228,0.09134861826896667,0.6049869656562805,-0.657649047111832,0.08187223166581643,0.037364688847764345,0.7479295260351576,-0.05181726760590159,-0.17270291180269318,-1.7035670206463864
1781515345253422336,0.6005573272705078,-4.910346508026123,-0.6392112374305725,-0.1545988768339157,-0.17811347544193268,0.10018368065357208,-0.9788967370986938,-0.855379581451416,0.2618463635444641,0.48074305057525635,-0.6551777436624762,0.10053516226442526,0.021078733284081035,0.7484587194875586,-0.10035202630931764,-0.17998427122475924,-1.7125773316639583
1781515345263456256,0.6105914115905762,-4.80612325668335,-0.677129864692688,-0.4037567675113678,-0.1849968284368515,0.14765052497386932,-0.9715840220451355,-0.8713233470916748,0.5770503878593445,0.3977314829826355,-0.6512667465107375,0.11909298969203329,0.0049851851199390704,0.7494289029305677,-0.14819233682675154,-0.18815516367114055,-1.7247378625264858
1781515345273490432,0.6206254959106445,-3.452526330947876,-0.5875195264816284,-0.1956387311220169,-0.1916746199131012,0.1874433010816574,-0.9633928537368774,-0.8818574547767639,0.5044817328453064,0.13535946607589722,-0.6474969435645155,0.13503043582430163,-0.008386893870806187,0.7499627543745215,-0.18855866785519237,-0.19639333412899276,-1.7358104437004016
1781515345283523328,0.6306583881378174,-2.753692150115967,-0.37793299555778503,-0.5142297744750977,-0.19690105319023132,0.21615014970302582,-0.9562996625900269,-0.9262831211090088,0.3103543519973755,-0.11604225635528564,-0.6441705121365097,0.14670780817414306,-0.01808248897387112,0.7504626435930986,-0.21786967713275068,-0.20306108486358135,-1.7452164802002428
1781515345293557504,0.6406924724578857,-2.1570358276367188,-0.4357551634311676,-0.6952000856399536,-0.20220911502838135,0.23860770463943481,-0.9498304128646851,-0.7715152502059937,0.3186585307121277,-0.07749807834625244,-0.6399281228581388,0.15629052920133638,-0.025652658797939962,0.7519356335678407,-0.24093189330311796,-0.20975823312596212,-1.7568801223397414
1781515345303591424,0.6507265567779541,-1.349843144416809,-0.4170161187648773,-0.7466917634010315,-0.20810315012931824,0.25377681851387024,-0.9446112513542175,-0.5987663269042969,0.27704593539237976,-0.21310359239578247,-0.6359089634045793,0.16363538236284406,-0.0302958470934184,0.7536082762331333,-0.25658290903946573,-0.2168417861316476,-1.7678841375613803
1781515345313624320,0.660759449005127,-0.6757699847221375,-0.3917681574821472,-0.8240017294883728,-0.21388141810894012,0.2617473006248474,-0.9411392211914062,-0.5146189332008362,0.1721973419189453,-0.23769372701644897,-0.6320980298280557,0.16849464086107468,-0.03224801188224071,0.7556597228324903,-0.26483218606418807,-0.22346259259979606,-1.7782882344648554
1781515345323658496,0.6707935333251953,0.026201767846941948,-0.5599720478057861,-0.8452351093292236,-0.22047406435012817,0.2628593444824219,-0.9393061995506287,-0.4179841876029968,-0.022930145263671875,-0.27334028482437134,-0.6287863295411877,0.17138114540297833,-0.031231373707083242,0.7578132072945454,-0.2659845653570338,-0.23054671462993664,-1.7873452723741063
1781515345333692416,0.6808273792266846,0.43529579043388367,-0.7063119411468506,-0.9946187734603882,-0.22889626026153564,0.2585814595222473,-0.9384786486625671,-0.37313926219940186,-0.12126761674880981,-0.30544835329055786,-0.6255691687759505,0.17321176184559156,-0.027538573955492966,0.7601990391435934,-0.26155344076072795,-0.2392306330574526,-1.796105776273114
1781515345343725568,0.6908605098724365,0.5571891665458679,-0.7508568167686462,-0.9171982407569885,-0.23835842311382294,0.25134706497192383,-0.9380884170532227,-0.31498628854751587,-0.15439271926879883,-0.20969295501708984,-0.6223786614165621,0.174515017387575,-0.022367162789206592,0.7626854181711741,-0.2540717469130382,-0.2488238916549225,-1.804650227051741
1781515345353759232,0.7008943557739258,0.443937748670578,-0.858832836151123,-0.6596218347549438,-0.24781034886837006,0.24453192949295044,-0.9374402165412903,-0.25479888916015625,-0.34079962968826294,-0.17332333326339722,-0.6198931259588966,0.17602267785687092,-0.017201833342110368,0.764495106847955,-0.2470369390962292,-0.25843632083883167,-1.8112074435378853
1781515345363793408,0.7109284400939941,0.1632690727710724,-1.0836981534957886,-0.4502052068710327,-0.2582574188709259,0.24015754461288452,-0.9357496500015259,-0.2046484351158142,-0.6496729254722595,-0.12409526109695435,-0.6181431845139193,0.17879962127578042,-0.01248434707223935,0.7653585752951176,-0.24252813607081988,-0.2692862402337451,-1.815826569925792
1781515345373827584,0.7209625244140625,-0.25671276450157166,-1.2976473569869995,-0.3388209044933319,-0.27038395404815674,0.23960648477077484,-0.9324597716331482,-0.13031181693077087,-0.780622124671936,-0.13931751251220703,-0.6166474921656544,0.18356350091170934,-0.008634028538857518,0.7654905846559876,-0.24196050370192837,-0.2822283581982942,-1.8198882260162774
1781515345383860224,0.7309954166412354,-0.42765921354293823,-1.6195367574691772,-0.2745921313762665,-0.28463175892829895,0.24200497567653656,-0.9275873899459839,-0.009557723999023438,-0.6206976175308228,-0.2952214479446411,-0.6151650091681993,0.1902079650523857,-0.005219244687162096,0.7650918779566825,-0.24443171645016487,-0.29773082485270813,-1.824030755652125
1781515345393894400,0.7410295009613037,0.1728077232837677,-1.7702335119247437,-0.14260587096214294,-0.30086854100227356,0.24240770936012268,-0.9223430156707764,0.17751649022102356,-0.4364232122898102,-0.6953785419464111,-0.6143927235316264,0.19704939492509096,-0.0001808119593810028,0.7639980650654277,-0.24484681227227395,-0.3153171150372926,-1.826138237864094
1781515345403928320,0.751063346862793,0.5554602742195129,-1.5294376611709595,-0.28352436423301697,-0.3169359266757965,0.23827341198921204,-0.9180290699005127,0.2431139051914215,-0.14165477454662323,-0.2163856029510498,-0.6138529071158807,0.20233959148379763,0.006644702031097805,0.763019731601785,-0.240587673971703,-0.33242370822766837,-1.8271804864716361
1781515345413961472,0.7610964775085449,1.1029419898986816,-1.6753759384155273,0.03939163312315941,-0.3316851556301117,0.23074409365653992,-0.9147360920906067,0.3292895257472992,0.21136406064033508,-0.3605019450187683,-0.6140266802882686,0.20596091620338589,0.014562151811491278,0.7618000319609144,-0.23284235029068048,-0.34785716627269647,-1.825881230251674
1781515345423995136,0.7711303234100342,1.9160908460617065,-1.562487006187439,0.19794557988643646,-0.34647318720817566,0.21672631800174713,-0.9126806855201721,0.28491923213005066,0.0066471099853515625,-0.5193261504173279,-0.6160260454393333,0.20738337757754777,0.025530223665354373,0.7595078940440594,-0.2184598241305015,-0.3628162078509975,-1.8188900593179833
1781515345434029312,0.7811644077301025,1.6896408796310425,-1.5654140710830688,0.08667393028736115,-0.3600817620754242,0.20062005519866943,-0.9110942482948303,0.2315417230129242,-0.049893736839294434,-0.4431385397911072,-0.6182975172622932,0.20756373133960743,0.03701594247098965,0.7571361865665023,-0.20199080828305613,-0.3763780449084915,-1.8105923775750874
1781515345444062464,0.7911975383758545,1.12890625,-1.7892708778381348,-0.06459388881921768,-0.3754968047142029,0.18732737004756927,-0.9076952338218689,0.30329224467277527,0.03688526153564453,-0.4802747368812561,-0.6194451995921708,0.20944989579147022,0.04778219578278685,0.7550729633023541,-0.18844064898153004,-0.3922449432035348,-1.8050508729945636
1781515345454096384,0.8012313842773438,0.545233964920044,-1.9657728672027588,-0.21053990721702576,-0.3927026093006134,0.17952169477939606,-0.9019737243652344,0.2302117645740509,0.07670389115810394,-0.4435615539550781,-0.6193116366609039,0.21398680846286408,0.056769496951468046,0.7532861368333668,-0.18050022177885575,-0.4106308456520907,-1.8030800792083996
1781515345464130304,0.8112654685974121,0.15640132129192352,-2.155918598175049,-0.2177589386701584,-0.4118974506855011,0.17540422081947327,-0.8941889405250549,0.1046769917011261,0.13077864050865173,-0.34174245595932007,-0.6181414045476082,0.22069195098770114,0.06481200701361861,0.7516619451018669,-0.17631634537094923,-0.4316652363120607,-1.8038834545129037
1781515345474163200,0.821298360824585,0.14824537932872772,-2.063164234161377,-0.14712205529212952,-0.4311297535896301,0.1737007200717926,-0.8854124546051025,0.017845451831817627,0.2515464425086975,-0.24990248680114746,-0.616906374838112,0.22827835397341362,0.07199152389535812,0.7497550460865458,-0.174586285416835,-0.453133285695788,-1.8049442785049992
1781515345484197376,0.8313324451446533,0.6836142539978027,-1.8672629594802856,-0.24468590319156647,-0.44887760281562805,0.16937384009361267,-0.8773946762084961,0.012247353792190552,0.3004748225212097,-0.2561807632446289,-0.6158943803065994,0.23438708572194758,0.0797832103521019,0.7479113798208319,-0.17019429081808943,-0.4728867330929072,-1.8048977331361058
1781515345494231552,0.8413665294647217,1.1501606702804565,-1.587723970413208,-0.30928805470466614,-0.4645574390888214,0.1600126028060913,-0.8709663152694702,0.0597723126411438,0.3060976266860962,-0.1763816475868225,-0.6152092759085823,0.23792623593561152,0.08892659665578811,0.7463248134207634,-0.16070342079758007,-0.4899949258331773,-1.803064295753327
1781515345504265216,0.8514003753662109,1.4367746114730835,-1.3670637607574463,-0.3823870122432709,-0.4778912365436554,0.1468866616487503,-0.8660509586334229,0.0644543468952179,0.1620275229215622,-0.21677374839782715,-0.6148053614782802,0.23918984650621478,0.09880656319125145,0.745009919101465,-0.1474200527965069,-0.5042279295275387,-1.7997565018041193
1781515345514298368,0.8614335060119629,1.3914768695831299,-1.2562042474746704,-0.4686819612979889,-0.48979687690734863,0.13242433965206146,-0.861720860004425,0.09145092964172363,-0.010933846235275269,-0.26535433530807495,-0.6142646111791524,0.23943093539457203,0.10868483988510029,0.7440023838248607,-0.1328144641903323,-0.5168554411763909,-1.7964089851053855
1781515345524332288,0.8714673519134521,1.18166983127594,-1.3215433359146118,-0.5468524098396301,-0.501571536064148,0.11870739609003067,-0.8569332361221313,0.14411914348602295,-0.09404920041561127,-0.24508702754974365,-0.6131694703510548,0.2399677963165292,0.11810524808890456,0.7432965801527739,-0.11898797513680816,-0.5295479721569968,-1.7943706493114338
1781515345534366464,0.8815014362335205,0.9746729731559753,-1.3620189428329468,-0.5490831136703491,-0.5138356685638428,0.1065557673573494,-0.8512454032897949,0.14242154359817505,-0.0816381648182869,-0.1780514121055603,-0.6115768963383077,0.24134586027739863,0.12700182625929957,0.7426953614826621,-0.10675844847611257,-0.5430829596119526,-1.7935810313966956
1781515345544399360,0.8915343284606934,0.8448244333267212,-1.382858157157898,-0.5405612587928772,-0.5261415839195251,0.09613223373889923,-0.8449459075927734,0.045077741146087646,-0.04753299057483673,-0.18696022033691406,-0.609718824270764,0.24340255640239528,0.13521180408689018,0.7421023855080944,-0.09628092165103212,-0.5569383606513332,-1.7935794236204432
1781515345554433280,0.9015684127807617,0.799332320690155,-1.3832979202270508,-0.5722182393074036,-0.5384191274642944,0.0861586257815361,-0.8382610082626343,-0.019976258277893066,-0.0366133376955986,-0.16282236576080322,-0.607674783298465,0.24567163710876114,0.14323038103566876,0.7415266568606579,-0.08626558114899296,-0.5709465939471895,-1.7938979629054583
1781515345564467456,0.9116024971008301,0.8595780730247498,-1.317552924156189,-0.6193817853927612,-0.5502598881721497,0.07616052031517029,-0.8315128684043884,-0.008639037609100342,0.05814732611179352,-0.11515766382217407,-0.605471755060253,0.2478197663427121,0.15109245723523565,0.7410535853576056,-0.07623434350848565,-0.5845962516255733,-1.7944505281777365
1781515345574500352,0.9216353893280029,1.0539435148239136,-1.2652349472045898,-0.6998257637023926,-0.5614464282989502,0.0645330622792244,-0.8249929547309875,0.017287492752075195,0.1767236441373825,-0.16298305988311768,-0.6031924959223961,0.24920443313065885,0.15937584591983778,0.7407126958811296,-0.06457793869820244,-0.5975505274810612,-1.7946399622706268
1781515345584534528,0.9316694736480713,1.0815824270248413,-1.3132879734039307,-0.7773865461349487,-0.5724329352378845,0.051331859081983566,-0.8183431625366211,0.013534009456634521,0.13491690158843994,-0.1859750747680664,-0.6007691066020521,0.2500570614415139,0.16822567294639912,0.740437682945467,-0.05135442949672641,-0.6103918443908808,-1.7945030440113718
1781515345594568192,0.9417033195495605,0.7104613184928894,-1.429762840270996,-0.8621560335159302,-0.5840663909912109,0.03904019296169281,-0.8107665181159973,-0.03310579061508179,-0.023110024631023407,-0.15319222211837769,-0.5976840470151367,0.25169595175991083,0.17682166971075464,0.7403762198809709,-0.039050115208327796,-0.6242784786428591,-1.795877785791243
1781515345604601344,0.9517364501953125,0.18803301453590393,-1.5073736906051636,-0.9266711473464966,-0.596274197101593,0.02999996393918991,-0.8022201061248779,-0.05498617887496948,-0.042618993669748306,-0.06603550910949707,-0.5935879900647717,0.25497384061245604,0.18406058330604258,0.7407855898377127,-0.030004465403090177,-0.6391864603833348,-1.8004624019566493
1781515345614635520,0.9617705345153809,-0.22902759909629822,-1.5713822841644287,-0.9564958810806274,-0.6088583469390869,0.024545487016439438,-0.7928990721702576,-0.052198171615600586,0.015600383281707764,0.044806480407714844,-0.588602698671597,0.25990727884420545,0.1897331207828366,0.74161739047414,-0.02454795298784497,-0.6548520090457655,-1.8081868791744897
1781515345624669440,0.9718043804168701,-0.44486427307128906,-1.6041882038116455,-0.9627953171730042,-0.6216875910758972,0.021361205726861954,-0.7829740047454834,-0.07176333665847778,-0.01690562814474106,0.0545194149017334,-0.583012762539673,0.2659448645627864,0.19438707006672115,0.7426864718333872,-0.02136283072555643,-0.6710765724272615,-1.8179813715106645
1781515345634703360,0.9818384647369385,-0.5413509011268616,-1.6158872842788696,-1.0131354331970215,-0.6343879699707031,0.01911633461713791,-0.7727784514427185,-0.08233261108398438,-0.013119617477059364,0.002697885036468506,-0.5771230658302342,0.2724109386739157,0.19850204215308823,0.7438536496586657,-0.019117499631317418,-0.6873664885517765,-1.8287459376941366
1781515345644736256,0.9918713569641113,-0.5562992095947266,-1.6091457605361938,-1.0100575685501099,-0.6470338106155396,0.016643567010760307,-0.7622796297073364,-0.10327136516571045,0.057346295565366745,-0.045337557792663574,-0.5709599917161507,0.27895397731316085,0.20259534363479575,0.7450801889592191,-0.016644335813415675,-0.7038053026773364,-1.839992306546519
1781515345654770432,1.0019054412841797,-0.657050371170044,-1.5925647020339966,-1.0342835187911987,-0.6595059633255005,0.013997893780469894,-0.7515689730644226,-0.131585955619812,0.025156158953905106,-0.09327965974807739,-0.5646501894431037,0.28550928980199736,0.20663965892145217,0.7462939517128395,-0.013998351042035206,-0.7202473070928271,-1.8514331023760269
1781515345664804352,1.011939525604248,-0.7381470799446106,-1.7270135879516602,-1.1236685514450073,-0.6721795797348022,0.011766926385462284,-0.7402946352958679,-0.07704216241836548,0.032056309282779694,-0.09875565767288208,-0.5577406918841428,0.2925707876373387,0.21036875469535138,0.7477116576127443,-0.01176719803695205,-0.7372115803122665,-1.8643553096037393
1781515345674837248,1.021972417831421,-0.7841361165046692,-1.88302481174469,-1.2040654420852661,-0.6855294108390808,0.00993267260491848,-0.7279772162437439,-0.01275855302810669,0.06240926682949066,-0.0755811333656311,-0.5502579157071004,0.30036294604594216,0.21399414802301267,0.7491361507180498,-0.009932835971636227,-0.7553770611976828,-1.8784891535467385
1781515345684871424,1.0320065021514893,-0.9572399854660034,-1.8941080570220947,-1.1869593858718872,-0.6991810202598572,0.008150778710842133,-0.7148982882499695,-0.03185230493545532,0.0010197488591074944,-0.010916531085968018,-0.5424853378621977,0.30853981753810517,0.2176098361468872,0.7504391383014666,-0.008150868726663464,-0.7742837705518673,-1.8930678073423384
1781515345694905344,1.0420403480529785,-0.8944700956344604,-1.8796238899230957,-1.0079885721206665,-0.7127446532249451,0.0067391833290457726,-0.7013912200927734,-0.0006189942359924316,-0.12903839349746704,0.06546592712402344,-0.5347132772394798,0.31694240622554887,0.22102466298432966,0.7515166808165062,-0.006739234261749456,-0.793426522888725,-1.907594790417492
1781515345704938496,1.0520734786987305,0.8935387134552002,-1.8437833786010742,-0.6874210238456726,-0.726049542427063,0.0013304910389706492,-0.6876410245895386,0.17987650632858276,-0.29712212085723877,0.11876291036605835,-0.5291615748731231,0.32345399870394487,0.22706165122923103,0.7508717606357033,-0.0013304914362327327,-0.8125604495114487,-1.9143785930764419
1781515345714972160,1.0621073246002197,1.291509985923767,-1.6409376859664917,-0.5063023567199707,-0.7376471757888794,-0.010468964464962482,-0.6751052141189575,0.2817755937576294,-0.02564859390258789,0.3244277238845825,-0.5268906439922507,0.32622336510062694,0.23669750197144518,0.7482906233011305,0.010469155962853775,-0.8296388553732333,-1.910003256510674
1781515345725006336,1.072141408920288,1.3804113864898682,-1.9422929286956787,-0.7070503830909729,-0.7493951916694641,-0.024175766855478287,-0.6616814732551575,0.1477869153022766,0.021108757704496384,-0.5122382044792175,-0.5246850259208434,0.32850875809336444,0.24746971794750994,0.7453498196850198,0.02417812240054739,-0.8474791386200479,-1.9039493425776468
1781515345735039488,1.08217453956604,1.9740934371948242,-2.1683990955352783,-0.4590807259082794,-0.7628963589668274,-0.039616603404283524,-0.6453059315681458,-0.03585547208786011,-0.06916327774524689,-0.485477089881897,-0.5225910555705418,0.3311512240730922,0.2601651192444234,0.7413175534979202,0.039626974129909676,-0.8687087965272444,-1.8951284588299975
1781515345745073408,1.0922083854675293,2.503016710281372,-2.0300183296203613,-0.4464690685272217,-0.7761537432670593,-0.05743517354130745,-0.6279224753379822,-0.13883954286575317,0.16340747475624084,-0.2656322121620178,-0.5218730311579024,0.3324665732407067,0.2747812554927365,0.7359414865495165,0.05746679943535726,-0.890580640236611,-1.8805151897408334
1781515345755107328,1.1022424697875977,2.4574785232543945,-1.9227674007415771,-0.5093511343002319,-0.7880919575691223,-0.07678966224193573,-0.6107491850852966,-0.07952278852462769,0.2659986615180969,-0.10223305225372314,-0.5215566782488678,0.3324549512099442,0.2899984941716677,0.7303104541879337,0.0768653318944748,-0.9115037846248821,-1.8635725632292488
1781515345765141504,1.112276554107666,2.3374979496002197,-2.006141185760498,-0.6221234798431396,-0.7994107604026794,-0.09573808312416077,-0.5931076407432556,-0.005841314792633057,0.20415177941322327,-0.01938009262084961,-0.5204989424413348,0.33252401554408995,0.3047522705287665,0.7250067097365449,0.0958849439576978,-0.93247937414268,-1.8480039809659927
1781515345775174400,1.1223094463348389,2.4941561222076416,-2.02508807182312,-0.6078732013702393,-0.8106858134269714,-0.11484874039888382,-0.5741065144538879,-0.024183571338653564,0.06858409196138382,-0.0031792521476745605,-0.5190756657411333,0.33265587133181923,0.31982309973724726,0.7194537825137441,0.11510273271773759,-0.954605589059822,-1.8320130805051535
1781515345785208576,1.1323435306549072,2.6331586837768555,-1.8946434259414673,-0.5586342811584473,-0.8210899233818054,-0.13443484902381897,-0.5547419786453247,-0.12565690279006958,-0.047755077481269836,-0.05451095104217529,-0.5180967265478538,0.33196468904511356,0.3353035286399437,0.7134050852079595,0.13484311055566345,-0.9766231825301193,-1.8136542684055552
1781515345795242240,1.1423773765563965,2.407911777496338,-1.8057819604873657,-0.5249497890472412,-0.8304148316383362,-0.15275348722934723,-0.5357962250709534,-0.17787069082260132,-0.18466411530971527,0.02259737253189087,-0.5172343319739229,0.3310321454029209,0.3500280091351308,0.7073660642214636,0.15335386368625512,-0.9977921534866235,-1.7951839310829651
1781515345805275392,1.1524105072021484,1.8832324743270874,-1.7483447790145874,-0.5700514912605286,-0.8389347791671753,-0.16852255165576935,-0.5174828767776489,-0.16079050302505493,-0.17534950375556946,0.1472741961479187,-0.5156644599285516,0.330842367494958,0.363045305422407,0.7020196258464209,0.16933059662780103,-1.0180913029267438,-1.7798607783978457
1781515345815309312,1.1624443531036377,1.648654818534851,-1.6540696620941162,-0.6647311449050903,-0.8465743064880371,-0.18266549706459045,-0.4999452829360962,-0.1410813331604004,0.039370208978652954,0.1356569528579712,-0.5132405522175033,0.33118867373745386,0.3746216970024468,0.6975362351187644,0.18369688694234096,-1.0373535945292882,-1.7678485307406941
1781515345825343488,1.172478437423706,1.5962600708007812,-1.5206944942474365,-0.6910013556480408,-0.85309898853302,-0.19652341306209564,-0.4833225607872009,-0.14624488353729248,0.18211910128593445,0.022354543209075928,-0.5105316767819233,0.3312426722858679,0.3855087667648795,0.6935551239872471,0.19781091480892787,-1.0553362200198,-1.7569600268865784
1781515345835376384,1.182511329650879,1.4262007474899292,-1.5264756679534912,-0.7038905024528503,-0.8589157462120056,-0.20975281298160553,-0.4671908915042877,-0.07496786117553711,0.11815433204174042,-0.061480313539505005,-0.5076713775317954,0.33125902951833686,0.39581814281383726,0.6898297677479701,0.21132214851049883,-1.0726245574289448,-1.7467938231515583
1781515345845410304,1.1925454139709473,1.2497532367706299,-1.6466833353042603,-0.7308017611503601,-0.8646140694618225,-0.22207550704479218,-0.45069390535354614,0.04747539758682251,0.07063202559947968,-0.14018744230270386,-0.5042210630306667,0.33189131543373146,0.40558747167643955,0.6863731361583287,0.22394261618093805,-1.090281011657034,-1.738259947845225
1781515345855444480,1.2025794982910156,1.2621601819992065,-1.831947684288025,-0.7659205794334412,-0.8706385493278503,-0.2340657263994217,-0.43266817927360535,0.08380383253097534,0.07955524325370789,-0.25858551263809204,-0.5001499970748772,0.3332130788550671,0.4154936195095731,0.6827767493265624,0.2362574867146184,-1.1095876730826064,-1.7303145985395527
1781515345865477376,1.2126123905181885,1.4203391075134277,-1.8996617794036865,-0.8388829827308655,-0.8766471147537231,-0.2468235343694687,-0.412998765707016,-0.022889018058776855,0.09977458417415619,-0.3101915121078491,-0.4957019396616892,0.3345532409910296,0.4261158793085277,0.67880704255894,0.24940100239272958,-1.1305252211542298,-1.7214174889498208
1781515345875511296,1.2226464748382568,1.4539223909378052,-1.8933573961257935,-0.8912044763565063,-0.882128119468689,-0.26028135418891907,-0.39256030321121216,-0.11399614810943604,0.11538389325141907,-0.21892040967941284,-0.49110641906236846,0.3355430835493592,0.43718495939386487,0.6746070018943268,0.26331357985987097,-1.1520955969013797,-1.7114595658469016
1781515345885545216,1.232680320739746,1.36383855342865,-1.9236564636230469,-1.0130797624588013,-0.8868712782859802,-0.27414560317993164,-0.3718917667865753,-0.12513738870620728,0.10504770278930664,-0.2021591067314148,-0.48603996561922486,0.33639285149149845,0.4482119578856153,0.6706049920507314,0.2777011655734362,-1.1737379689870373,-1.701923523405895
1781515345895579392,1.2427144050598145,1.3189877271652222,-1.9634751081466675,-1.0437161922454834,-0.8910125494003296,-0.28821250796318054,-0.35075652599334717,-0.11374813318252563,0.03273460268974304,-0.23983487486839294,-0.48039145659731786,0.3373361796377689,0.4591579706999003,0.6667850405131699,0.29235959539037015,-1.1957668898010154,-1.6930724668961525
1781515345905612544,1.2527475357055664,1.2921007871627808,-2.0594534873962402,-1.0779615640640259,-0.8947242498397827,-0.302128404378891,-0.3289177715778351,-0.07727587223052979,-0.02482166886329651,-0.2270362377166748,-0.47441079708153133,0.3384337547481609,0.4701103097616051,0.662867464480278,0.30692461222259315,-1.2185121807400132,-1.6841883013489476
1781515345915646208,1.2627813816070557,1.3652244806289673,-2.0836408138275146,-1.1646466255187988,-0.8978555202484131,-0.3164333999156952,-0.30614590644836426,-0.05237025022506714,0.06969878077507019,-0.24034759402275085,-0.4679785911822965,0.3395166493392115,0.48130602022242136,0.6588390827078157,0.3219673060379637,-1.242184470302423,-1.675011283329667
1781515345925680384,1.272815465927124,1.5752184391021729,-2.058875322341919,-1.2457648515701294,-0.900069534778595,-0.33164989948272705,-0.2826358675956726,-0.06601011753082275,0.13665786385536194,-0.2634303867816925,-0.46144795676196654,0.3399761479775134,0.4930499854999087,0.6545102100648807,0.3380519226505752,-1.266531309283904,-1.6641420961449065
1781515345935713280,1.2828483581542969,1.6408872604370117,-2.0026955604553223,-1.3667203187942505,-0.9011285305023193,-0.3478579521179199,-0.2587706446647644,-0.09417176246643066,0.13205289840698242,-0.1768983006477356,-0.45485043961800486,0.33962319832380533,0.5052432621079476,0.6499972668054904,0.35528540146777315,-1.2911579232578823,-1.6516062866738335
1781515345945747456,1.2928824424743652,1.6151618957519531,-1.8924928903579712,-1.4753373861312866,-0.9008674025535583,-0.3647899925708771,-0.23530033230781555,-0.11669546365737915,0.18749812245368958,-0.09552544355392456,-0.447961309527967,0.3386340700464267,0.5173749116137304,0.6457405520296394,0.3734072500189388,-1.3153110513922979,-1.6388420356171434
1781515345955781376,1.3029165267944336,1.5183874368667603,-1.8143163919448853,-1.5853022336959839,-0.8992570042610168,-0.3822488784790039,-0.21265612542629242,-0.09416639804840088,0.2452707588672638,-0.10941112041473389,-0.4409656800807994,0.33691625363872413,0.5293008335719376,0.6417767051258418,0.3922287715614561,-1.3385824603999097,-1.6257769850404158
1781515345965814272,1.3129494190216064,1.478001356124878,-1.7244735956192017,-1.656129002571106,-0.8964547514915466,-0.39990559220314026,-0.1909036636352539,-0.05905050039291382,0.26695582270622253,-0.0649404227733612,-0.4335192506740695,0.3349562784116035,0.5406962705803507,0.6383672582055122,0.4114138516039191,-1.3609765365536541,-1.6138150645682774
1781515345975848448,1.3229835033416748,1.4475505352020264,-1.740267276763916,-1.71583890914917,-0.8926709890365601,-0.41764694452285767,-0.169439435005188,-0.014601409435272217,0.25240951776504517,-0.09787929058074951,-0.42580663127678403,0.3327561389071048,0.5518637852115489,0.6351444889610391,0.43085403908100295,-1.383216088973666,-1.601915198996722
1781515345985882368,1.333017349243164,1.3806140422821045,-1.7501420974731445,-1.779272198677063,-0.8880012631416321,-0.4354785680770874,-0.14769013226032257,0.03189152479171753,0.24611693620681763,-0.11680568754673004,-0.4177821406346941,0.3303999266893691,0.5630193792754759,0.6319044833329249,0.4505698271356753,-1.4059874177312341,-1.5896096888137903
1781515345995916288,1.3430514335632324,1.4882489442825317,-1.7724642753601074,-1.8512166738510132,-0.8822753429412842,-0.4536239802837372,-0.12576055526733398,0.019100844860076904,0.20896455645561218,-0.06302118301391602,-0.40934935688506413,0.32780566275145334,0.5741630190078981,0.6287396009780887,0.47082758693807303,-1.429208947523537,-1.577012837196409
1781515346005949184,1.3530843257904053,1.4117062091827393,-1.7148852348327637,-1.8984401226043701,-0.8756006956100464,-0.471748948097229,-0.10380958765745163,0.006246447563171387,0.1653066873550415,-0.022411108016967773,-0.4007502443792873,0.32494043767976,0.5852426157316124,0.6255430148052961,0.4912732547159161,-1.452789037821235,-1.5637427753185626
1781515346015983360,1.3631184101104736,1.418227195739746,-1.660148024559021,-1.9379249811172485,-0.8678995370864868,-0.48989784717559814,-0.08216164261102676,-0.012364804744720459,0.17990031838417053,-0.02390223741531372,-0.3920273942983335,0.32170494436930536,0.5961753998208706,0.6224109220659914,0.5119725847281168,-1.476410385386861,-1.5498937186616013
1781515346026017536,1.373152494430542,1.3869385719299316,-1.617165446281433,-1.9477957487106323,-0.859352707862854,-0.5077413320541382,-0.06092366576194763,-0.003180861473083496,0.20892846584320068,0.035166800022125244,-0.383306873463849,0.3181944205132277,0.606869408354582,0.6193042057589907,0.532561008180911,-1.5000199151694467,-1.5354681613703152
1781515346036050432,1.3831853866577148,1.2766717672348022,-1.6086227893829346,-1.9335124492645264,-0.8501047492027283,-0.5250757932662964,-0.04021444171667099,0.025504589080810547,0.20500749349594116,0.0982893705368042,-0.374449823035635,0.31469712038196496,0.6171373445922571,0.6163558050839695,0.5528041855416345,-1.5235262879714209,-1.5212581529168892
1781515346046084352,1.3932194709777832,1.190945029258728,-1.5804542303085327,-1.9256243705749512,-0.8402727842330933,-0.5417929887771606,-0.02004357799887657,0.03907972574234009,0.1864922046661377,0.12586325407028198,-0.3654412501040556,0.3113366861533342,0.6269351473318594,0.6135750574533123,0.5725688730121651,-1.5469471934766565,-1.507470863003605
1781515346056118528,1.4032535552978516,1.1501015424728394,-1.5052765607833862,-1.9181928634643555,-0.8298395276069641,-0.5580015778541565,-0.0006954115815460682,0.017583727836608887,0.15729057788848877,0.16158407926559448,-0.35647294246783634,0.307873973656893,0.6362907437271342,0.6109621134975665,0.5919756603270622,-1.5699583196959819,-1.4937440165622742
1781515346066151424,1.4132864475250244,1.0898003578186035,-1.467247724533081,-1.9332112073898315,-0.8187471032142639,-0.5738736987113953,0.0179403368383646,0.016180694103240967,0.14424735307693481,0.14892971515655518,-0.347540703628234,0.3042024957352967,0.6453146598391799,0.6084777471508888,0.611228203117899,-1.5927047602524373,-1.479783715810666
1781515346076185344,1.4233205318450928,1.0490587949752808,-1.462788462638855,-1.8909393548965454,-0.8072089552879333,-0.5891587734222412,0.03613635525107384,0.0534551739692688,0.15292519330978394,0.13961434364318848,-0.33855649644700486,0.30061853373711644,0.6539852245195881,0.606062234039109,0.6300173502138652,-1.6155334933630532,-1.4658608959854031
1781515346086219264,1.433354377746582,1.00972580909729,-1.453670620918274,-1.8500475883483887,-0.7953379154205322,-0.6037530303001404,0.05403537303209305,0.086017906665802,0.15813535451889038,0.11913669109344482,-0.32961604015782786,0.29711577499379144,0.662374442889046,0.603602134297173,0.6482006637829821,-1.638632225586178,-1.4516274143911725
1781515346096253440,1.4433884620666504,0.8613743782043457,-1.4738914966583252,-1.8075387477874756,-0.7832061648368835,-0.6176495552062988,0.07139277458190918,0.1123536229133606,0.1327863335609436,0.15596318244934082,-0.3205947778247525,0.293882238080026,0.6703205345578213,0.6012674255908806,0.6657505542692225,-1.6616996213228596,-1.4378845442732622
1781515346106286336,1.4534213542938232,0.723787248134613,-1.4741140604019165,-1.7503620386123657,-0.7708773612976074,-0.6309009790420532,0.08781934529542923,0.10475480556488037,0.12549930810928345,0.17533373832702637,-0.31139697304514696,0.2910624851365592,0.6776372937082065,0.5992681720335835,0.6827139135418104,-1.6842285928524452,-1.4255173427381544
1781515346116320256,1.4634554386138916,0.66700679063797,-1.4482682943344116,-1.69124174118042,-0.758471667766571,-0.6434370875358582,0.10348658263683319,0.08778685331344604,0.13831013441085815,0.10934293270111084,-0.3022422844804489,0.2885059811255135,0.6844761441888836,0.597416370957812,0.6989798449035289,-1.7063999324554102,-1.4137622849371745
1781515346126354432,1.47348952293396,0.6510443091392517,-1.4751603603363037,-1.6340423822402954,-0.7460266947746277,-0.655238926410675,0.11876849085092545,0.10622572898864746,0.14028537273406982,0.06680892407894135,-0.2931896188164349,0.2861583666940951,0.6910120353311079,0.5955296230669638,0.7144988891318274,-1.7286728205716222,-1.4019892852198284
1781515346136387328,1.4835224151611328,0.6737978458404541,-1.458117961883545,-1.6145951747894287,-0.7334251999855042,-0.6664103269577026,0.13410845398902893,0.12336349487304688,0.14965611696243286,0.07829393446445465,-0.28416350864697487,0.2839735727370088,0.6974333221123717,0.5934618891206512,0.7293838110102071,-1.7516506382341284,-1.3896481207449476
1781515346146421504,1.4935564994812012,0.6640623807907104,-1.3418619632720947,-1.5952789783477783,-0.720607340335846,-0.6771749258041382,0.14885947108268738,0.09246402978897095,0.17207849025726318,0.11101293563842773,-0.2754132662761912,0.28155419714665797,0.7036739107227923,0.5913694210525148,0.7439164991011599,-1.7745059540132222,-1.3765703688459987
1781515346156455168,1.5035903453826904,0.611646831035614,-1.240920901298523,-1.5744181871414185,-0.7077420353889465,-0.6875302791595459,0.16249151527881622,0.08159756660461426,0.15377777814865112,0.1521752029657364,-0.26705152920507647,0.27888000150114284,0.7095573976149818,0.5894385434707881,0.7580824859400473,-1.7964766497852278,-1.363327408429888
1781515346166488320,1.5136234760284424,0.49949076771736145,-1.1637427806854248,-1.5478001832962036,-0.6948748826980591,-0.6975464820861816,0.17486606538295746,0.0821428894996643,0.09152835607528687,0.19477809965610504,-0.2589379984518384,0.27611473808872294,0.7149781019773939,0.587807982236047,0.7719676341383979,-1.8173284144471988,-1.3506323478291404
1781515346176522240,1.5236573219299316,0.36110278964042664,-1.1075012683868408,-1.5228151082992554,-0.6820049285888672,-0.7073766589164734,0.18570847809314728,0.07931327819824219,0.08126276731491089,0.1720186471939087,-0.25092437120867855,0.27338414596040833,0.7198022965992845,0.586670923143007,0.7857799107608455,-1.8366486350657207,-1.3393230644307983
1781515346186556416,1.53369140625,0.2976287603378296,-1.0980877876281738,-1.485548734664917,-0.6691580414772034,-0.7169484496116638,0.19548062980175018,0.0929861068725586,0.14427077770233154,0.10649088025093079,-0.2429629783111615,0.27076928277616946,0.7241714626844328,0.5858573164769123,0.799415117753088,-1.8550166817575087,-1.3290213601141592
1781515346196590336,1.5437254905700684,0.32066109776496887,-1.1226876974105835,-1.4447085857391357,-0.6563425064086914,-0.7260564565658569,0.20507650077342987,0.11656290292739868,0.1963781714439392,0.04942485690116882,-0.235039351545026,0.26833366652474583,0.7283785349584395,0.5849941870010169,0.8125695409589488,-1.8736388038105571,-1.3186433141367813
1781515346206623232,1.5537583827972412,0.3469909727573395,-1.1634833812713623,-1.4198684692382812,-0.6434640288352966,-0.7346540689468384,0.21502889692783356,0.1374063491821289,0.18364399671554565,0.006391391158103943,-0.2271128555597901,0.26606147375012984,0.7326156845124845,0.5838709514826871,0.8251566533562484,-1.8933032277778534,-1.3074426805717219
1781515346216657408,1.5637924671173096,0.3591214120388031,-1.1917967796325684,-1.4045110940933228,-0.6304057836532593,-0.7428730130195618,0.22522908449172974,0.13658565282821655,0.14134109020233154,0.017462000250816345,-0.21910394243719386,0.26392871493934217,0.7368556028045434,0.5825623460220517,0.837351915712749,-1.9139386673203407,-1.2955740627095838
1781515346226692096,1.5738272666931152,0.3933986723423004,-1.1740564107894897,-1.3805371522903442,-0.6172528862953186,-0.7506967782974243,0.23548482358455658,0.11658155918121338,0.11736553907394409,0.04712317883968353,-0.21114201216242984,0.2618413826918315,0.7410678113126853,0.581099467808092,0.8491161546061441,-1.9352574444539172,-1.282988824705823
1781515346236725248,1.5838603973388672,0.42571455240249634,-1.1342653036117554,-1.3923019170761108,-0.6039861440658569,-0.758179247379303,0.24569229781627655,0.08198308944702148,0.11778324842453003,0.05960544943809509,-0.2033410795002332,0.25962045259400357,0.7452807332938377,0.5794878405954995,0.8605161834874363,-1.9571378215049178,-1.269368330619147
1781515346246759168,1.5938942432403564,0.3907482922077179,-1.100657343864441,-1.3833147287368774,-0.590575098991394,-0.7654465436935425,0.2555635869503021,0.05088698863983154,0.12529456615447998,0.10886204242706299,-0.19566583769667478,0.25724634886938313,0.7494038396176206,0.5778694714493783,0.8717349946995077,-1.9792018570592778,-1.2551169409625689
1781515346256793344,1.6039283275604248,0.36812448501586914,-1.1010565757751465,-1.3851630687713623,-0.5770412087440491,-0.7725587487220764,0.2649085819721222,0.03881794214248657,0.15439468622207642,0.1269676685333252,-0.18800106799145047,0.25486198311220254,0.7533257288184382,0.57636911616988,0.8828611693346481,-2.001176160137029,-1.2408977971306945
1781515346266827264,1.6139624118804932,0.34318476915359497,-1.1149531602859497,-1.3917303085327148,-0.5632143616676331,-0.7795494198799133,0.27402931451797485,0.03732019662857056,0.19838804006576538,0.10222181677818298,-0.1802270396140546,0.252479715469235,0.7571450657932924,0.5748943135729973,0.8939461457656811,-2.023622395950995,-1.2263480946959342
1781515346276860160,1.623995304107666,0.35997840762138367,-1.1173458099365234,-1.390149474143982,-0.5491601228713989,-0.7863142490386963,0.2830776274204254,0.0435754656791687,0.20586997270584106,0.058581918478012085,-0.17241018844449937,0.2500899787206035,0.7609164287859611,0.5733549163623911,0.9048204390279305,-2.0467461491868733,-1.2111528182321754
1781515346286894336,1.6340293884277344,0.3645630478858948,-1.1651325225830078,-1.397449016571045,-0.5348800420761108,-0.7928383350372314,0.292080283164978,0.056257545948028564,0.1751013994216919,0.03966107964515686,-0.16452893561883214,0.2477245547690149,0.7646389226816666,0.5717430817371989,0.915452299050765,-2.0706148397721664,-1.1953262528203397
1781515346296928256,1.6440632343292236,0.37993213534355164,-1.2110137939453125,-1.4334373474121094,-0.5200303196907043,-0.7992156147956848,0.3013683259487152,0.07267314195632935,0.16644889116287231,-0.0379558801651001,-0.15635786504049345,0.24539263953654847,0.7684182587363692,0.5699719849901148,0.9259890583987592,-2.0960213829158434,-1.1784231215585002
1781515346306961408,1.6540963649749756,0.5417998433113098,-1.2110153436660767,-1.4276976585388184,-0.504768967628479,-0.8051723837852478,0.3112970292568207,0.06623142957687378,0.1203274130821228,-0.060976624488830566,-0.14812773025146678,0.24298599580430474,0.7724029541082618,0.5678113296559691,0.9359660632462644,-2.123413431832118,-1.1595005570411234
1781515346316995072,1.6641302108764648,0.674717128276825,-1.195459008216858,-1.431232213973999,-0.48938673734664917,-0.8103293180465698,0.32228371500968933,0.07948994636535645,0.09035873413085938,-0.10806551575660706,-0.14015682858207612,0.24040391350442739,0.7767546696276642,0.5649903821156086,0.9447139263381886,-2.153155892034055,-1.137587345604078
1781515346327029248,1.6741642951965332,0.5987887978553772,-1.2415186166763306,-1.4468423128128052,-0.47362926602363586,-0.8151668310165405,0.3334338366985321,0.09859883785247803,0.11150789260864258,-0.03059270977973938,-0.13209958919234413,0.2377734372063566,0.7811406453536489,0.5619899430666415,0.9530171533559165,-2.1842001461155225,-1.1144233092354818
1781515346337062400,1.6841974258422852,0.4654640853404999,-1.2203805446624756,-1.4430372714996338,-0.457611083984375,-0.8201082944869995,0.3435322642326355,0.078155517578125,0.1440523862838745,0.06299233436584473,-0.12383146828606018,0.2352296546869588,0.785132567575725,0.5593743123088876,0.9616002826717166,-2.2147503626581595,-1.0921732516818157
1781515346347096320,1.6942312717437744,0.5267071723937988,-1.1888476610183716,-1.462992787361145,-0.4414251148700714,-0.8249114155769348,0.3530797064304352,0.04738205671310425,0.18747538328170776,0.004097968339920044,-0.11558418538288016,0.23259154023380454,0.7889493238540187,0.5568667070225914,0.9700454698220979,-2.2454538866078266,-1.0695860338556546
1781515346357130240,1.7042653560638428,0.37614619731903076,-1.1852177381515503,-1.4733871221542358,-0.42494627833366394,-0.8297150135040283,0.361930787563324,0.04130971431732178,0.20837700366973877,0.07559970021247864,-0.1072972469576616,0.22979694791241054,0.7925646747881377,0.554546635180631,0.9785968865199909,-2.2762820508774446,-1.0466821740603254
1781515346367164160,1.714299201965332,0.26561036705970764,-1.1450893878936768,-1.492581844329834,-0.4082582890987396,-0.834760844707489,0.3694590628147125,0.01653456687927246,0.1506023406982422,0.12565824389457703,-0.09887521567687874,0.22696926747096413,0.7957477524414702,0.5527154339032571,0.9876983223102259,-2.3063472206665865,-1.0246628575586199
1781515346377197312,1.724332332611084,0.3925060033798218,-1.1071467399597168,-1.4941363334655762,-0.39151322841644287,-0.8395487666130066,0.3766631782054901,0.02188435196876526,0.15749621391296387,0.03991696238517761,-0.09061224035686392,0.22395520679670958,0.7988589679262776,0.5508700321381971,0.9964521191054038,-2.336865328814482,-1.001672929153944
1781515346387231232,1.7343664169311523,0.5053691267967224,-1.0887227058410645,-1.4832535982131958,-0.3747464120388031,-0.8435369729995728,0.3847215473651886,0.0606289803981781,0.18905699253082275,-0.02166914939880371,-0.08260320539380729,0.22080594748200516,0.8022502759022124,0.5484669694570521,1.003835271562483,-2.369328083401545,-0.976191214427532
1781515346397265152,1.7444002628326416,0.48640158772468567,-1.0665497779846191,-1.483966588973999,-0.35797226428985596,-0.8470205664634705,0.39295268058776855,0.08136099576950073,0.13446581363677979,-0.02320164442062378,-0.0747427842983381,0.21758693475416255,0.8056874455043307,0.5458361391202642,1.0103548884668454,-2.4027439203054275,-0.9494490212244547
1781515346407298304,1.7544333934783936,0.4335727393627167,-1.0627797842025757,-1.5055294036865234,-0.34098970890045166,-0.8504311442375183,0.4006160795688629,0.08186492323875427,0.09917980432510376,-0.04694777727127075,-0.06684469405340741,0.21426704202802663,0.8089484969700843,0.5433450813222268,1.0168042826069401,-2.4364235947539403,-0.9223448203757167
1781515346417332224,1.7644672393798828,0.3650754392147064,-1.0723412036895752,-1.5124658346176147,-0.32376569509506226,-0.8538529872894287,0.40756726264953613,0.08746805787086487,0.15446627140045166,-0.04849737882614136,-0.05882711198227614,0.21090983048723078,0.8119733188825518,0.5410691626917734,1.023343279491459,-2.4702842980631172,-0.8951701193964672
1781515346427366144,1.7745013236999512,0.3647153675556183,-1.0766936540603638,-1.4965779781341553,-0.3063926100730896,-0.8571321964263916,0.4140627980232239,0.09292218089103699,0.18518096208572388,-0.01445034146308899,-0.05073672650276353,0.20756754299818703,0.8148294980037935,0.5388825503481163,1.0296761121315587,-2.5045439366127105,-0.8677252321502146
1781515346437400320,1.7845354080200195,0.3237873911857605,-1.0374928712844849,-1.5010342597961426,-0.28908297419548035,-0.8601065874099731,0.42029517889022827,0.08858245611190796,0.1387472152709961,0.01169651746749878,-0.04272989083099392,0.2042299560684866,0.8175804019728556,0.5366811751867921,1.035478558304628,-2.539095217682749,-0.8398831149636297
1781515346447433216,1.7945683002471924,0.21304701268672943,-1.0255869626998901,-1.5245856046676636,-0.2716345489025116,-0.8632423877716064,0.42547333240509033,0.08068603277206421,0.1146308183670044,0.05650609731674194,-0.034715656139365045,0.20071145892687617,0.820031444633805,0.5348441419896413,1.0416580280319532,-2.5733946758665933,-0.8120178570101081
1781515346457467392,1.8046023845672607,0.20032723248004913,-0.9932650923728943,-1.5358949899673462,-0.25399672985076904,-0.8664222955703735,0.42988142371177673,0.05753982067108154,0.11210405826568604,0.07355177402496338,-0.026631905438718698,0.19709576213961869,0.82224933414706,0.5332448195863773,1.0479919387883716,-2.6079260403178752,-0.7838685992573647
1781515346467501056,1.81463623046875,0.32154232263565063,-0.8960932493209839,-1.54404878616333,-0.23648685216903687,-0.869120717048645,0.43439948558807373,0.020102009177207947,0.09832310676574707,0.008257925510406494,-0.018860818565750465,0.1932279640979744,0.8245378700051957,0.531455012624505,1.0534217199318012,-2.643059428848483,-0.7543094099623777
1781515346477534208,1.824669361114502,0.3993745446205139,-0.8351608514785767,-1.5556588172912598,-0.21918074786663055,-0.8710467219352722,0.43958789110183716,0.038852378726005554,0.09411495923995972,-0.05618023872375488,-0.011525833182255418,0.18906652200407037,0.8270718192788381,0.5292194692030422,1.0573292549376823,-2.6790616059997947,-0.7228541472611223
1781515346487568128,1.8347032070159912,0.47721874713897705,-0.8347927927970886,-1.5506880283355713,-0.2019147276878357,-0.872378408908844,0.4451810419559479,0.07995124161243439,0.07368767261505127,-0.08885791897773743,-0.00436755608275638,0.18480627554405238,0.8297211319755684,0.526678597412428,1.0600469225696019,-2.7157851232626826,-0.6903098213687615
1781515346497602304,1.8447372913360596,0.4903832972049713,-0.8316823840141296,-1.5586178302764893,-0.1845625787973404,-0.8731814622879028,0.4510995149612427,0.0881575495004654,0.030026555061340332,-0.13234341144561768,0.0027572917048102907,0.18053348930916985,0.8324406400872175,0.5238727165550751,1.0616920844820135,-2.7532324186078263,-0.6570106092851851
1781515346507636224,1.854771375656128,0.3804328143596649,-0.8329108953475952,-1.5761876106262207,-0.16703349351882935,-0.8739525675773621,0.45640647411346436,0.07129983603954315,0.07404106855392456,-0.10398948192596436,0.009943122722089252,0.17615262377260976,0.8349691547728847,0.5212465314264232,1.0632764579530765,-2.7907574450124146,-0.6235659606470442
1781515346517669120,1.8648042678833008,0.3119754493236542,-0.8520174026489258,-1.5806033611297607,-0.1493055671453476,-0.8748945593833923,0.4607248306274414,0.052641138434410095,0.21389907598495483,-0.027344703674316406,0.017302332782681305,0.1717565297426034,0.8371750764170749,0.5189780498577957,1.065218051801444,-2.828205124863756,-0.590418466543925
1781515346527703296,1.8748383522033691,0.39047399163246155,-0.7854154706001282,-1.5413382053375244,-0.13173016905784607,-0.8755078315734863,0.4649018347263336,0.012955710291862488,0.2949259281158447,0.04312443733215332,0.024542905907482777,0.16734938917926487,0.8393122800449894,0.5166690412218287,1.0664857669056527,-2.865479738075917,-0.5572770855649685
1781515346537737216,1.8848721981048584,0.5438938736915588,-0.6849583387374878,-1.4886260032653809,-0.11499287188053131,-0.8751823902130127,0.4699283242225647,-0.003064386546611786,0.2259056568145752,0.04795503616333008,0.03115669568236058,0.16292035949713074,0.8416775592034738,0.5138727110552903,1.0658126642406254,-2.90160557774821,-0.5243986758328609
1781515346547770368,1.8949053287506104,0.616957426071167,-0.6630730628967285,-1.4202256202697754,-0.09902985394001007,-0.8740066289901733,0.4757159352302551,0.04121430218219757,0.08981168270111084,0.02024054527282715,0.037260465470432075,0.1585677338402092,0.8442240433355629,0.5106405120887098,1.06338766999672,-2.9363536629981155,-0.4923250973690255
1781515346557804288,1.9049394130706787,0.7458749413490295,-0.6967775821685791,-1.3094996213912964,-0.08380988240242004,-0.8719989061355591,0.48228025436401367,0.10006045550107956,-0.036952078342437744,-0.03664720058441162,0.043093995579585105,0.15465060604025604,0.8468903776922861,0.5069545706662408,1.0592711182590502,-2.9695325453280925,-0.46213207862880384
1781515346567838208,1.914973258972168,0.7707845568656921,-0.713513970375061,-1.2341673374176025,-0.06930644810199738,-0.8692377805709839,0.4895120859146118,0.10542400926351547,-0.11350440979003906,-0.1336314082145691,0.048711388555249174,0.15121501644553478,0.8496411397661439,0.5028629020757462,1.0536585510162482,-3.00094477418468,-0.4341612217587294
1781515346577872384,1.9250073432922363,0.6695095896720886,-0.8033010959625244,-1.1917165517807007,-0.05498974025249481,-0.8664315342903137,0.4962587356567383,0.10975351929664612,-0.06881028413772583,-0.175686776638031,0.05445315379798461,0.14812074307134762,0.8521676010420073,0.4989043556063383,1.0480103937899021,-3.031234257141838,-0.40801256541174535
1781515346587905280,1.9350402355194092,0.6499814391136169,-0.8903198838233948,-1.130342960357666,-0.04064105078577995,-0.8636950254440308,0.5023737549781799,0.12096332013607025,0.008561968803405762,-0.16805362701416016,0.060514930988437944,0.1454684673554133,0.8544154708632697,0.49512736847541283,1.0425553812897057,-3.060870400433611,-0.3836483169288715
1781515346597939200,1.9450743198394775,0.6029585599899292,-0.9191156029701233,-1.1115155220031738,-0.026379913091659546,-0.8608508110046387,0.5081734657287598,0.10723622888326645,0.03083360195159912,-0.12357562780380249,0.06671048836751751,0.14312068321976604,0.8565063910535311,0.49138890948315805,1.0369392654201761,-3.089727969242341,-0.3607320192292892
1781515346607973376,1.955108404159546,0.4690108895301819,-0.934686541557312,-1.11831796169281,-0.011986643075942993,-0.8583083152770996,0.5129947066307068,0.0619133859872818,0.05764901638031006,-0.014886677265167236,0.0730622234451979,0.1407779592856691,0.8583000223796634,0.4880212051900857,1.031963775468344,-3.118230889103585,-0.338396154208004
1781515346618006272,1.9651412963867188,0.6509966254234314,-0.8923500180244446,-1.0358859300613403,0.0020382509101182222,-0.8556075692176819,0.5176213383674622,0.03273652121424675,0.07438796758651733,0.06416589021682739,0.0792789580964386,0.13857116163257557,0.8600050547902667,0.48466923713141535,1.026723414576223,3.1376549478056948,-0.31729047652016035
1781515346628040192,1.975175380706787,0.8114669919013977,-0.7909714579582214,-1.0105472803115845,0.015159418806433678,-0.8515951037406921,0.5239806175231934,0.03696461394429207,0.03090125322341919,0.013327062129974365,0.08485938596966544,0.13651313042356625,0.8621800740048298,0.48042530463637034,1.0190207173638186,3.1126694634763217,-0.2979017812215483
1781515346638074112,1.9852092266082764,0.7821799516677856,-0.7884126901626587,-1.0452337265014648,0.02805851213634014,-0.8471248745918274,0.5306529402732849,0.06457759439945221,0.014650940895080566,-0.020765185356140137,0.0901767104237111,0.13430585065206121,0.8644584451647637,0.4759640991116342,1.0105512228823565,3.0887663998198134,-0.27903709307800467
1781515346648107264,1.9952423572540283,0.7922533750534058,-0.790695309638977,-1.0500608682632446,0.04120270907878876,-0.8425673246383667,0.5370128154754639,0.06728728115558624,-0.005592465400695801,-0.05689501762390137,0.09558433005794151,0.13198460241129004,0.8666524546032759,0.47154773352706897,1.002032334084659,3.0650169378522576,-0.26031340935335506
1781515346658141184,2.0052762031555176,0.7991269826889038,-0.7911993265151978,-1.0562388896942139,0.054342418909072876,-0.8377462029457092,0.5433490872383118,0.057702865451574326,-0.04302161931991577,-0.09525954723358154,0.10096758096775879,0.12965012990301772,0.8688299005373877,0.4670449885832468,0.9931427129526268,3.041910317504902,-0.2422161922657704
1781515346668175104,2.015310287475586,0.7585601210594177,-0.8226797580718994,-1.0601290464401245,0.06760335713624954,-0.8327643275260925,0.5494846105575562,0.07088540494441986,-0.046187639236450195,-0.09957927465438843,0.1064284799961924,0.1273241886213267,0.8709367630070147,0.462526390325228,0.9840821861630896,3.019177338714654,-0.2246531755206118
1781515346678209280,2.0253443717956543,0.6437845230102539,-0.8400986790657043,-1.074613094329834,0.08111200481653214,-0.8280889391899109,0.5546981692314148,0.07143012434244156,-0.020910263061523438,-0.03690624237060547,0.1120919075064098,0.1249583619310784,0.8727740262223569,0.45835190700132405,0.9756900425205584,2.9963944396249227,-0.20727184798009116
1781515346688242176,2.035377264022827,0.5671853423118591,-0.8321020007133484,-1.0591415166854858,0.09464377164840698,-0.8237882256507874,0.5589412450790405,0.020788945257663727,-0.018420517444610596,0.024936258792877197,0.11784337598217008,0.12255715920632969,0.874328520776537,0.45457921347929087,0.9680613418830495,2.973856784046815,-0.1901948819621485
1781515346698276352,2.0454113483428955,0.5012233853340149,-0.799900233745575,-1.048322081565857,0.10790522396564484,-0.8197275400161743,0.5624975562095642,-0.01304132491350174,0.035288333892822266,0.03174084424972534,0.12348236261268589,0.12010073801643158,0.8756852077629946,0.45111353087528033,0.960935150939276,2.952062803547224,-0.1736006569184956
1781515346708310016,2.0554451942443848,0.5044348835945129,-0.7933928370475769,-1.0436527729034424,0.12102028727531433,-0.8157007694244385,0.5656732320785522,-0.010165199637413025,0.09856826066970825,0.03779655694961548,0.12905237433191702,0.11760134136333406,0.8769301784451443,0.44778213257084243,0.9539396176541567,2.9308296194829184,-0.15740932063894983
1781515346718344192,2.065479278564453,0.614250898361206,-0.7459869384765625,-1.0134522914886475,0.1338178813457489,-0.8111806511878967,0.5692787170410156,-0.008848428726196289,0.059227705001831055,0.019496798515319824,0.13443252366321365,0.11518120954943535,0.8782782294135123,0.4441715769973234,0.9461682142514461,2.9107184686767127,-0.14223822902499397
1781515346728377344,2.075512409210205,0.6435134410858154,-0.6850897669792175,-0.9867485761642456,0.14601962268352509,-0.8061532974243164,0.5734063386917114,0.007178604602813721,0.003464818000793457,-0.030941307544708252,0.13943198361696946,0.1127831264046554,0.8797631177416063,0.4402901783436302,0.9376219452543502,2.8922395474167657,-0.12822491562412797
1781515346738411264,2.0855462551116943,0.6565149426460266,-0.6564898490905762,-0.9748080372810364,0.15779747068881989,-0.800870418548584,0.5776731967926025,0.06476722657680511,0.023481011390686035,-0.07802420854568481,0.144168295418891,0.11036305588392668,0.8812812183527787,0.4363242519759477,0.9287473644052926,2.874937459586708,-0.11499814539715594
1781515346748445184,2.0955803394317627,0.7604647874832153,-0.6555470824241638,-0.9753789901733398,0.1693783849477768,-0.795238733291626,0.5821565985679626,0.10515773296356201,0.04247695207595825,-0.09271568059921265,0.1488082988325057,0.10802256818838353,0.8828416671810723,0.43217795562365274,0.9194012175267886,2.858459255874223,-0.10262218969495447
1781515346758478080,2.1056132316589355,0.8786910772323608,-0.6758357882499695,-0.9797735214233398,0.18105725944042206,-0.7886349558830261,0.5875993967056274,0.09834639728069305,0.0434415340423584,-0.13862484693527222,0.15342234306686084,0.10575213005578889,0.8846559711790446,0.4273895830561527,0.9085857694951943,2.842693524709256,-0.09114872287124058
1781515346768512256,2.115647315979004,0.8883324861526489,-0.7174546122550964,-0.9579715132713318,0.19278842210769653,-0.781566858291626,0.5932837128639221,0.12206140160560608,0.10630452632904053,-0.1063910722732544,0.15809932141829416,0.10362228320813757,0.8865124251188659,0.42233002471634995,0.8971735830162693,2.827404637379558,-0.0805342502370523
1781515346778546432,2.1256814002990723,0.7986742258071899,-0.736821711063385,-0.9516502618789673,0.20464013516902924,-0.7745485305786133,0.5984952449798584,0.13585969805717468,0.1291477084159851,-0.04832446575164795,0.16293827116185744,0.10159676733435241,0.8882148981241675,0.4173767705515256,0.8860010199780043,2.812130137700017,-0.07035876902603709
1781515346788580096,2.1357152462005615,0.5538716912269592,-0.7401450276374817,-0.9303452372550964,0.2163894921541214,-0.768494188785553,0.6021563410758972,0.1199905127286911,0.10241752862930298,0.004746675491333008,0.16785889314453079,0.09949528925685576,0.8894823525732858,0.41321327646615785,0.8764844324808196,2.796605825104842,-0.059854683916363734
1781515346798613248,2.1457483768463135,0.43357327580451965,-0.70526522397995,-0.9025519490242004,0.22784435749053955,-0.7635418772697449,0.604227602481842,0.11906422674655914,0.05168873071670532,0.013783872127532959,0.17276349003654434,0.09731071444740783,0.8903058116655708,0.40992566525364227,0.8687803120743693,2.78099647313419,-0.0490042064675225
1781515346808647168,2.1557822227478027,0.4703965187072754,-0.5945634841918945,-0.8821209669113159,0.2385830134153366,-0.758695662021637,0.6061842441558838,0.13415871560573578,-0.002138197422027588,-0.005918681621551514,0.17726635299721644,0.09505995421572162,0.8910980512219984,0.40679799150564927,0.861308545196245,2.7666315475496597,-0.0386810233122055
1781515346818681344,2.165816307067871,0.39753350615501404,-0.5537757873535156,-0.8944774866104126,0.24877171218395233,-0.7538554072380066,0.6081237196922302,0.16011802852153778,0.008478879928588867,-0.020538389682769775,0.18139360187356962,0.09262285909655728,0.8918984674964444,0.4037752372106812,0.8539103481815135,2.753282636264068,-0.0285194417847026
1781515346828714240,2.175849199295044,0.3386653959751129,-0.5851137638092041,-0.86821448802948,0.25892263650894165,-0.7494221925735474,0.6093648672103882,0.15481945872306824,0.04385572671890259,-0.009023129940032959,0.18556821170868495,0.09014752909448942,0.8924997844083398,0.40110101185880237,0.847188906341811,2.7398018333277325,-0.018201039170194486
1781515346838748160,2.1858832836151123,0.30201470851898193,-0.561592698097229,-0.8261168003082275,0.26879817247390747,-0.7451803088188171,0.6102901101112366,0.09957948327064514,0.009172618389129639,0.009827136993408203,0.1897016072545511,0.08781801235553048,0.892991077019039,0.39858287479137866,0.8408052268053562,2.7267144793203766,-0.008424286599728714
1781515346848782336,2.1959173679351807,0.11359233409166336,-0.5617634057998657,-0.8082597851753235,0.27829721570014954,-0.741619884967804,0.6103692650794983,0.055992335081100464,-0.007586658000946045,0.020596981048583984,0.19372561246105627,0.0854658345210001,0.8932414116744727,0.39659271320340217,0.8354819687395417,2.713802600746724,0.0014565562007613523
1781515346858816256,2.20595121383667,0.07166246324777603,-0.6217054724693298,-0.7454121112823486,0.28774476051330566,-0.738936185836792,0.6092420220375061,0.06497734785079956,0.03625380992889404,0.03138279914855957,0.1979215115364597,0.08323905782322842,0.8931362061779645,0.3952289573758267,0.8314900993376918,2.70034992113029,0.011518919744162867
1781515346868849152,2.215984344482422,0.11019387096166611,-0.6193738579750061,-0.7509653568267822,0.2970375120639801,-0.7361739873886108,0.6081257462501526,0.038716912269592285,0.049894630908966064,0.018705427646636963,0.20213229623412324,0.08122667325011512,0.8930090073629117,0.39380168854638586,0.8273996690686233,2.687229639570498,0.020876126752301133
1781515346878883328,2.2260184288024902,0.11796710640192032,-0.6476808786392212,-0.7334478497505188,0.3063953220844269,-0.7332081198692322,0.6070648431777954,0.0024730265140533447,0.06046342849731445,-0.0022980570793151855,0.20638877244374687,0.07924461011170969,0.8928900972210603,0.39226423848355035,0.8230277987513314,2.674179396138082,0.030010805405384075
1781515346888917248,2.2360522747039795,0.14094193279743195,-0.6876453757286072,-0.7112197875976562,0.31574928760528564,-0.7301556468009949,0.6059500575065613,0.020890116691589355,0.0506511926651001,-0.013710558414459229,0.21074479368657764,0.07747060175921222,0.8927336256373416,0.3906555092544245,0.8185497505663637,2.66122251427173,0.03855300605859448
1781515346898950400,2.2460854053497314,0.13294632732868195,-0.7237705588340759,-0.7157889604568481,0.325260192155838,-0.727022647857666,0.6046851873397827,0.04992291331291199,-0.0038428902626037598,0.02046746015548706,0.21525106251125745,0.07579961017370788,0.8925228319675367,0.3890044657830834,0.8139756216262185,2.6480866468480406,0.046857881867883394
1781515346908984064,2.2561192512512207,0.175961434841156,-0.735262930393219,-0.7180915474891663,0.3348853290081024,-0.7237474322319031,0.6033586859703064,0.05309990048408508,-0.024543583393096924,0.03601515293121338,0.21985297477708654,0.07418238490975883,0.8922871195853675,0.3872794843126254,0.8092175100018547,2.6348918303371867,0.05495744336953154
1781515346919018240,2.266153335571289,0.18854832649230957,-0.762651264667511,-0.7225278615951538,0.3446539640426636,-0.7201561331748962,0.6021537184715271,0.062481075525283813,0.024889349937438965,0.04378145933151245,0.22453858712049216,0.07260464860958821,0.8920792729364637,0.3853643146172831,0.8040273184940119,2.621738100212478,0.06276728715494934
1781515346929052416,2.2761874198913574,0.3022615909576416,-0.7337415814399719,-0.702340841293335,0.3543458878993988,-0.716210663318634,0.6012328267097473,0.03392919898033142,0.027429044246673584,0.13314199447631836,0.2292107744416086,0.0711597796283711,0.8919376051839368,0.3832047696548005,0.7983573316010555,2.609029326707185,0.06988100236452308
1781515346939085312,2.2862203121185303,0.3694102466106415,-0.6612843871116638,-0.710107147693634,0.36360156536102295,-0.7116446495056152,0.6011291146278381,-0.02481064200401306,-0.04244476556777954,0.12552505731582642,0.23355500004587504,0.06971293035975107,0.8920227872651704,0.38064109444167316,0.791836473285424,2.5976041060518353,0.07612646397082334
1781515346949119232,2.2962543964385986,0.39474064111709595,-0.6452263593673706,-0.6811425685882568,0.3724696934223175,-0.7067267894744873,0.6015010476112366,-0.0028865933418273926,-0.04443281888961792,0.09840434789657593,0.2376484756517726,0.06829094276865486,0.8922370073291136,0.3778527041648671,0.7848609456415809,2.5871506802011295,0.08168788367686601
1781515346959153152,2.306288242340088,0.31193363666534424,-0.655687689781189,-0.6942405700683594,0.3812595009803772,-0.7019503116607666,0.6015868186950684,-0.002307504415512085,-0.011825263500213623,0.07768851518630981,0.24173827133181328,0.06687207098951423,0.892368500170092,0.375192094885534,0.778132119619462,2.5767213786092547,0.08722832374334369
1781515346969187328,2.3163223266601562,0.2087518721818924,-0.6519986391067505,-0.6841658353805542,0.3900413513183594,-0.6977414488792419,0.6008530259132385,-0.04102712869644165,-0.018734872341156006,0.0235518217086792,0.245871695983721,0.06532405070171067,0.8922775802004099,0.3729886222777639,0.7722397629740818,2.5658180050235617,0.09344275778571738
1781515346979220224,2.326355218887329,0.15718507766723633,-0.6502768993377686,-0.6842872500419617,0.39873063564300537,-0.6939364075660706,0.599555492401123,-0.02719426155090332,-0.023806750774383545,-0.008292436599731445,0.250001822937997,0.0637116904737224,0.8920305908998111,0.37110852679039186,0.7669416918023448,2.554714449105006,0.10000889136886841
1781515346989254144,2.3363893032073975,0.09284976869821548,-0.6591713428497314,-0.6925781965255737,0.4074667692184448,-0.6904312372207642,0.5977254509925842,0.02277010679244995,-0.034788548946380615,0.05176490545272827,0.2541794153811038,0.06198375781007162,0.8916393536333342,0.3694998637455385,0.7620850004861596,2.5432574999862667,0.10706704952982969
1781515346999288320,2.346423387527466,0.09815185517072678,-0.5955862402915955,-0.6841709017753601,0.41598865389823914,-0.6870015859603882,0.5958037972450256,0.038265496492385864,-0.06209808588027954,0.12164920568466187,0.25824492533328774,0.0602185364939081,0.8912214205594873,0.36797777315250857,0.7573546753958491,2.532077514070264,0.11408480986905041
1781515347009321216,2.3564562797546387,0.06196562573313713,-0.5398952960968018,-0.6800168752670288,0.4240618050098419,-0.683627188205719,0.5939908623695374,0.034907251596450806,-0.05515754222869873,0.1023133397102356,0.2619997665302229,0.05829754440960808,0.890840520301581,0.3665523219701406,0.7527210669807046,2.5215855362867194,0.12115370214441887
1781515347019355392,2.366490364074707,0.07039559632539749,-0.5077256560325623,-0.6476163268089294,0.43173375725746155,-0.680439293384552,0.5921217799186707,0.04179218411445618,-0.005366921424865723,0.08191996812820435,0.26554997684219306,0.05636779295214867,0.8904400863674884,0.365270145895818,0.7483619358426101,2.51158266955759,0.12809304983561529
1781515347029389056,2.3765242099761963,0.10495303571224213,-0.4688107371330261,-0.6421020030975342,0.4390130937099457,-0.6771075129508972,0.59058678150177,0.03480273485183716,0.03346133232116699,0.034840404987335205,0.26888089634089624,0.05449898715591042,0.890125406117513,0.36388134029182995,0.7438248780884056,2.5023606679390427,0.13447443362548134
1781515347039423232,2.3865582942962646,0.08216889947652817,-0.45331448316574097,-0.6449832320213318,0.4460853338241577,-0.6736366152763367,0.5892547369003296,0.044744014739990234,0.019111037254333496,-0.01282358169555664,0.2720663982712833,0.052590072958054596,0.8898660899304699,0.362425661836374,0.7391183740888826,2.4936055440719183,0.14065637531858202
1781515347049456384,2.3965914249420166,0.010134384967386723,-0.46611201763153076,-0.6588958501815796,0.4531746506690979,-0.6704022288322449,0.5875319242477417,0.05080792307853699,-0.0005878210067749023,-0.021156132221221924,0.27527143628269757,0.05057233495289785,0.889498955706931,0.3611920917963911,0.73475072572508,2.484586272326026,0.14727571031536213
1781515347059490304,2.406625270843506,0.017233572900295258,-0.4808250367641449,-0.6569088697433472,0.46039047837257385,-0.6673299074172974,0.5854157209396362,0.06722795963287354,0.07106214761734009,-0.051800549030303955,0.2785764009402898,0.04849656846836136,0.8890196542128798,0.3601213380398557,0.7306178233438888,2.4751789312619352,0.1542353811325017
1781515347069524224,2.416659355163574,0.010150630958378315,-0.469496488571167,-0.6723459362983704,0.467597633600235,-0.66411292552948,0.5833579301834106,0.07387572526931763,0.08096784353256226,-0.05961531400680542,0.2818792085501284,0.046424509465561294,0.8885514862745751,0.3589778974308005,0.7263066413283024,2.4658999325118343,0.161035525592073
1781515347079557120,2.426692247390747,0.0027196116279810667,-0.4901091158390045,-0.6602980494499207,0.474843829870224,-0.6609571576118469,0.5810845494270325,0.08429929614067078,0.05504584312438965,-0.02162092924118042,0.2852239648214553,0.04431870522713691,0.8880192113265274,0.3579177319406725,0.7220935353893279,2.456470594732396,0.16797666119489857
1781515347089591296,2.4367263317108154,0.055006783455610275,-0.47923409938812256,-0.6472357511520386,0.4820232391357422,-0.6576932668685913,0.5788721442222595,0.09803959727287292,0.06614059209823608,0.025848805904388428,0.2885675502346994,0.042296519430067264,0.8874948365380049,0.35678093421083856,0.7177524404043825,2.4472319471914314,0.17457094654746355
1781515347099625472,2.446760416030884,0.10165098309516907,-0.4029883146286011,-0.6607882976531982,0.48888301849365234,-0.6540171504020691,0.5772823095321655,0.08986756205558777,0.030833005905151367,0.0727573037147522,0.291686441928263,0.040311678856833774,0.8871392933466052,0.35535593614450883,0.7128826723506462,2.4389185795808213,0.18046844793317265
1781515347109659136,2.456794261932373,0.1426791101694107,-0.3516790568828583,-0.6548542380332947,0.4953598380088806,-0.6500542759895325,0.5762360692024231,0.0821395218372345,-0.019043564796447754,0.060391128063201904,0.29449934036447634,0.03822385517269704,0.8869368451190944,0.353768417566828,0.707655877497878,2.4315243569324703,0.18605258444911096
1781515347119692288,2.466827392578125,0.15338821709156036,-0.3321954905986786,-0.6411826610565186,0.5015586018562317,-0.6459459662437439,0.5754930973052979,0.07958751916885376,0.0022999048233032227,0.027701973915100098,0.2971428606075105,0.036159913416767255,0.8868139649390763,0.3520787193478651,0.7022618162137302,2.4247322282920187,0.1912399850664874
1781515347129726208,2.4768612384796143,0.1464269757270813,-0.28839075565338135,-0.6293219923973083,0.5074726343154907,-0.6418189406394958,0.57492595911026,0.0659220814704895,-0.00536733865737915,0.008661627769470215,0.29962653762848573,0.03411522947182236,0.8867350979119154,0.35037255601369643,0.6968678643489138,2.418432369148028,0.19615445088897943
1781515347139760128,2.4868953227996826,0.04469049721956253,-0.26656708121299744,-0.6120442152023315,0.5130179524421692,-0.638117790222168,0.5741238594055176,0.053479790687561035,-0.06587696075439453,0.014316082000732422,0.301908236053115,0.03197693436538043,0.8865886408917178,0.3489834974451937,0.6920511834213542,2.4123432569501797,0.2014022783887737
1781515347149794304,2.496929407119751,0.001601882977411151,-0.27616962790489197,-0.5921594500541687,0.5184186697006226,-0.6349233984947205,0.5728131532669067,0.05457949638366699,-0.027125120162963867,0.03141975402832031,0.30415608934232674,0.02978090866251564,0.8862954709853995,0.3479693616832286,0.6879094033447818,2.4060001359554146,0.2071338854671768
1781515347159827200,2.506962299346924,0.08550796657800674,-0.21262143552303314,-0.5591879487037659,0.5235289335250854,-0.6316512227058411,0.5717819929122925,0.030563533306121826,0.03262150287628174,0.06025242805480957,0.30627555205967116,0.027728112064379067,0.8860711912301001,0.34684930550786,0.6836813064006154,2.4002202484488984,0.21226328757928203
1781515347169861376,2.516996383666992,0.13913710415363312,-0.1196984052658081,-0.5276182889938354,0.5279110074043274,-0.6281105875968933,0.5716532468795776,0.007748842239379883,-0.03602832555770874,0.09707850217819214,0.30793464967764367,0.0257721573057544,0.8860939171374914,0.3454703095055793,0.6791226260900389,2.395954972025455,0.2164217635659034
1781515347179895040,2.5270302295684814,0.0989832952618599,-0.054727401584386826,-0.4777984917163849,0.5315665006637573,-0.6247171759605408,0.5719844102859497,0.04820656776428223,-0.09488743543624878,0.1004706621170044,0.30916788871120093,0.0238688193861338,0.8862406442538889,0.344126749041658,0.6747692712317177,2.3928034431620584,0.22009709397255472
1781515347189928192,2.5370633602142334,0.03297312185168266,-0.025397207587957382,-0.4411957561969757,0.5346608757972717,-0.6218893527984619,0.5721811652183533,0.08737891912460327,-0.06846398115158081,0.08564049005508423,0.3101228363850285,0.021990137331114726,0.8863447545320766,0.34312274652931196,0.6711530768378174,2.3900800409682614,0.2238512710813589
1781515347199962112,2.5470972061157227,0.011628684587776661,0.011928060092031956,-0.42701229453086853,0.5374077558517456,-0.6194431185722351,0.5722615718841553,0.06146925687789917,-0.03216826915740967,0.048298180103302,0.3108952610527079,0.020088474984909704,0.8864125657472701,0.34236444121602183,0.6680331265890534,2.387593338538736,0.2277683845802335
1781515347209996288,2.557131290435791,0.011911778710782528,0.04269582778215408,-0.38754716515541077,0.5397622585296631,-0.6171901226043701,0.5724795460700989,0.03010767698287964,-0.008710026741027832,0.04141205549240112,0.3114636535725991,0.018249709706017372,0.8865138079527278,0.34168780152255784,0.6651665061282548,2.385601658840862,0.23145374051142156
1781515347220030976,2.5671660900115967,0.06692789494991302,0.08899407833814621,-0.35874107480049133,0.5416821241378784,-0.6149215698242188,0.5731069445610046,0.03851795196533203,0.005607664585113525,0.03526085615158081,0.3118005311104669,0.016543442928087824,0.8867241881080115,0.34092058919669344,0.6622865113967917,2.3843760344003315,0.23453355899971837
1781515347230064128,2.5771992206573486,0.11920760571956635,0.11541397124528885,-0.3218584358692169,0.5432010889053345,-0.6124973893165588,0.5742647647857666,0.06811189651489258,0.006830155849456787,0.03660571575164795,0.31192731140472474,0.015011573603910639,0.887077805889531,0.3399546041910193,0.659216124817286,2.3839856585859804,0.23681292245342753
1781515347240098048,2.587233066558838,0.11279311776161194,0.1644265204668045,-0.27645978331565857,0.544231116771698,-0.6101652383804321,0.5757696628570557,0.06969094276428223,-0.014376938343048096,0.07120281457901001,0.3118045448084341,0.013625645073617907,0.8875241894862277,0.3389587552212275,0.6562691700380598,2.384346497013352,0.23852662293420998
1781515347250131968,2.5972671508789062,0.06911834329366684,0.19990994036197662,-0.23315760493278503,0.544731080532074,-0.6082688570022583,0.5773014426231384,0.049797117710113525,-0.0274122953414917,0.0789179801940918,0.3114173065901225,0.012316215411094806,0.8879746863533549,0.3381841440363242,0.6538777775211859,2.3852143697979242,0.24011396460472711
1781515347260166144,2.6073012351989746,0.045673202723264694,0.24516184628009796,-0.17358243465423584,0.5446889996528625,-0.6068347692489624,0.5788487195968628,0.04694008827209473,-0.010734260082244873,0.04317587614059448,0.31077283594217014,0.011119092766262573,0.8884259843551556,0.3376329477641929,0.6520722526607795,2.386588865493539,0.24150874470313446
1781515347270199040,2.6173341274261475,0.009632646106183529,0.2598358690738678,-0.13726703822612762,0.544158399105072,-0.6058396697044373,0.5803877711296082,0.06025749444961548,0.003193795680999756,0.010798811912536621,0.30990875440054516,0.010050565992887188,0.8888716861348203,0.33728723284876216,0.6508208403980341,2.3884002566929037,0.24268746127180618
1781515347280233216,2.627368211746216,-0.054447535425424576,0.27226126194000244,-0.10869796574115753,0.5433560609817505,-0.6052807569503784,0.5817207098007202,0.049615681171417236,0.011317253112792969,0.021001338958740234,0.3089290774916532,0.009014021710236278,0.8892576165391959,0.33719776758068776,0.6501185196081056,2.3902808826018633,0.24400440251492514
1781515347290266880,2.637402057647705,-0.060710493475198746,0.27894526720046997,-0.07927829027175903,0.5422909259796143,-0.605144202709198,0.5828555822372437,0.03108847141265869,0.01925259828567505,0.016768991947174072,0.30784813389987714,0.008038961132367677,0.8895859503164926,0.3373449584306112,0.6499470210790675,2.3922316373502954,0.2453837983971054
1781515347300300032,2.647435188293457,-0.0504879504442215,0.2550335228443146,-0.06512864679098129,0.5411960482597351,-0.6049937009811401,0.5840288400650024,0.06262475252151489,0.013395130634307861,0.016816675662994385,0.30678905430306336,0.007173417651734028,0.8899230051104958,0.337440570157503,0.6497579607888773,2.394242071223838,0.2464862947793102
1781515347310333952,2.6574690341949463,-0.07462497800588608,0.25748229026794434,-0.043786074966192245,0.5400696992874146,-0.6050365567207336,0.5850265622138977,0.083740234375,-0.0018666386604309082,0.09772813320159912,0.3057874903472185,0.00645670017163135,0.890208733423171,0.3376106108546396,0.6498118160671946,2.396131486047493,0.24740328275959464
1781515347320368128,2.6675031185150146,-0.06714335829019547,0.28788092732429504,-0.03411054611206055,0.5387635827064514,-0.6052591800689697,0.5859993100166321,0.058877408504486084,-0.024150609970092773,0.13053810596466064,0.30466005890184245,0.0056646098816195995,0.8904872641204502,0.33790916535818316,0.6500914148929006,2.398166015347358,0.2485296459169825
1781515347330402048,2.677537202835083,-0.09201835095882416,0.3322601318359375,0.0009550292743369937,0.537030816078186,-0.6056303977966309,0.5872050523757935,0.052706122398376465,-0.03031015396118164,0.11280715465545654,0.3032992872842029,0.004945286272631224,0.8908299914253304,0.3382410704684958,0.6505578204931676,2.4007945449700454,0.24934506674553747
1781515347340434944,2.687570095062256,-0.17302770912647247,0.3544238805770874,0.03704139590263367,0.534896731376648,-0.6064738035202026,0.5882812738418579,0.043960630893707275,-0.04142957925796509,0.08180838823318481,0.30173123965901083,0.004235215946430737,0.8911356299492607,0.3388474231521495,0.6516181774561162,2.40368866849855,0.25028773850936425
1781515347350469120,2.697604179382324,-0.26818564534187317,0.3724633455276489,0.06847255676984787,0.5324299335479736,-0.6080552339553833,0.5888862609863281,0.025858521461486816,-0.047401249408721924,0.0438498854637146,0.300022708728467,0.0035237778831022507,0.8913084272100209,0.3399164707433563,0.6536086623242455,2.4065002549036447,0.25165279362385545
1781515347360503296,2.7076382637023926,-0.346241295337677,0.3661646842956543,0.10634829849004745,0.5297004580497742,-0.610363245010376,0.5889598727226257,0.014656782150268555,-0.04320108890533447,0.02293264865875244,0.2982142096672304,0.0028043169581014036,0.891331633306998,0.3414501509673816,0.6565190453794524,2.4091186004539376,0.25349003768076356
1781515347370536960,2.717672109603882,-0.37578296661376953,0.3567988872528076,0.14203570783138275,0.5268118977546692,-0.6131606101989746,0.588645339012146,0.027921438217163086,-0.030272066593170166,0.03182274103164673,0.29639254270079507,0.002192107214726168,0.8912451278344953,0.34326201039536686,0.6600554259905133,2.411571119727231,0.2554053610490948
1781515347380570112,2.727705240249634,-0.338283509016037,0.3701493442058563,0.15893080830574036,0.5237448215484619,-0.6160921454429626,0.5883215069770813,0.026700854301452637,-0.008648514747619629,0.024593651294708252,0.29452167218475417,0.0017158781042714473,0.891155314623085,0.345103389528646,0.6637717867412557,2.414198446646734,0.2570150205562325
1781515347390604032,2.737739086151123,-0.3580242097377777,0.3744620680809021,0.18052718043327332,0.520504355430603,-0.6190052628517151,0.5881393551826477,0.028033852577209473,0.024248182773590088,0.02114415168762207,0.292563045891182,0.001303500904772217,0.8911049192709647,0.34689661478322176,0.6674755250483813,2.417125923614906,0.25835009290654565
1781515347400638208,2.7477731704711914,-0.333090603351593,0.40146782994270325,0.21790917217731476,0.5169672966003418,-0.6221047639846802,0.5879884362220764,0.03166240453720093,0.03404635190963745,0.034005582332611084,0.29048111437032603,0.0010130947600669026,0.8910629562645611,0.348749869719551,0.6714281261476726,2.4203813044309785,0.25937613400951226
1781515347410672128,2.7578072547912598,-0.3396212160587311,0.438811719417572,0.23412010073661804,0.5130752325057983,-0.6252301931381226,0.5880824327468872,0.04423677921295166,-0.004591584205627441,0.03139388561248779,0.2882095313181841,0.000806957983092202,0.8910895307861846,0.3505624568744264,0.6754264807570439,2.4242061034214233,0.2599956237799083
1781515347420705024,2.7678401470184326,-0.3938676714897156,0.39765551686286926,0.24124139547348022,0.5090786814689636,-0.6286224722862244,0.5879393219947815,0.08317595720291138,0.0005859732627868652,0.02001655101776123,0.2859012567967367,0.0006037607660667322,0.8910495478966852,0.3525489761484821,0.6797806438585934,2.427957434140021,0.26076933835415084
1781515347430739200,2.777874231338501,-0.4114986062049866,0.379105806350708,0.24722684919834137,0.5052611231803894,-0.6322292685508728,0.5873644351959229,0.08229368925094604,0.038494646549224854,-0.004951834678649902,0.28374463309260817,0.0004348100809125061,0.8908883323738573,0.3546923195388217,0.6844271066223574,2.431196664318099,0.26177424740633165
1781515347440773120,2.7879080772399902,-0.4601883888244629,0.34397950768470764,0.2590393126010895,0.5014955997467041,-0.6360491514205933,0.5864671468734741,0.0373532772064209,0.061006367206573486,-0.030955731868743896,0.28165520304947644,0.00029305082933993033,0.8906365694365596,0.3569829170607154,0.689367393674171,2.434137788755556,0.26294377908349487
1781515347450807040,2.7979421615600586,-0.46286511421203613,0.2757144272327423,0.28545334935188293,0.4980993866920471,-0.64008629322052,0.5849669575691223,0.039193034172058105,0.05977940559387207,-0.05599057674407959,0.2799004104826052,0.0003393093123540803,0.8902153420157957,0.35940537582123433,0.6946105920265808,2.436228376457378,0.26414456184802243
1781515347460839936,2.8079750537872314,-0.5025566220283508,0.2506146728992462,0.2946047782897949,0.49470463395118713,-0.6443204879760742,0.5831969380378723,0.038117021322250366,0.06904882192611694,-0.05766892433166504,0.27818807251608735,0.0004327639536851872,0.8897180863548909,0.3619571685369022,0.7001343764597349,2.43810760759389,0.2654304379074987
1781515347470874112,2.8180091381073,-0.4644923210144043,0.23234884440898895,0.3258207440376282,0.49128851294517517,-0.6487286686897278,0.5811943411827087,0.017866790294647217,0.08493161201477051,-0.008303165435791016,0.27655141103741854,0.0006934635062974663,0.8891550349001175,0.364584947221441,0.7059126437260268,2.439828547579425,0.26650023033585757
1781515347480908032,2.828043222427368,-0.3823905289173126,0.20890609920024872,0.3109685480594635,0.48790857195854187,-0.652705729007721,0.579586386680603,0.04236483573913574,0.06222116947174072,0.016971170902252197,0.2749717342868174,0.001127765353206248,0.8887023835350643,0.3668750786890081,0.7111503497959503,2.441865547589321,0.2668202536194712
1781515347490941952,2.8380770683288574,-0.32955312728881836,0.22510424256324768,0.3171241879463196,0.48459017276763916,-0.6563313603401184,0.5782747268676758,0.029280126094818115,0.05292248725891113,0.054904043674468994,0.27343229284896825,0.0016364499060512315,0.8883325384810548,0.3689139023085494,0.7159458962212335,2.4441107130935475,0.2666966558675169
1781515347500975104,2.8481101989746094,-0.27105414867401123,0.24428273737430573,0.33395910263061523,0.4810818135738373,-0.6596054434776306,0.5774784684181213,-0.01709243655204773,0.05296158790588379,0.013967514038085938,0.2717777125061474,0.0022305893482818724,0.88810711507596,0.37067205169246686,0.7202936640841469,2.447007930038672,0.26591636318620715
1781515347511009024,2.8581440448760986,-0.24892061948776245,0.24361614882946014,0.3587254285812378,0.4773484766483307,-0.6627594232559204,0.5769644975662231,-0.02626824378967285,0.01973891258239746,-0.015349626541137695,0.27003776003087976,0.0029776972206277726,0.8879602385415208,0.3722865197930691,0.7244977633710452,2.4503991291682983,0.26451372859374733
1781515347521042944,2.868178129196167,-0.29435867071151733,0.20345847308635712,0.3601771295070648,0.4736614525318146,-0.6660175919532776,0.5762515068054199,-0.0227031409740448,-0.013929367065429688,-0.038287580013275146,0.2683719847886792,0.0037923534563219603,0.8877563746521192,0.3739663847463766,0.728857189754667,2.453598204791122,0.2630880813178374
1781515347531076096,2.878211259841919,-0.3441017270088196,0.1674562692642212,0.3651241958141327,0.47017574310302734,-0.6695968508720398,0.5749564170837402,-0.037756919860839844,-0.023991405963897705,-0.038793087005615234,0.26688272872046653,0.004630469137232125,0.8873876026562505,0.3758928326136222,0.7336658742761287,2.456116508168158,0.26206320286752355
1781515347541110016,2.888245105743408,-0.34143564105033875,0.14459262788295746,0.37257200479507446,0.46679630875587463,-0.6733165979385376,0.5733636617660522,-0.05448859930038452,-0.012916862964630127,-0.04266303777694702,0.26550397851573676,0.0055203657070975075,0.886933683048725,0.37792297985958007,0.7386854818146336,2.458291127476442,0.26113957515184105
1781515347551144192,2.8982791900634766,-0.2773032486438751,0.11981004476547241,0.36120882630348206,0.46354883909225464,-0.6768205165863037,0.5718714594841003,-0.039537519216537476,0.013581812381744385,-0.035677552223205566,0.2642292193442027,0.006494137577960166,0.8865063843837221,0.37979910036754144,0.7434349568260873,2.460432379416885,0.2599219635891768
1781515347561177856,2.908313035964966,-0.24008025228977203,0.106324203312397,0.3324972987174988,0.46053776144981384,-0.6798969507217407,0.5706532597541809,-0.03507694602012634,0.018931984901428223,-0.023778319358825684,0.26307163153011837,0.007481266564701349,0.8861549911049694,0.3814009576996339,0.747622087709144,2.4625761495209684,0.2584386151703438
1781515347571211008,2.9183461666107178,-0.19797328114509583,0.08115173876285553,0.3017260432243347,0.45780450105667114,-0.6826081871986389,0.5696152448654175,-0.04371142387390137,-0.0006957650184631348,-0.018101513385772705,0.2620448417321332,0.008440966129889812,0.8858534774684182,0.38278584085757233,0.7513256987362918,2.464594654320482,0.25687009878486944
1781515347581245184,2.928380250930786,-0.16816212236881256,0.05364634469151497,0.2598867416381836,0.45552587509155273,-0.6849262714385986,0.5686585903167725,-0.056371092796325684,0.010869085788726807,-0.00335085391998291,0.2612290027273319,0.009310367633254522,0.8855747324448651,0.383966461311283,0.7545024997498629,2.4662097434266403,0.25546404737437567
1781515347591279104,2.9384140968322754,-0.12691374123096466,0.04554580897092819,0.22478652000427246,0.45355579257011414,-0.6868805289268494,0.5678751468658447,-0.07052972912788391,-0.005441188812255859,0.004741370677947998,0.2605382947521755,0.010101040889957159,0.8853448655318696,0.38494442562945447,0.7571880994300287,2.467651409287501,0.2541117440202316
1781515347601313024,2.9484481811523438,-0.1240021139383316,0.032595522701740265,0.18284918367862701,0.4519236385822296,-0.6884925365447998,0.5672237277030945,-0.06027635931968689,-0.03208845853805542,-0.027825653553009033,0.2599713315840303,0.010765022271796583,0.8851530892726983,0.38574984608845597,0.7594084257276067,2.4688493775740787,0.2529644633710225
1781515347611345920,2.9584810733795166,-0.1320429891347885,-0.0121996458619833,0.15094691514968872,0.4507288336753845,-0.6899746656417847,0.5663732886314392,-0.041442275047302246,-0.031140506267547607,-0.03051513433456421,0.25961676184820953,0.011310688643862523,0.8849060423321112,0.38653922566974785,0.7614540738264132,2.4694082273485503,0.25229209930107593
1781515347621380096,2.968515157699585,-0.09863363951444626,-0.023382660001516342,0.10958084464073181,0.4499337077140808,-0.691210925579071,0.5654975175857544,-0.05390700697898865,-0.02714252471923828,-0.038443684577941895,0.25945724463902703,0.011783258079109576,0.8846524295642929,0.38721220024446623,0.7631633865520357,2.46951453894362,0.2518493772831441
1781515347631414272,2.9785492420196533,-0.14855726063251495,-0.03698635473847389,0.07513924688100815,0.4494578540325165,-0.6922908425331116,0.5645538568496704,-0.06859847903251648,-0.03360027074813843,-0.04503786563873291,0.2594066763550018,0.012080801937139635,0.8843816959417613,0.3878546690240576,0.7646587982000994,2.469216384315902,0.25189523649157963
1781515347641447936,2.9885830879211426,-0.2049987018108368,-0.058168601244688034,0.059836987406015396,0.44927579164505005,-0.6935953497886658,0.5630959272384644,-0.06982022523880005,-0.03348594903945923,-0.0037391185760498047,0.2595094460487745,0.012245026661345906,0.8839672012766427,0.3887247881876234,0.766468118088274,2.468153518309174,0.2527030288307512
1781515347651481088,2.9986162185668945,-0.23290888965129852,-0.047053366899490356,0.03715511038899422,0.44923850893974304,-0.6950394511222839,0.5613425374031067,-0.08517894148826599,-0.02886819839477539,0.04420268535614014,0.25966413094123825,0.012280741075520029,0.8834706781018381,0.389747922893124,0.7684747824194287,2.4666730538121096,0.25406649696442235
1781515347661515008,3.008650064468384,-0.1530289649963379,-0.0348983034491539,0.021688537672162056,0.4492853879928589,-0.696301281452179,0.5597385168075562,-0.0811212956905365,-0.05849003791809082,0.05934101343154907,0.2598084016419849,0.012216367575574465,0.8830175702681832,0.39067935236648693,0.7702313307716215,2.4652257060707035,0.2555471263899965
1781515347671549184,3.018684148788452,-0.06714921444654465,-0.0028681964613497257,0.012695042416453362,0.44927138090133667,-0.6970095634460449,0.5588672161102295,-0.06029441952705383,-0.06011617183685303,0.08718979358673096,0.2598670642033477,0.012186900384158494,0.8827712603314674,0.3911973908983994,0.7712186114011157,2.464480342996774,0.2563356369730337
1781515347681583104,3.0287182331085205,-0.011668913997709751,0.026922456920146942,0.004973739385604858,0.44914931058883667,-0.6972432136535645,0.558674156665802,-0.06958690285682678,-0.06781721115112305,0.10107004642486572,0.25980130601353435,0.01215335239519996,0.8827170468317733,0.39136453913184444,0.7715444904807169,2.4644443366345574,0.2565570662353827
1781515347691616000,3.0387511253356934,0.006899975705891848,0.06010677292943001,0.011182633228600025,0.4488676190376282,-0.6972626447677612,0.5588759779930115,-0.08854666352272034,-0.09791851043701172,0.06516265869140625,0.25960338028059077,0.012105085186963805,0.8827748633385412,0.39136682776393183,0.7715715874240308,2.464926997818189,0.25646315414928333
1781515347701650176,3.0487852096557617,-0.022512240335345268,0.057402465492486954,-0.011768488213419914,0.4484909176826477,-0.6972846984863281,0.5591509938240051,-0.07466587424278259,-0.1031913161277771,-0.009010732173919678,0.2593117186300707,0.011980650116609915,0.8828544430854388,0.39138458848242774,0.7716023543437783,2.465576997343859,0.25646912782130105
1781515347711684096,3.058819055557251,-0.06604347378015518,0.012206759303808212,-0.0188402459025383,0.4484168291091919,-0.6974647045135498,0.5589860677719116,-0.05538097023963928,-0.0811455249786377,-0.02309739589691162,0.25919717627728545,0.011782289880283663,0.8828104023732694,0.39156585310804226,0.771853499569127,2.4655136171170713,0.25704624025738204
1781515347721718016,3.0688531398773193,-0.11545789241790771,0.007759413681924343,-0.021643223240971565,0.4485197365283966,-0.697870135307312,0.5583973526954651,-0.06811806559562683,-0.07849711179733276,0.025129377841949463,0.25920726614071193,0.011554398093080634,0.8826466851321739,0.3919349543323761,0.7724194443236252,2.46488723738902,0.25806526137321645
1781515347731750912,3.078886032104492,-0.13043418526649475,0.027366405352950096,-0.0054565309546887875,0.4485431909561157,-0.6985176801681519,0.5575680732727051,-0.06505933403968811,-0.09289467334747314,0.07232999801635742,0.2591773544885077,0.011288226980935982,0.8824152111498881,0.3924832432080001,0.7733239300669883,2.464135931604434,0.25936196573010384
1781515347741785088,3.0889201164245605,-0.09889276325702667,0.07127261161804199,0.01833668351173401,0.44821682572364807,-0.6991774439811707,0.5570033192634583,-0.04092925786972046,-0.10924845933914185,0.11783194541931152,0.2589494371656937,0.01107340756021891,0.8822579224943626,0.39299308312364495,0.7742463138898394,2.4639964913269092,0.26027817765095285
1781515347751819008,3.098954200744629,-0.061907317489385605,0.10336290299892426,0.04482022300362587,0.44752025604248047,-0.6997578740119934,0.5568347573280334,-0.03304570913314819,-0.07654833793640137,0.0974317193031311,0.2585028813166163,0.010915890612860957,0.8822121125692217,0.3933942118516193,0.7750584831904541,2.4646082233847606,0.26068602360229065
1781515347761852928,3.108988046646118,0.0050389585085213184,0.12273366749286652,0.08912297338247299,0.4464106559753418,-0.7002050876617432,0.5571627616882324,-0.028472453355789185,-0.04617851972579956,0.0563930869102478,0.25786939755151733,0.010960353478857845,0.8823045085710476,0.3936013066627158,0.7756847266422284,2.466107479355038,0.2601655041935429
1781515347771886080,3.11902117729187,-0.0069500599056482315,0.13598130643367767,0.10081824660301208,0.44500190019607544,-0.7006092071533203,0.557781457901001,-0.02703315019607544,-0.06527519226074219,0.05450797080993652,0.2570998933439263,0.01113492169053248,0.882477620826776,0.3937117431667724,0.7762508750770434,2.4681904035140363,0.25906510969980806
1781515347781920256,3.1290552616119385,-0.008096816949546337,0.1364436149597168,0.11258196085691452,0.44345226883888245,-0.7011586427688599,0.5583247542381287,-0.02061602473258972,-0.07121068239212036,0.028192579746246338,0.25626638324366835,0.011327521802131967,0.8826290623378313,0.3939100514534563,0.7770212166979372,2.4703645439115625,0.2579629614567689
1781515347791953920,3.1390891075134277,-0.015891622751951218,0.12883257865905762,0.14271268248558044,0.44182446599006653,-0.7018052935600281,0.5588027238845825,0.0004057884216308594,-0.030158817768096924,0.00781714916229248,0.2554292314319032,0.011596386416063907,0.8827609447878697,0.3941504277504021,0.7779285929062927,2.4725711892807962,0.2567261870185397
1781515347801988096,3.149123191833496,0.0053406949155032635,0.15174534916877747,0.18946421146392822,0.43986964225769043,-0.7025588154792786,0.5593976974487305,0.02338719367980957,-0.040116965770721436,0.02823352813720703,0.2544890806725671,0.012068191616394185,0.8829230959393608,0.3943810952779615,0.7789868568873785,2.475244524470771,0.2548787189888674
1781515347812020992,3.159156084060669,-0.06777532398700714,0.1676287055015564,0.2145266979932785,0.4375440180301666,-0.7035930752754211,0.5599215030670166,0.049608081579208374,-0.06395453214645386,0.0333402156829834,0.25337465369229384,0.012599919109657265,0.8830639749076387,0.39476645550116984,0.7804412917504023,2.4782728352041445,0.2528892287542739
1781515347822055168,3.1691901683807373,-0.05658632144331932,0.18677084147930145,0.26886850595474243,0.43485453724861145,-0.7050410509109497,0.5601956844329834,0.06964689493179321,-0.03925234079360962,0.07821691036224365,0.2521236574020554,0.013230599987590597,0.883132372576629,0.39539346334942416,0.7824809998372688,2.481499159707636,0.25081031758159544
1781515347832089088,3.1792242527008057,0.010482992976903915,0.2481044977903366,0.3135765790939331,0.43157875537872314,-0.706422746181488,0.560987114906311,0.03666767477989197,-0.04182243347167969,0.09836035966873169,0.25059294328200166,0.014071051530086372,0.8833433962441285,0.3958656131741883,0.7844312826407723,2.4858407953099606,0.24771575457096423
1781515347842123008,3.189258098602295,0.03591431677341461,0.28497302532196045,0.36077073216438293,0.427682101726532,-0.7077486515045166,0.5622991919517517,0.03989306092262268,-0.021621644496917725,0.053469300270080566,0.2487263725394451,0.015037658258095221,0.8836987488111886,0.3962142674759476,0.7863062860868637,2.491345017440768,0.24377885798899115
1781515347852156160,3.199291229248047,0.05185732990503311,0.2979695200920105,0.40381860733032227,0.42330285906791687,-0.709122896194458,0.5638793706893921,0.06358993053436279,-0.02197164297103882,0.06122756004333496,0.2466634264431308,0.016216205241850558,0.884124831867331,0.3965067880580601,0.7882534437411775,2.4976452730888816,0.23902562314220077
1781515347862190080,3.209325075149536,0.05347893014550209,0.3251494765281677,0.4430195391178131,0.41855692863464355,-0.7106016874313354,0.5655572414398193,0.04265514016151428,-0.042022705078125,0.05477344989776611,0.24444821396777705,0.017524603170400235,0.8845742004685881,0.39682028446244394,0.7903530029228438,2.5044714136049344,0.23379208711158725
1781515347872224000,3.2193591594696045,0.043514445424079895,0.37269917130470276,0.508237898349762,0.41316932439804077,-0.7123108506202698,0.5673661828041077,0.03563743829727173,-0.047729432582855225,0.03515768051147461,0.24194296369122475,0.019002567788928917,0.8850547925847673,0.3972159587122019,0.7927851806280546,2.512174864316586,0.2278953092943479
1781515347882258176,3.229393243789673,0.02452637441456318,0.41398829221725464,0.5697500109672546,0.4070639908313751,-0.7143310308456421,0.5692362189292908,0.05709308385848999,-0.07731014490127563,0.07807201147079468,0.23911631219526283,0.020657341537759277,0.8855458160799673,0.397750189219694,0.7956677293844758,2.520800531544576,0.22133597376810757
1781515347892291072,3.2394261360168457,0.005479179322719574,0.47252243757247925,0.6339313983917236,0.4002251625061035,-0.7166677117347717,0.5711460113525391,0.05898818373680115,-0.1124340295791626,0.12405991554260254,0.23595111409866473,0.022462006999037692,0.886040885715353,0.3984397520786984,0.7990124275265013,2.5303698451529115,0.21416119603733597
1781515347902325248,3.249460220336914,-0.018516167998313904,0.5180341601371765,0.6989445090293884,0.3925650417804718,-0.7193659543991089,0.5730661749839783,0.046811699867248535,-0.08274263143539429,0.1033405065536499,0.23240210299290986,0.024414341908649165,0.8865308966684516,0.3993194475121044,0.802889092686166,2.5409874289077448,0.20634283480164445
1781515347912358912,3.2594940662384033,0.008082153275609016,0.5444678664207458,0.7608107924461365,0.3842269480228424,-0.7222352623939514,0.5751053094863892,0.04532322287559509,-0.05077505111694336,0.08041226863861084,0.22856851264687014,0.02657500837721875,0.8870436403180818,0.40025472309011156,0.8070286422562495,2.5525994882805167,0.1976633705541382
1781515347922393088,3.2695281505584717,0.03361307829618454,0.5745857954025269,0.7999379634857178,0.375301718711853,-0.7250788807868958,0.5774164199829102,0.029605597257614136,-0.07143008708953857,0.0746833086013794,0.2244962044562341,0.028960474665987754,0.887620130558512,0.4011152010338281,0.8111489385940434,2.5652404915886886,0.18796748970617433
1781515347932425984,3.2795610427856445,0.0591871477663517,0.6054273843765259,0.8177922964096069,0.3659939467906952,-0.7278069257736206,0.5799531936645508,0.026477396488189697,-0.0742560625076294,0.05113506317138672,0.2202374286049249,0.031423846919412864,0.8882506030005747,0.40189418246703446,0.8151185662423396,2.578636746822727,0.17766538829220968
1781515347942460160,3.289595127105713,0.09659497439861298,0.6589414477348328,0.8670610785484314,0.35617172718048096,-0.7304022908210754,0.5827983617782593,0.029005855321884155,-0.11282885074615479,0.11336857080459595,0.2157248936334618,0.03399196528495919,0.8889565392841968,0.4025711358813608,0.818910789595509,2.593021781832823,0.16658437073496407
1781515347952494080,3.2996292114257812,0.040857944637537,0.736403226852417,0.9185223579406738,0.3455001413822174,-0.7330970764160156,0.5858311057090759,0.017201244831085205,-0.1608847975730896,0.13034003973007202,0.21077473155313076,0.03663945777145284,0.889703937615231,0.4033092847355883,0.8228645163453839,2.608736077735236,0.1547331241745989
1781515347962528000,3.3096630573272705,-0.03307646885514259,0.7540906071662903,0.9879693984985352,0.3340666890144348,-0.7363104820251465,0.5884272456169128,0.06015941500663757,-0.11110168695449829,0.07134753465652466,0.20549532697105646,0.03937099559078685,0.8903165469336934,0.40442322895407856,0.8276014055082218,2.625240571682771,0.14251958060054093
1781515347972561152,3.3196961879730225,-0.11054835468530655,0.7529595494270325,1.0618913173675537,0.3220372498035431,-0.7400615215301514,0.5904242396354675,0.09977668523788452,-0.07248419523239136,0.05955427885055542,0.2000661098430637,0.04234553695874326,0.8907406910059539,0.4059080929588528,0.8331618340762625,2.642262028510859,0.12969272388401096
1781515347982595072,3.3297300338745117,-0.15545058250427246,0.7595877647399902,1.1570005416870117,0.30928969383239746,-0.7443192601203918,0.5918856859207153,0.10773301124572754,-0.08122694492340088,0.07210057973861694,0.19444177259019715,0.04561928611847348,0.8909891765782251,0.4077370930325741,0.8395149256445558,2.660068446671715,0.11596337594301313
1781515347992628992,3.33976411819458,-0.12052269279956818,0.7380685806274414,1.237372875213623,0.2958555817604065,-0.748737096786499,0.59317946434021,0.13981330394744873,-0.08112728595733643,0.03372776508331299,0.1886516663655544,0.04928593561636085,0.8911569072658264,0.4096592414970821,0.8461547743225046,2.67893564812369,0.1008286405547785
1781515348002663168,3.3497982025146484,-0.04080922156572342,0.707186758518219,1.3631041049957275,0.2818107306957245,-0.7529187202453613,0.5947238206863403,0.1713905930519104,-0.12742197513580322,0.03962987661361694,0.1827785551155561,0.05351221835495601,0.8913463718164368,0.41137597615408344,0.8524859080349767,2.699081881769039,0.083647789946877
1781515348012696064,3.3598310947418213,-0.09672761708498001,0.7583503723144531,1.4467500448226929,0.2667257487773895,-0.7570624947547913,0.5964174866676331,0.14738252758979797,-0.25529712438583374,0.12771880626678467,0.17659736368202303,0.05829290041235748,0.8915215590131281,0.41304314946780785,0.85880520047291,2.7210586943609174,0.06424620825547481
1781515348022730240,3.3698651790618896,-0.4094671607017517,0.7601940035820007,1.44614577293396,0.251186341047287,-0.7623931765556335,0.5963741540908813,0.08745196461677551,-0.14458924531936646,0.10668981075286865,0.170281058365684,0.06292878267145058,0.8911941640289166,0.4157130044047549,0.8670033154751947,2.7429542141265633,0.04546757555164936
1781515348032764160,3.379899263381958,-0.44156089425086975,0.776523232460022,1.5080033540725708,0.23527656495571136,-0.7685744762420654,0.5949270725250244,0.056196823716163635,0.09738612174987793,0.08621001243591309,0.16391333234519262,0.06756421781484179,0.8904485448203161,0.4191287269273739,0.876609953406162,2.764996434885704,0.026695438309220512
1781515348042798080,3.3899331092834473,-0.3865727484226227,0.8713955283164978,1.579811453819275,0.2184411883354187,-0.7745640873908997,0.5935770869255066,0.02057245373725891,0.12565362453460693,0.16261786222457886,0.15714213589894077,0.07239327963769236,0.889689704171822,0.4225136129986565,0.8860256160997378,2.7889659099692206,0.006283521130466844
1781515348052831232,3.399966239929199,-0.3983471095561981,0.9605584144592285,1.592346429824829,0.20058031380176544,-0.780198335647583,0.5925015211105347,0.04514722526073456,-0.007124662399291992,0.22286713123321533,0.1498024881801851,0.07722211913801376,0.8889811535898483,0.4258032849672103,0.8949827999880693,2.8151712281098895,-0.015547761619163296
