time,seconds_elapsed,rotationRateX,rotationRateY,rotationRateZ,gravityX,gravityY,gravityZ,accelerationX,accelerationY,accelerationZ,quaternionW,quaternionX,quaternionY,quaternionZ,pitch,roll,yaw
1780773614360470016,0.02835702896118164,0.15825149416923523,0.008871056139469147,-0.07068806886672974,-0.1958647221326828,-0.20052951574325562,-0.9599087834358215,0.013629019260406494,-0.005586206912994385,-0.02545797824859619,-0.5364849927224824,-0.1380321602772608,-0.03150744839748005,-0.8319484144538531,0.2018983779568726,-0.20128207503699688,2.0165517311626115
1780773614370505216,0.038392066955566406,0.1597716212272644,-0.006771153304725885,-0.08443717658519745,-0.1957056075334549,-0.20221421122550964,-0.959587812423706,0.004604533314704895,-0.043177634477615356,-0.029532670974731445,-0.5367030620547861,-0.1384472491889503,-0.03222517081833812,-0.8317113741920061,0.2036183101056845,-0.20118841173796562,2.016087827874259
1780773614380540160,0.04842710494995117,0.1622243970632553,-0.0007526758126914501,-0.10034822672605515,-0.1955781877040863,-0.20395471155643463,-0.9592453837394714,-0.012216001749038696,-0.033319443464279175,-0.029386818408966064,-0.5369719026276754,-0.1388945200049115,-0.03294894277967602,-0.831434913404838,0.20539585702835123,-0.2011307861963307,2.0155038186909064
1780773614390575104,0.05846214294433594,0.12651832401752472,0.0019423100166022778,-0.09687280654907227,-0.19535163044929504,-0.20554226636886597,-0.9589526057243347,-0.02713678777217865,-0.03603488206863403,-0.03616458177566528,-0.5372896139711612,-0.13925837238205654,-0.03362730940909894,-0.8311415305812864,0.20701776699190963,-0.2009637005885696,2.0147905994217474
1780773614400610304,0.0684971809387207,0.06872560828924179,0.0006059356965124607,-0.08236736804246902,-0.19515438377857208,-0.20666716992855072,-0.9587509632110596,-0.037679463624954224,-0.052579641342163086,-0.033650100231170654,-0.5375962674134693,-0.13950413554136032,-0.03410431977621271,-0.8308825006616426,0.20816735785282445,-0.20080729769502184,2.014086528676799
1780773614410645248,0.07853221893310547,0.02827378362417221,-0.01521390676498413,-0.05248350650072098,-0.19506390392780304,-0.20720593631267548,-0.9586530923843384,-0.02591387927532196,-0.047814205288887024,-0.02624070644378662,-0.5378431465840544,-0.13962787521426945,-0.03431479998241518,-0.8306932313284625,0.20871804336030084,-0.20073662720209695,2.0135083974902637
1780773614420679936,0.08856701850891113,0.05268964543938637,-0.02555522695183754,-0.04995616525411606,-0.1951465755701065,-0.20765984058380127,-0.9585380554199219,-0.006498321890830994,-0.020474299788475037,-0.020038604736328125,-0.5380295640391599,-0.13980007350163454,-0.034451588483063136,-0.8305379011616341,0.20918204526058193,-0.20084289431008487,2.0130800640576805
1780773614430715136,0.0986020565032959,0.09578891098499298,-0.03591452166438103,-0.03696606680750847,-0.19535520672798157,-0.20849105715751648,-0.9583150744438171,0.0026519596576690674,-0.01109817624092102,-0.01965123414993286,-0.5381527142241802,-0.14013128918455,-0.0347227888352446,-0.8303910275039605,0.2100318518580385,-0.20109740350207697,2.012823476112986
1780773614440751104,0.10863804817199707,0.09797883033752441,-0.055708467960357666,-0.02734113484621048,-0.19571705162525177,-0.20950156450271606,-0.9580208659172058,0.008613795042037964,-0.0020615309476852417,-0.02182227373123169,-0.5382279664095263,-0.14057787262538735,-0.03503488611178497,-0.8302535830079029,0.21106518419424863,-0.2015201192293822,2.012695266758345
1780773614450786048,0.11867308616638184,0.09163331985473633,-0.0743965357542038,-0.0035220878198742867,-0.19630584120750427,-0.21044807136058807,-0.9576928615570068,0.013490304350852966,0.0036304593086242676,-0.01763361692428589,-0.5382408289837827,-0.1411019986862525,-0.0352674886578969,-0.8301464532979415,0.2120332763957758,-0.20217735951572885,2.0127252254695285
1780773614460821248,0.1287081241607666,0.09457425028085709,-0.09096299856901169,0.022502321749925613,-0.19711878895759583,-0.21130838990211487,-0.9573363661766052,0.023809462785720825,0.014485269784927368,-0.011673033237457275,-0.5381451902572163,-0.14169414671432923,-0.0354199858512786,-0.8301012484719218,0.21291338940720894,-0.20306537745503941,2.013024096245717
1780773614470856192,0.13874316215515137,0.09970962256193161,-0.10210965573787689,0.024125518277287483,-0.19811253249645233,-0.2121943235397339,-0.9569352269172668,0.03661350905895233,0.02628125250339508,-0.0006911158561706543,-0.5379930354498357,-0.14236960932899823,-0.03554276818380983,-0.8300790378100877,0.21381987955413165,-0.20414417917061217,2.013468159204542
1780773614480891136,0.14877820014953613,0.08365928381681442,-0.11159183830022812,0.03503888472914696,-0.1992228478193283,-0.21306809782981873,-0.9565104246139526,0.0328105092048645,0.027048200368881226,0.008924424648284912,-0.5378159823940114,-0.14309123533092752,-0.035632468776077966,-0.8300657546405307,0.21471408847279505,-0.2053451248588365,2.0139772762516177
1780773614490926336,0.1588132381439209,-0.00495927082374692,-0.12414439022541046,0.04175591096282005,-0.2004409283399582,-0.2133718878030777,-0.9561882019042969,0.02389673888683319,0.02352204918861389,0.017192840576171875,-0.5376446664029508,-0.14369792752808297,-0.03545143865562143,-0.830079752286266,0.2150250397229775,-0.2066329805570876,2.0144563974173
1780773614500961024,0.16884803771972656,-0.13969604671001434,-0.13467372953891754,0.00984192080795765,-0.20174898207187653,-0.21276319026947021,-0.9560487270355225,0.021191731095314026,0.008127570152282715,0.02736830711364746,-0.5376011430292447,-0.14408979692654889,-0.03483910336343446,-0.8300659356895053,0.21440202723570687,-0.20797249305185544,2.014595433821913
1780773614510996224,0.17888307571411133,-0.06654806435108185,-0.09581886976957321,0.021302301436662674,-0.2028765082359314,-0.21166792511940002,-0.9560532569885254,0.014293134212493896,-0.016069501638412476,0.03355264663696289,-0.5376590165075457,-0.14426943919148288,-0.034054436902022485,-0.8300297671086906,0.2132812360970904,-0.20910034742546552,2.014461111266768
1780773614521032192,0.1889190673828125,-0.18933497369289398,-0.07772243022918701,0.05489248409867287,-0.20379966497421265,-0.2104828655719757,-0.9561185240745544,0.009066998958587646,-0.013317793607711792,0.021578729152679443,-0.537592476239803,-0.14432999936601884,-0.033310398858963,-0.8300925052231913,0.21206886723143242,-0.21001022427837726,2.0146122453679407
1780773614531067136,0.19895410537719727,-0.6569884419441223,-0.16879774630069733,0.2686074376106262,-0.2045397162437439,-0.20581640303134918,-0.9569759964942932,0.025355756282806396,-0.053949207067489624,0.022100508213043213,-0.5372014531815846,-0.14331107897863848,-0.03120776388462091,-0.8306037228517337,0.20729790489329564,-0.21056718650754347,2.015387908872581
1780773614541102080,0.20898914337158203,-0.3481872081756592,-0.10008445382118225,-0.08393223583698273,-0.20626068115234375,-0.20140860974788666,-0.9575443267822266,0.07500457763671875,-0.12360359728336334,0.04947853088378906,-0.5374503190262109,-0.14281674526990623,-0.028830971462675218,-0.830613776727906,0.2027957937588957,-0.21216408389172212,2.014660055813125
1780773614551137280,0.2190241813659668,-0.2285476177930832,-0.07555487751960754,0.0876978412270546,-0.20703555643558502,-0.19829826056957245,-0.958026111125946,-0.022242993116378784,0.028651058673858643,-0.01520991325378418,-0.5375388406085241,-0.14227480826428454,-0.027291261454772297,-0.8307014792582069,0.1996213899278281,-0.21283341839941491,2.0143324517877708
1780773614561172224,0.22905921936035156,-0.09068615734577179,-0.05475692078471184,0.036230918020009995,-0.20780275762081146,-0.19682948291301727,-0.9581629037857056,0.020958885550498962,0.10562770068645477,-0.009076476097106934,-0.5373954612378912,-0.1421869364661558,-0.02648433616168563,-0.8308353928113573,0.19812308092818917,-0.21356879477420948,2.0146350912725826
1780773614571207168,0.23909401893615723,-0.15121448040008545,-0.09160574525594711,0.049040187150239944,-0.20861387252807617,-0.19562417268753052,-0.9582334756851196,0.022166743874549866,0.03128702938556671,-0.01819169521331787,-0.5373097613900943,-0.14219478612799683,-0.025766193198810995,-0.8309120905353132,0.19689388327272622,-0.21436185509228714,2.0148109651228023
1780773614581242112,0.249129056930542,-0.2243960201740265,-0.1052272841334343,0.065056711435318,-0.2097058892250061,-0.19371230900287628,-0.9583835601806641,0.013996660709381104,-0.020643159747123718,-0.015554428100585938,-0.537230357358155,-0.14212512904857796,-0.024671487746240367,-0.831008711743065,0.19494472803524615,-0.21541694658265026,2.0149446175339554
1780773614591277056,0.25916409492492676,-0.2560255825519562,-0.13242800533771515,0.1108686700463295,-0.21102578938007355,-0.1911633461713791,-0.9586055874824524,-0.012164518237113953,-0.04740782082080841,-0.03347510099411011,-0.5370443502923783,-0.14197186482441004,-0.023263454828587583,-0.8311956994511365,0.1923472102575447,-0.21668220181028264,2.015305446537698
1780773614601313024,0.26920008659362793,-0.2802262604236603,-0.1653635948896408,0.1472375988960266,-0.21271467208862305,-0.1882864087820053,-0.9588016867637634,-0.020668506622314453,-0.05838717520236969,-0.06001240015029907,-0.5367212545003007,-0.14188356386502562,-0.021638098745860243,-0.8314632191789255,0.1894170619247557,-0.21831870383173085,2.0159828244689355
1780773614611348224,0.2792351245880127,-0.35207757353782654,-0.25653666257858276,0.15480123460292816,-0.21486875414848328,-0.18477223813533783,-0.9590049982070923,-0.019338399171829224,-0.08207346498966217,-0.07570874691009521,-0.5360906745441317,-0.1418121264755419,-0.01966744393067313,-0.8319310486677738,0.18584009829673617,-0.2204136886023175,2.017368307440918
1780773614621383168,0.28927016258239746,-0.2248903065919876,-0.18542572855949402,0.02525549754500389,-0.21714340150356293,-0.18195925652980804,-0.9590305685997009,-0.06268753111362457,-0.09832943975925446,-0.08509784936904907,-0.5361182739997907,-0.14200789852357704,-0.017846162853722917,-0.8319210063882957,0.1829786027339636,-0.2226653137100811,2.017200338721458
1780773614631418112,0.2993052005767822,-0.10537881404161453,-0.20098324120044708,0.1117299422621727,-0.2191610485315323,-0.18014764785766602,-0.9589135646820068,-0.09539888799190521,-0.035123348236083984,-0.13518738746643066,-0.5359077270534233,-0.14236933229141607,-0.016558463212255597,-0.8320214126420968,0.1811365472989278,-0.2246921418753682,2.0176465111410478
1780773614641453312,0.309340238571167,-0.039642151445150375,-0.20465652644634247,0.0974452793598175,-0.22127506136894226,-0.17929811775684357,-0.9585872888565063,-0.06624630093574524,-0.04636412858963013,-0.14753758907318115,-0.535550039421352,-0.14304083740592383,-0.015674422629693697,-0.8321537573981931,0.18027295478399863,-0.22686086958342525,2.0184995169769087
1780773614651488000,0.31937503814697266,-0.10809417814016342,-0.25605157017707825,0.13017046451568604,-0.2237010896205902,-0.17838026583194733,-0.9581953287124634,-0.0692066103219986,-0.11086532473564148,-0.17666178941726685,-0.5351389667348104,-0.14382871801548455,-0.014684337742525127,-0.8323004519332723,0.17934006842441635,-0.22935285526764565,2.019478510856671
1780773614661523200,0.3294100761413574,-0.23458446562290192,-0.31984251737594604,0.14713186025619507,-0.22670693695545197,-0.1764146238565445,-0.9578527212142944,-0.06261496245861053,-0.133964404463768,-0.20405828952789307,-0.5347138667420068,-0.1445758525553132,-0.013094276214235492,-0.8324706951299471,0.17734275301842414,-0.23240577006707058,2.0204305234496553
1780773614671558144,0.3394451141357422,-0.33758971095085144,-0.3867167532444,0.16087616980075836,-0.23037613928318024,-0.17329782247543335,-0.9575461745262146,-0.07409773766994476,-0.14826589822769165,-0.2363472580909729,-0.534295793313384,-0.14529124692184645,-0.010833417745006171,-0.8326469975681632,0.1741771835872062,-0.23610287772893618,2.0212890561169847
1780773614681594112,0.34948110580444336,-0.3696514964103699,-0.4646832048892975,0.13587148487567902,-0.2347271591424942,-0.16949205100536346,-0.9571706056594849,-0.0843035876750946,-0.13937635719776154,-0.26916295289993286,-0.5339518608784984,-0.14611438595320717,-0.008079177338599731,-0.8327549093051234,0.17031423480427874,-0.24048444246357517,2.0219100085278656
1780773614691629056,0.3595161437988281,-0.30300483107566833,-0.5438379645347595,0.09000573307275772,-0.23975048959255219,-0.16591699421405792,-0.956551730632782,-0.09058701992034912,-0.11263220012187958,-0.29483675956726074,-0.533754765910056,-0.14729900931141118,-0.005208321634612338,-0.8326954349690279,0.1666878148210039,-0.24558128091056886,2.022171389205277
1780773614701664256,0.3695511817932129,-0.10525897145271301,-0.5912214517593384,0.035509467124938965,-0.2453165501356125,-0.16377051174640656,-0.9555098414421082,-0.08920188248157501,-0.062212154269218445,-0.31782084703445435,-0.5336554803404521,-0.1491221646168144,-0.002769426596823787,-0.8324463150453869,0.1645115736559781,-0.25131104469004706,2.022277976336631
1780773614711699200,0.37958621978759766,0.14183443784713745,-0.6042167544364929,0.010799594223499298,-0.25107595324516296,-0.16391094028949738,-0.9539884924888611,-0.08736395835876465,0.004380315542221069,-0.32349252700805664,-0.5335626174334606,-0.15167141416051505,-0.0012370307395605015,-0.8320487937112004,0.1646539117193994,-0.25734955794544184,2.0225264064097606
1780773614721734144,0.3896210193634033,0.2961486279964447,-0.6287545561790466,0.0028708302415907383,-0.2569669485092163,-0.16607944667339325,-0.9520428776741028,-0.07774984836578369,0.03241245448589325,-0.3042284846305847,-0.5333532521123171,-0.15484919461298766,-0.000541610411031573,-0.831598378571524,0.16685256047504224,-0.26362897449151906,2.0232115213273425
1780773614731769088,0.3996560573577881,0.3201700747013092,-0.6973013877868652,-0.006814820226281881,-0.26326999068260193,-0.16913683712482452,-0.9497798085212708,-0.06717434525489807,-0.006842777132987976,-0.27138108015060425,-0.5331311150769706,-0.15846164491413398,-0.00010539038446301486,-0.8310602849894845,0.1699538239000117,-0.2704016078729198,2.02400310470195
1780773614741804032,0.40969109535217285,0.26074403524398804,-0.7806561589241028,0.03433474525809288,-0.27033963799476624,-0.17193876206874847,-0.9472874402999878,-0.06195098161697388,-0.053921833634376526,-0.24141794443130493,-0.5328513348162345,-0.16234484909942085,0.0006457529865672773,-0.8304897583789379,0.1727973982418173,-0.2779932621112334,2.0249155668990775
1780773614751839232,0.4197261333465576,0.14769978821277618,-0.86385577917099,0.09682715684175491,-0.2782732844352722,-0.1737552434206009,-0.9446550011634827,-0.06230288743972778,-0.07616846263408661,-0.22264236211776733,-0.5324033535725199,-0.1663381713357609,0.0020257941236186566,-0.8299844678816581,0.17464164544084235,-0.286473814074973,2.026144072555786
1780773614761875200,0.4297621250152588,0.009322462603449821,-0.9382876753807068,0.15610751509666443,-0.28702089190483093,-0.17418313026428223,-0.941955029964447,-0.06129148602485657,-0.08846640586853027,-0.19688469171524048,-0.5316246975171376,-0.1703091748278354,0.004157071038918844,-0.8296702156900354,0.17507615714810654,-0.29577012992694873,2.028026300753703
1780773614771910144,0.43979716300964355,-0.13341817259788513,-1.0363092422485352,0.20524629950523376,-0.296665221452713,-0.17315083742141724,-0.9391530752182007,-0.0557517409324646,-0.10356728732585907,-0.17624908685684204,-0.5308961155216251,-0.17427572940299257,0.007171038549032446,-0.8292924130734166,0.17402793757015791,-0.3059665643664383,2.0296107851888663
1780773614781945344,0.4498322010040283,-0.22357763350009918,-1.154603362083435,0.2362034171819687,-0.3073686361312866,-0.17076453566551208,-0.936143159866333,-0.04895460605621338,-0.11933556199073792,-0.153059720993042,-0.5300942580963179,-0.1783434814156526,0.011046701830896595,-0.8288978519748391,0.1716055501474306,-0.3172454101382534,2.0311687242439818
1780773614791980032,0.459867000579834,-0.12743671238422394,-1.180979609489441,0.26068586111068726,-0.3187849819660187,-0.16832256317138672,-0.9327613115310669,-0.03709575533866882,-0.08547689020633698,-0.1571282148361206,-0.5291497619269658,-0.18273091866857671,0.015124955854933394,-0.8284812017336075,0.1691277018228162,-0.3293196019547758,2.032982113365101
1780773614802014976,0.46990203857421875,0.08171597123146057,-1.1892101764678955,0.326648086309433,-0.3303736448287964,-0.16717851161956787,-0.9289265871047974,-0.03315174579620361,0.022906675934791565,-0.17135417461395264,-0.5278468767734978,-0.18758893421968126,0.01863053463139096,-0.828155171156327,0.16796721492885897,-0.3417001827022258,2.03573867389673
1780773614812050176,0.4799370765686035,0.23111824691295624,-1.2084749937057495,0.3447194993495941,-0.34203284978866577,-0.16752590239048004,-0.9246343374252319,-0.013619005680084229,0.10510219633579254,-0.15696966648101807,-0.5261657683655369,-0.19293293967685105,0.021441154940985797,-0.8279292110918199,0.16831956507185378,-0.3543020451554207,2.0395382326498894
1780773614822085120,0.4899721145629883,0.29165375232696533,-1.283691167831421,0.34671342372894287,-0.3541436493396759,-0.1688680350780487,-0.9198184013366699,0.0014062225818634033,0.1085195243358612,-0.11339998245239258,-0.5243297874380402,-0.19879270541611302,0.02392215168111334,-0.8276396293389637,0.1696810948885561,-0.3675216796285142,2.0437910256624168
1780773614832120064,0.500007152557373,0.21652865409851074,-1.3685503005981445,0.36415284872055054,-0.3669472932815552,-0.1699787825345993,-0.9145801663398743,0.031467556953430176,0.0815388411283493,-0.07656973600387573,-0.5224254723893281,-0.20493404345256638,0.02668246151465781,-0.8272615296851538,0.17080813680734114,-0.3815571317564258,2.04812112249527
1780773614842156288,0.5100431442260742,0.062476761639118195,-1.455349326133728,0.3840285539627075,-0.3805067837238312,-0.16988800466060638,-0.9090393781661987,0.043424904346466064,0.049282535910606384,-0.049975454807281494,-0.520522561830431,-0.21111584023116178,0.030172912088026724,-0.8267864516590054,0.17071602214554368,-0.396421323986247,2.0521983799619328
1780773614852191232,0.520078182220459,-0.11997320502996445,-1.5288573503494263,0.41059041023254395,-0.3947497606277466,-0.16808664798736572,-0.903282642364502,0.05334961414337158,0.018687859177589417,-0.028937816619873047,-0.5186601888293758,-0.217166068791862,0.03460603958742969,-0.8262160888707059,0.16888838619875257,-0.4120048549152731,2.055811160558522
1780773614862226176,0.5301132202148438,-0.3339872360229492,-1.6064890623092651,0.41633591055870056,-0.4095954895019531,-0.16437022387981415,-0.8973371386528015,0.06529617309570312,-0.009793594479560852,-0.015306293964385986,-0.5168967772647718,-0.2229927547698853,0.04007056201031056,-0.8255218885587161,0.16511951391353288,-0.428210263852413,2.058728694307094
1780773614872261120,0.5401480197906494,-0.4880353808403015,-1.6700704097747803,0.4047008156776428,-0.4249926209449768,-0.15887250006198883,-0.8911457657814026,0.0868425965309143,-0.03251849114894867,-0.005475878715515137,-0.5153182017707526,-0.22860898863887683,0.046529921993818515,-0.8246333486281995,0.159548538312028,-0.4450021726920033,2.0606997422713373
1780773614882296064,0.5501830577850342,-0.4454557001590729,-1.7012954950332642,0.40098729729652405,-0.44057828187942505,-0.15285010635852814,-0.8846059441566467,0.10245877504348755,-0.03916649520397186,-0.05739539861679077,-0.5137981435818311,-0.2342100649918341,0.05331680926024284,-0.8235985079594214,0.1534516266211894,-0.4620866584908255,2.06222114563518
1780773614892331008,0.560218095779419,-0.330635130405426,-1.749629020690918,0.47389426827430725,-0.4565095901489258,-0.14749674499034882,-0.8774073719978333,0.10902118682861328,-0.01615375280380249,-0.07823532819747925,-0.5119694650265814,-0.24023366832858453,0.05986728639969643,-0.8225515597025912,0.1480368559550589,-0.4797505117334505,2.0643841806375414
1780773614902366208,0.5702531337738037,-0.27614179253578186,-1.7640641927719116,0.5471813082695007,-0.4726296663284302,-0.1424463391304016,-0.8696724772453308,0.15217983722686768,0.015310123562812805,-0.08464264869689941,-0.5096645274595736,-0.2465283337909409,0.06623842173998712,-0.8216315603430021,0.14293251918455963,-0.4978059699152266,2.067544213219978
1780773614912401152,0.5802881717681885,-0.36222872138023376,-1.797006607055664,0.6390052437782288,-0.48892682790756226,-0.13699349761009216,-0.86150062084198,0.18941205739974976,-0.026672273874282837,-0.10152733325958252,-0.5069886891828385,-0.2528956014665108,0.07275639918081094,-0.8208001438315919,0.1374256506419114,-0.5162017074979877,2.0712939989836725
1780773614922437120,0.5903241634368896,-0.6592382788658142,-1.8947811126708984,0.707720935344696,-0.5056576132774353,-0.12925216555595398,-0.8529971837997437,0.23600435256958008,-0.07776382565498352,-0.07817035913467407,-0.5041353135025275,-0.2589228107916429,0.08037645546528484,-0.8199671524992984,0.12961477456756829,-0.5351093211126401,2.0746734193926595
1780773614932472320,0.6003592014312744,-1.0065826177597046,-2.0271050930023193,0.7131960988044739,-0.5232321619987488,-0.11853248625993729,-0.8439064621925354,0.26880717277526855,-0.10963217914104462,-0.036678194999694824,-0.5014659052524626,-0.26458992121212965,0.0896601757584569,-0.8188315358073975,0.11881182220568029,-0.5550044447684576,2.076474473855076
1780773614942507008,0.6103940010070801,-1.4118268489837646,-2.139091968536377,0.7259401082992554,-0.5415511727333069,-0.10451449453830719,-0.8341456651687622,0.24823153018951416,-0.10184536874294281,-0.011801540851593018,-0.4991389769465363,-0.2697505210816339,0.10080583152886569,-0.8172716978188228,0.10470570698486298,-0.5758326932781052,2.0760709495953167
1780773614952541952,0.6204290390014648,-1.7215404510498047,-2.2088468074798584,0.7242282629013062,-0.5603165626525879,-0.08740849792957306,-0.823653519153595,0.1952042579650879,-0.06508785486221313,0.01412898302078247,-0.4971605381976459,-0.2743190611614543,0.11367627079094689,-0.8152657001843407,0.08752018331232364,-0.5973693781209497,2.073346255068637
1780773614962577152,0.6304640769958496,-1.7656242847442627,-2.2171404361724854,0.6851564645767212,-0.5790525078773499,-0.06887910515069962,-0.8123754858970642,0.15685707330703735,-0.030974410474300385,-0.004641115665435791,-0.49536266835076664,-0.27854651718409584,0.1273738635940227,-0.8128982746663507,0.06893368493696529,-0.6192578628857693,2.0690799317423707
1780773614972612096,0.6404991149902344,-1.5758930444717407,-2.2096846103668213,0.5610473155975342,-0.5972437858581543,-0.051671311259269714,-0.8003935813903809,0.1310572624206543,0.04828386381268501,-0.08655405044555664,-0.4937375907768011,-0.28293674396630186,0.14053468322690157,-0.810197508865122,0.051694332850164525,-0.6410567206233887,2.064146301314187
1780773614982647296,0.6505341529846191,-1.284862756729126,-2.188054323196411,0.6092856526374817,-0.614936351776123,-0.03672069311141968,-0.7877213358879089,0.10968738794326782,0.16194957494735718,-0.047056496143341064,-0.49184965886108695,-0.2878410875459483,0.15260030624786244,-0.8074308453213083,0.03672895032336444,-0.662831653068164,2.059986327626254
1780773614992683264,0.6605701446533203,-1.0156280994415283,-2.1682963371276855,0.5778191089630127,-0.6320177316665649,-0.023942064493894577,-0.7745839953422546,0.12133657932281494,0.22010904550552368,-0.052793264389038086,-0.4893743025383129,-0.2932543250552373,0.16343161414774238,-0.8048632376410394,0.023944353334096325,-0.6843879789407912,2.0575283290549806
1780773615002718208,0.6706051826477051,-0.9167667627334595,-2.1989362239837646,0.48784178495407104,-0.6488317847251892,-0.013190479017794132,-0.7608174681663513,0.11195135116577148,0.20229265093803406,-0.043793678283691406,-0.4868267894024642,-0.29921743337780815,0.1733787238893781,-0.8021273879582232,0.0131908615363745,-0.7061224282382342,2.055469754343218
1780773615012753152,0.6806402206420898,-0.9515806436538696,-2.267317771911621,0.4425504505634308,-0.6656422019004822,-0.003075010608881712,-0.7462647557258606,0.14048045873641968,0.1660846471786499,0.0012543201446533203,-0.4843903817354336,-0.3054394502033715,0.18323312002707337,-0.7990609260581116,0.003075015461522055,-0.7283582170767933,2.05283375866197
1780773615022788096,0.6906750202178955,-1.037941336631775,-2.349729299545288,0.3398616313934326,-0.6826115846633911,0.006957865785807371,-0.7307482361793518,0.1801244020462036,0.11071792989969254,0.04089844226837158,-0.4821862099667473,-0.3118212712074016,0.19337363372671232,-0.7955316702728438,-0.0069579218914624,-0.7513529957814562,2.0490363782842955
1780773615032823040,0.7007100582122803,-1.1910555362701416,-2.376223564147949,0.21706408262252808,-0.699623703956604,0.016967572271823883,-0.7143099904060364,0.197365403175354,0.08383198082447052,0.06822234392166138,-0.4804989471601778,-0.31821106959567313,0.20392822710267283,-0.791375831439519,-0.016968386985879283,-0.7750117057951692,2.043318504115949
1780773615042858240,0.710745096206665,-1.3165102005004883,-2.4217464923858643,0.15254980325698853,-0.7164927124977112,0.02723209746181965,-0.6970627903938293,0.22039902210235596,0.0840044766664505,0.10856187343597412,-0.4792895452837733,-0.32442791322565023,0.21497704011399119,-0.7866465896908931,-0.027235463872819617,-0.7991427190002799,2.035657781634262
1780773615052893184,0.7207801342010498,-1.2860316038131714,-2.4275500774383545,0.04816747084259987,-0.7332180738449097,0.03703289106488228,-0.6789843440055847,0.23315709829330444,0.05751054361462593,0.1271045207977295,-0.47833934152638247,-0.33071670370041045,0.22612892057332043,-0.7814624279225625,-0.03704135995794268,-0.8237829507233254,2.0268586514202256
1780773615062928128,0.7308151721954346,-1.2290040254592896,-2.393489122390747,-0.045369405299425125,-0.7493641376495361,0.045467276126146317,-0.6605952978134155,0.24013257026672363,0.036197762936353683,0.11597859859466553,-0.4776671598834915,-0.3370881378766403,0.23679939428508087,-0.7759714588083972,-0.04548295609468533,-0.848273633133574,2.0174689128319003
1780773615072964096,0.7408511638641357,-1.0278050899505615,-2.4319629669189453,-0.0926668718457222,-0.7651897072792053,0.05245686322450638,-0.6416642665863037,0.2828899025917053,0.05528544634580612,0.1347215175628662,-0.47690835104936463,-0.3438112510868155,0.246904213342942,-0.7703185175861732,-0.05248094918538171,-0.8729761735577021,2.0084075621663446
1780773615082999296,0.7508862018585205,-0.851125180721283,-2.4002134799957275,-0.2089700549840927,-0.7805367112159729,0.05715877190232277,-0.6224912405014038,0.3420143723487854,0.06796328723430634,0.10062539577484131,-0.47609877518892935,-0.3510440997811366,0.2559734996425856,-0.7645754444275461,-0.057189942608943174,-0.89757132334573,2.0001637346688494
1780773615093033984,0.7609210014343262,-0.8212255835533142,-2.4153127670288086,-0.2353161722421646,-0.7954917550086975,0.0604914091527462,-0.6029375195503235,0.3875633478164673,0.0692388191819191,0.1446550488471985,-0.47526208667455655,-0.35857548309750276,0.2644898415680116,-0.7586795595117272,-0.06052836101736011,-0.9222309880030045,1.9922542975320987
1780773615103066624,0.7709536552429199,-0.8394133448600769,-2.4357094764709473,-0.3096623122692108,-0.810094952583313,0.0632677674293518,-0.5828750133514404,0.42995280027389526,0.0446881428360939,0.1868484616279602,-0.47452356138175505,-0.36615593226957194,0.2729328238643949,-0.7525056803277183,-0.06331005096268617,-0.9470931312390851,1.9839223370247343
1780773615113101824,0.7809886932373047,-0.9159712791442871,-2.408395290374756,-0.4023275375366211,-0.8242400288581848,0.06537801027297974,-0.56245356798172,0.4386504888534546,-0.00817282497882843,0.18574464321136475,-0.4741183293158059,-0.37367088604444737,0.28132417351407807,-0.7459480650729109,-0.06542467722146238,-0.9719868587678918,1.974663889357672
1780773615123136768,0.7910237312316895,-1.0910993814468384,-2.3501360416412354,-0.4148763418197632,-0.8376787304878235,0.0674549788236618,-0.54198157787323,0.44444459676742554,-0.0335652232170105,0.19643110036849976,-0.4741423163928133,-0.38074041698080274,0.2899067798852279,-0.7390397410895659,-0.06750623693071232,-0.996530065350948,1.9640099808284897
1780773615133171712,0.8010587692260742,-1.237869143486023,-2.305576801300049,-0.3891454041004181,-0.850377082824707,0.07031083852052689,-0.5214549899101257,0.45435047149658203,-0.05927872657775879,0.22406119108200073,-0.4744352433925758,-0.3871362762995987,0.29899499181674566,-0.7318735023215756,-0.07036889759049442,-1.0207242201570879,1.9519020582611186
1780773615143207680,0.8110947608947754,-1.3952113389968872,-2.189080238342285,-0.41099292039871216,-0.8622206449508667,0.07361496239900589,-0.5011551380157471,0.4422529935836792,-0.1372898817062378,0.21178746223449707,-0.4750221862034001,-0.39284993076808933,0.30836888248710503,-0.724521595062056,-0.07368161453171677,-1.0442868965374064,1.938528998605731
1780773615153242880,0.8211297988891602,-1.6351488828659058,-2.061235189437866,-0.3874809443950653,-0.8729981780052185,0.07752317935228348,-0.48152297735214233,0.4131287932395935,-0.22516721487045288,0.19984573125839233,-0.4761440689795096,-0.39756569499063427,0.31808808376212555,-0.7169716472894273,-0.07760104051198068,-1.066745574956986,1.9233043095664963
1780773615163277824,0.8311648368835449,-1.9208769798278809,-1.9327101707458496,-0.2960634231567383,-0.8827317953109741,0.08293408900499344,-0.4625003933906555,0.4151109457015991,-0.25290173292160034,0.22531777620315552,-0.4776901560395489,-0.40101005172755466,0.32854337484955576,-0.7092689062114421,-0.08302945833915955,-1.0881789795726562,1.9059092545094405
1780773615173312768,0.8411996364593506,-2.170111894607544,-1.8352398872375488,-0.23869065940380096,-0.8915149569511414,0.08988577127456665,-0.4439837336540222,0.42226147651672363,-0.21911245584487915,0.2729785144329071,-0.4796090800204679,-0.403191370581677,0.3397717743314503,-0.7014035481096885,-0.09000725164717237,-1.1087416710958629,1.8863223773124886
1780773615183347712,0.8512346744537354,-2.392913579940796,-1.7541816234588623,-0.2069401890039444,-0.8995660543441772,0.09784456342458725,-0.4256843328475952,0.4123072624206543,-0.19440218806266785,0.3165382742881775,-0.4819021055684994,-0.40435578442143527,0.35164503276157655,-0.6932621373045477,-0.09800136270905967,-1.1288088657026591,1.864627927314615
1780773615193382656,0.8612697124481201,-2.552067518234253,-1.6258891820907593,-0.1561467945575714,-0.9068240523338318,0.10655253380537033,-0.40781956911087036,0.3786410093307495,-0.19964639842510223,0.31680089235305786,-0.48453335013175197,-0.4045178094549441,0.3639444416853944,-0.6849359648661166,-0.10675519598001369,-1.1481728270298788,1.8411416418826243
1780773615203417856,0.8713047504425049,-2.6488890647888184,-1.4431649446487427,-0.1275462955236435,-0.9131407141685486,0.1156986653804779,-0.3908809721469879,0.3135465979576111,-0.2103947103023529,0.286495566368103,-0.4874226460698063,-0.4036905476921234,0.37628906488532904,-0.6766533230728013,-0.11595835708405955,-1.1663348901035502,1.81654786362695
1780773615213453824,0.881340742111206,-2.8144705295562744,-1.2417042255401611,-0.1274845153093338,-0.9184548854827881,0.12497948855161667,-0.37526094913482666,0.23901152610778809,-0.18441244959831238,0.27096712589263916,-0.4907973563326604,-0.40177733955111106,0.38851576082384687,-0.6683924453719383,-0.12530715574516804,-1.182916614365107,1.7906191218574965
1780773615223488768,0.8913757801055908,-2.931302309036255,-1.0605093240737915,-0.07395816594362259,-0.9228154420852661,0.13466478884220123,-0.36093905568122864,0.1766606569290161,-0.11574389040470123,0.271156370639801,-0.494692463494002,-0.39865460816515996,0.40075550319592884,-0.6601127727005272,-0.13507516566683958,-1.1979614531146225,1.7630681404863946
1780773615233523968,0.9014108180999756,-2.802910804748535,-0.8785213828086853,-0.016423773020505905,-0.9263124465942383,0.14449192583560944,-0.34794726967811584,0.12354755401611328,-0.06783176958560944,0.25344961881637573,-0.4985975956014,-0.39475150623840566,0.4125501342452227,-0.6522070657575652,-0.1449994862248199,-1.2114767313411738,1.7356702670241246
1780773615243558912,0.9114458560943604,-2.6966640949249268,-0.6913712024688721,0.0007309804204851389,-0.929053544998169,0.1538132131099701,-0.33645376563072205,0.060660600662231445,-0.062428295612335205,0.18455255031585693,-0.5023615247177022,-0.3904741803850577,0.42344188619135037,-0.6448719822558675,-0.15442625556436637,-1.2233415519592026,1.7095468456797294
1780773615253593600,0.921480655670166,-2.674813985824585,-0.5257726311683655,0.06556803733110428,-0.9310150146484375,0.16303323209285736,-0.3265444338321686,0.00140380859375,-0.04863807559013367,0.15256375074386597,-0.5061876494269648,-0.3855610304198043,0.43367092117432693,-0.6380018383444194,-0.1637642369136558,-1.2334621877578567,1.6839557532693537
1780773615263628800,0.9315156936645508,-2.531656503677368,-0.42243826389312744,0.10358838737010956,-0.932388424873352,0.17231667041778564,-0.3177403211593628,-0.02641284465789795,-0.03820718824863434,0.1283177137374878,-0.5098995825786306,-0.3801950639330722,0.44337518023349115,-0.6315636402239262,-0.17318104453056868,-1.2423578420607544,1.6590715017284636
1780773615273663744,0.9415507316589355,-2.2843735218048096,-0.35663941502571106,0.11223514378070831,-0.9334225654602051,0.18092209100723267,-0.30982184410095215,-0.04875516891479492,-0.06362779438495636,0.05200934410095215,-0.513219071124357,-0.3750145273254785,0.4521649997937499,-0.6257132996991808,-0.18192393610080443,-1.2503180995623138,1.6362280836208765
1780773615283699712,0.9515867233276367,-2.1275346279144287,-0.3438381254673004,0.089797742664814,-0.9342771768569946,0.1885901689529419,-0.3025888502597809,-0.09495866298675537,-0.0773840993642807,-0.0046926140785217285,-0.5162628847241468,-0.3701599630491644,0.4600947430907524,-0.6202960098875995,-0.1897263535669945,-1.257582444654682,1.6151780985577708
1780773615293734912,0.9616217613220215,-2.032759428024292,-0.34604549407958984,0.06355202198028564,-0.9351726174354553,0.1955723613500595,-0.29530248045921326,-0.1722797155380249,-0.0784764289855957,-0.030808299779891968,-0.5190472073755024,-0.3656537569484769,0.46759606787521374,-0.6150131696261881,-0.19684104329517774,-1.2649322102967242,1.5951568476381859
1780773615303769856,0.9716567993164062,-1.9250397682189941,-0.3397170305252075,-0.015431744046509266,-0.9360760450363159,0.20155175030231476,-0.288337379693985,-0.2792559266090393,-0.09873804450035095,-0.06876400113105774,-0.5218160177840667,-0.3614442350144662,0.4745412212789884,-0.6098169207299721,-0.20294192565067504,-1.2719910011675928,1.5759391139505814
1780773615313804800,0.981691837310791,-1.8483120203018188,-0.2881660759449005,-0.13013489544391632,-0.9371629357337952,0.2063303142786026,-0.2813419699668884,-0.40811288356781006,-0.1286020576953888,-0.09469559788703918,-0.5246490121095154,-0.35764025340309485,0.4810638920055957,-0.6044950957795147,-0.20782308321477386,-1.279150531282689,1.5571438863468308
1780773615323839744,0.9917266368865967,-1.6525321006774902,-0.3035722076892853,-0.10943786799907684,-0.9382593631744385,0.20998753607273102,-0.27490830421447754,-0.5504490733146667,-0.1869925558567047,-0.09150096774101257,-0.5274490191854652,-0.35423134817104324,0.48689423898684336,-0.5993760525968641,-0.21156221526773022,-1.2857755134145359,1.5395578688941352
1780773615333874688,1.0017616748809814,-1.467008352279663,-0.15948200225830078,-0.04646236449480057,-0.9390658736228943,0.21351219713687897,-0.2693842351436615,-0.6719875931739807,-0.25188806653022766,-0.08674067258834839,-0.5298658061930321,-0.35098895201413716,0.49205145432371444,-0.5949238512494356,-0.21516866234044643,-1.2914339989566954,1.5239547133682774
1780773615343909632,1.0117967128753662,-1.3348007202148438,0.016878915950655937,0.043697621673345566,-0.9392679333686829,0.21722909808158875,-0.26568296551704407,-0.7362387776374817,-0.27946966886520386,-0.08160707354545593,-0.5321417782330392,-0.34749382481823404,0.4963935491535118,-0.5913262353472709,-0.21897487694549692,-1.2951358964808235,1.5101491851719349
1780773615353945856,1.0218327045440674,-1.2700475454330444,0.16801516711711884,0.213484525680542,-0.9387418627738953,0.22187510132789612,-0.26369544863700867,-0.682275652885437,-0.2516297698020935,-0.06713038682937622,-0.5342661891969581,-0.3434127439815214,0.5002199182708311,-0.5885638655031693,-0.2237370838348545,-1.296950427755781,1.4975873293089974
1780773615363980800,1.0318677425384521,-1.0433638095855713,0.2605932950973511,0.32566380500793457,-0.9375477433204651,0.22757335007190704,-0.26308685541152954,-0.5382518172264099,-0.19835276901721954,-0.05272430181503296,-0.5359936981132558,-0.33894041729750646,0.5035632750338266,-0.5867318316773077,-0.22958491545790946,-1.2972205085604274,1.4867648566575844
1780773615374015744,1.041902780532837,-0.8613035082817078,0.18290184438228607,0.43632158637046814,-0.9360595941543579,0.23359301686286926,-0.2631097733974457,-0.3697570562362671,-0.15211108326911926,-0.037549376487731934,-0.5370380128643817,-0.33479445176911654,0.5063178689424075,-0.5857858728794839,-0.23577129891360657,-1.2967842948069712,1.4785830087308645
1780773615384050944,1.0519378185272217,-0.8270807862281799,-0.027620773762464523,0.5149099230766296,-0.9347012639045715,0.24029359221458435,-0.2619018852710724,-0.17864102125167847,-0.04615600407123566,0.0121002197265625,-0.5372692866436826,-0.33104945857681595,0.5093675676442323,-0.5850578647029523,-0.24266829152489208,-1.2976035860859128,1.471501614202224
1780773615394085888,1.0619728565216064,-0.7194653749465942,-0.23054713010787964,0.5670913457870483,-0.9337353110313416,0.2473973035812378,-0.2587142586708069,-0.013072669506072998,0.0911036878824234,0.008668512105941772,-0.5366146185626046,-0.32797028289796015,0.5129116483805758,-0.5842961493376305,-0.24999313295558703,-1.3005024736395379,1.465258886608712
1780773615404120576,1.072007656097412,-0.46842706203460693,-0.3980839252471924,0.5691361427307129,-0.9330993890762329,0.254329651594162,-0.2542482018470764,0.08287954330444336,0.1912575364112854,0.012655764818191528,-0.5351224379237723,-0.32577481620201965,0.5164752310658142,-0.5837535403641931,-0.25715450974314014,-1.3047771473434626,1.4607582421365488
1780773615414155776,1.0820426940917969,-0.08894391357898712,-0.5061706900596619,0.5059875249862671,-0.9328553676605225,0.26011255383491516,-0.24924346804618835,0.10750752687454224,0.23706454038619995,0.01540251076221466,-0.532820052046966,-0.32494031138058105,0.5194151126704368,-0.5837161545601338,-0.263138770736976,-1.309711575768551,1.4593594286078484
1780773615424191744,1.092078685760498,0.3837607800960541,-0.5507168769836426,0.4233005940914154,-0.9329559803009033,0.2640955150127411,-0.24463602900505066,0.06772160530090332,0.2609136402606964,0.05020856857299805,-0.5298214990597151,-0.3256879050531812,0.5211615589056615,-0.5844717427536685,-0.26726600783066373,-1.3143536486579972,1.4620901686597398
1780773615434226688,1.1021137237548828,0.7456787824630737,-0.5448668003082275,0.34968283772468567,-0.9332514405250549,0.2663240432739258,-0.24106667935848236,0.04253494739532471,0.3072233200073242,0.07221287488937378,-0.526321763051332,-0.3277913592961066,0.5215548745565746,-0.5861046754711776,-0.26957732261210277,-1.3180134244932773,1.4688771064454396
1780773615444261888,1.1121487617492676,0.9770947098731995,-0.6044052839279175,0.26394662261009216,-0.9338079690933228,0.26710453629493713,-0.2380293756723404,0.06796324253082275,0.33892881870269775,0.08032983541488647,-0.5224683799264693,-0.3309788888024327,0.5209973968288941,-0.5882529700988867,-0.2703871333545595,-1.3212095067351095,1.478493665614728
1780773615454296832,1.1221837997436523,0.9340742826461792,-0.6579477190971375,0.15092714130878448,-0.9347493648529053,0.26675939559936523,-0.2346981167793274,0.10079550743103027,0.31350183486938477,0.05407983064651489,-0.5185609172413288,-0.3348537373671082,0.5201191374417562,-0.5902912170515348,-0.27002900932839863,-1.3248001967346341,1.4888812214222276
1780773615464331776,1.132218837738037,0.6664875745773315,-0.6667867302894592,0.05719638615846634,-0.9360439777374268,0.2657652497291565,-0.23063063621520996,0.07907986640930176,0.20400705933570862,0.05556654930114746,-0.5151732816550382,-0.33867688801604084,0.5195985461968843,-0.591533436515379,-0.26899764226299683,-1.3292194394165118,1.497317834051879
1780773615474366720,1.1422536373138428,0.2252875119447708,-0.6670013070106506,0.012497625313699245,-0.9374727606773376,0.26507315039634705,-0.22556842863559723,0.01636064052581787,0.060961395502090454,0.05761498212814331,-0.5125506402383707,-0.3417297484727531,0.5200351552240147,-0.5916722636106124,-0.26827978754530596,-1.3346715035677847,1.5019933767957319
1780773615484401664,1.1522886753082275,-0.24788722395896912,-0.6716370582580566,-0.06426186114549637,-0.9390272498130798,0.26489800214767456,-0.21921862661838531,-0.01811075210571289,-0.03400203585624695,0.047679319977760315,-0.510889297441616,-0.3437377134827353,0.5217615106567506,-0.5904247729071355,-0.26809814716387675,-1.3414510214381998,1.5017925282060658
1780773615494437632,1.1623246669769287,-0.7033522129058838,-0.6399732232093811,-0.1827259361743927,-0.9407792091369629,0.26472386717796326,-0.21179139614105225,-0.03827035427093506,-0.08451759815216064,0.06793156266212463,-0.5103443446148489,-0.3448102376626005,0.5246048080643416,-0.5877450657832353,-0.2679175606355774,-1.3493644611582418,1.4967667992671583
1780773615504472832,1.1723597049713135,-1.2231658697128296,-0.5979663729667664,-0.2520887553691864,-0.9426695108413696,0.2646232545375824,-0.20334391295909882,-0.04733598232269287,-0.0660301148891449,0.09621196985244751,-0.5110321807454098,-0.34475069784146345,0.5286539494238732,-0.5835392488894777,-0.2678132299376489,-1.3583409452940238,1.4864347261304742
1780773615514507776,1.1823947429656982,-1.5817774534225464,-0.6106446385383606,-0.3227347135543823,-0.9446199536323547,0.2647673487663269,-0.1938849687576294,-0.035665690898895264,0.000415116548538208,0.1207190752029419,-0.5126824199267638,-0.3436354485013361,0.5338278670426465,-0.5780131609424266,-0.2679626636869077,-1.368356067598122,1.4714629719744645
1780773615524542720,1.192429780960083,-1.753480076789856,-0.6051622629165649,-0.4115215539932251,-0.9467595219612122,0.2644667327404022,-0.18358559906482697,-0.026369690895080566,0.04885721206665039,0.10927535593509674,-0.5149767094265956,-0.34206388891800743,0.5396290366242185,-0.5714820388928715,-0.26765092459957385,-1.3792638835717435,1.4535622251332456
1780773615534577920,1.2024648189544678,-1.7184150218963623,-0.5676263570785522,-0.4960212707519531,-0.9490131139755249,0.2632746398448944,-0.17337988317012787,-0.029685616493225098,0.0863347053527832,0.06237216293811798,-0.5176642652263059,-0.3404480524348175,0.5453486826699155,-0.5645472772115339,-0.26641503592711235,-1.3900942706536108,1.4348329178971684
1780773615544612864,1.2124998569488525,-1.6528141498565674,-0.4741182327270508,-0.5507952570915222,-0.9512954354286194,0.2610916197299957,-0.16391563415527344,-0.047178685665130615,0.10266268253326416,0.03241539001464844,-0.5205758072293908,-0.3389929918782447,0.550568734000262,-0.5576367456064246,-0.2641528678004,-1.4001640304252045,1.4166091420428857
1780773615554648832,1.2225358486175537,-1.5545562505722046,-0.37683698534965515,-0.5665284395217896,-0.9534386992454529,0.2583146393299103,-0.15565428137779236,-0.05567079782485962,0.09710833430290222,0.007201552391052246,-0.5236726513445918,-0.3375286617196869,0.555200199272384,-0.5509937591320448,-0.26127721677342597,-1.408968271436519,1.399199575905602
1780773615564683776,1.2325706481933594,-1.4585554599761963,-0.3041451871395111,-0.5726704597473145,-0.9554145336151123,0.25517383217811584,-0.14855843782424927,-0.045104384422302246,0.057432979345321655,0.0008533447980880737,-0.5268421299303102,-0.33606840292845697,0.559266313337861,-0.5447170821202221,-0.2580274932559334,-1.4165404991958523,1.3828223963599533
1780773615574718720,1.2426056861877441,-1.3729606866836548,-0.27788296341896057,-0.5790455341339111,-0.9572985768318176,0.2517136335372925,-0.14219681918621063,-0.013618290424346924,0.029551684856414795,-0.005737140774726868,-0.5299690687920326,-0.334728738178948,0.5629016456864466,-0.5387312268637043,-0.25445049321129715,-1.4233348751077852,1.367444534953048
1780773615584753664,1.252640724182129,-1.3590725660324097,-0.25724026560783386,-0.5668684840202332,-0.9591061472892761,0.24810655415058136,-0.13623012602329254,0.024306893348693848,0.03166338801383972,-0.004257515072822571,-0.5330538448165874,-0.3334194043219592,0.5663183158710824,-0.5328871812785124,-0.2507252019168219,-1.429701500170668,1.3525737622238752
1780773615594788864,1.2626757621765137,-1.249731421470642,-0.2428516000509262,-0.5698765516281128,-0.9608401656150818,0.24441897869110107,-0.13055939972400665,0.049798786640167236,0.030254527926445007,0.014241620898246765,-0.5360293529253083,-0.3321811325305272,0.5695401635939823,-0.5272118555673374,-0.24692045134946006,-1.4357430068450023,1.3383131310736944
1780773615604823808,1.2727108001708984,-1.0701501369476318,-0.1323181688785553,-0.5472543239593506,-0.9624513983726501,0.24051432311534882,-0.12585872411727905,0.05273759365081787,0.002512425184249878,0.018223226070404053,-0.5388936708739284,-0.33114627356589593,0.5721999527271668,-0.5220374353529582,-0.24289570046569084,-1.440765262984685,1.3255819387160617
1780773615614858752,1.2827458381652832,-0.8577290177345276,-0.08818119764328003,-0.5256717801094055,-0.9638809561729431,0.23648640513420105,-0.12250548601150513,0.08128213882446289,0.03371620178222656,-0.00015991181135177612,-0.5415741428180957,-0.3303925714506938,0.5740975568004851,-0.5176389906633645,-0.2387480895756459,-1.4443780357711078,1.3150614829793736
1780773615624894976,1.2927818298339844,-0.7944325804710388,-0.013022525236010551,-0.46687430143356323,-0.9651251435279846,0.23263901472091675,-0.12005174160003662,0.11385267972946167,0.08687996864318848,0.012980841100215912,-0.5440751045700186,-0.32973904538119725,0.575540000785979,-0.5138171383643964,-0.23479027646013784,-1.4470421706963237,1.3060041415863852
1780773615634929664,1.30281662940979,-0.5378119945526123,0.06185358017683029,-0.40645384788513184,-0.9661028385162354,0.22922302782535553,-0.1187533289194107,0.10634630918502808,0.03974369168281555,0.08796106278896332,-0.5463961889674678,-0.32907597082723233,0.5764827329916797,-0.5107132564996155,-0.23127938940327075,-1.4484898898347522,1.2985224296447122
1780773615644964608,1.3128516674041748,-0.34520286321640015,0.08120837062597275,-0.4145849943161011,-0.9669212102890015,0.22584755718708038,-0.11855997890233994,0.10202240943908691,-0.03746248781681061,0.13008038699626923,-0.5483863337648978,-0.32882359580850223,0.5767105443535954,-0.5084806311592466,-0.22781297868352932,-1.4487893712495887,1.2935407423846055
1780773615654999808,1.3228867053985596,-0.10382406413555145,0.08537022769451141,-0.4716978073120117,-0.967828094959259,0.22178243100643158,-0.11883329600095749,0.10076266527175903,-0.01996968686580658,0.15293669700622559,-0.5501255449866546,-0.32929164167574115,0.5763248786093284,-0.5067332140632815,-0.22364204314748182,-1.4486243481725298,1.2906857853067155
1780773615665034752,1.3329217433929443,-0.20434027910232544,0.03123987838625908,-0.4162324368953705,-0.9687495231628418,0.21754808723926544,-0.11915133148431778,0.06605488061904907,-0.048404425382614136,0.1299239993095398,-0.5516342017785015,-0.3301176573660534,0.5757140483496839,-0.5052477597556035,-0.21930168443550724,-1.4484159861830943,1.2889224834027604
1780773615675069696,1.342956781387329,-0.7223357558250427,0.05852462723851204,-0.30566197633743286,-0.9694830775260925,0.21459375321865082,-0.118541419506073,0.03303593397140503,-0.06289087235927582,0.091746985912323,-0.553377492737777,-0.32983348341440333,0.5761416188213032,-0.5030348273241242,-0.2162758680995925,-1.449127463045742,1.283956259075678
1780773615685104896,1.3529918193817139,-1.3591630458831787,0.11606542021036148,-0.20975860953330994,-0.9699462056159973,0.21324469149112701,-0.11718010157346725,-0.03249526023864746,-0.16304327547550201,0.04021477699279785,-0.5560058750582709,-0.3274956613799609,0.5780627473255664,-0.4994472613959927,-0.2148948402898661,-1.4505680565766257,1.2730720866894478
1780773615695140864,1.363027811050415,-1.9823880195617676,-0.01084272749722004,-0.11722414940595627,-0.9702078104019165,0.21365047991275787,-0.11423808336257935,-0.048179030418395996,-0.22265318036079407,0.061534225940704346,-0.5593418925610921,-0.3230859707763373,0.581804445881687,-0.4942223512812617,-0.21531020987020139,-1.4535899980123703,1.2557354154396838
1780773615705175808,1.3730628490447998,-2.621730089187622,-0.207174152135849,-0.10707404464483261,-0.9705681204795837,0.2151869833469391,-0.10812917351722717,0.002535402774810791,-0.18389123678207397,0.12471546977758408,-0.5629642160655484,-0.31719321702484676,0.587642644516647,-0.486965882192933,-0.21688328727280395,-1.4598457260534015,1.2320658106182922
1780773615715210752,1.3830976486206055,-3.050795316696167,-0.24663355946540833,-0.1576213836669922,-0.9711059331893921,0.2168649435043335,-0.09961187094449997,-0.003610074520111084,-0.09390968084335327,0.14451850950717926,-0.5670458385195942,-0.31010365754348435,0.5950040218760428,-0.47777065200363195,-0.21860183228547045,-1.4685781348468494,1.2028475940345735
1780773615725245696,1.3931326866149902,-3.495009660720825,-0.18506711721420288,-0.14457668364048004,-0.9716506004333496,0.21847811341285706,-0.09034556150436401,-0.06619113683700562,-0.042284876108169556,0.1309797167778015,-0.5717839066706796,-0.30173131209098897,0.6031462781263214,-0.46715725790046747,-0.22025462718102573,-1.4780813703765645,1.169200435564476
1780773615735280640,1.403167724609375,-3.913386821746826,-0.17507322132587433,-0.1176593080163002,-0.972082793712616,0.2204049527645111,-0.08047766983509064,-0.08487820625305176,-0.028540953993797302,0.15314000844955444,-0.5770603534010639,-0.29185285084588763,0.6120319245649263,-0.455236357253454,-0.22222960965141073,-1.488195787715825,1.131137828368373
1780773615745315840,1.4132027626037598,-4.383423328399658,-0.1971050202846527,-0.13156208395957947,-0.9725080132484436,0.22228261828422546,-0.06941649317741394,-0.043635785579681396,-0.03134937584400177,0.14401668310165405,-0.5827209289426836,-0.28060008451478685,0.6217357524937749,-0.44175173822393704,-0.2241550342395353,-1.49953834231795,1.088468991522531
1780773615755351808,1.423238754272461,-4.782154560089111,-0.2217871993780136,-0.15310679376125336,-0.9729644656181335,0.22380872070789337,-0.05700506642460823,-0.008877456188201904,-0.023964405059814453,0.14665043354034424,-0.5887058109768261,-0.2679657402005708,0.6322118541134235,-0.4265300415633396,-0.22572057870704862,-1.5122741743282664,1.0410062233774366
1780773615765386752,1.4332737922668457,-4.9190263748168945,-0.25333020091056824,-0.17396093904972076,-0.9734585881233215,0.22464841604232788,-0.04372060298919678,0.029778778553009033,-0.02835935354232788,0.04816091060638428,-0.5946373334019895,-0.2546003080282853,0.6428984231366408,-0.4102033062356222,-0.22658222003511297,-1.5259138421631142,0.9910325084643725
1780773615775421952,1.4433088302612305,-4.908573627471924,-0.2199297547340393,-0.19836615025997162,-0.9739622473716736,0.2246723175048828,-0.03033204935491085,0.053109586238861084,0.032957062125205994,-0.03848510980606079,-0.6003419100371756,-0.24095799675539128,0.6532788222003187,-0.3933899835709679,-0.22660674830149113,-1.5396634482141391,0.9404353181290952
1780773615785456640,1.4533436298370361,-4.808978080749512,-0.20517905056476593,-0.2131783813238144,-0.9744841456413269,0.22378948330879211,-0.017285829409956932,0.05051875114440918,0.08578081429004669,-0.028948305174708366,-0.6057998460533693,-0.2272601974471688,0.6631062417451511,-0.37636342736112266,-0.22570084867493267,-1.5530597462933613,0.8900552062622732
1780773615795491584,1.463378667831421,-4.439645290374756,-0.22705066204071045,-0.2009747177362442,-0.974984347820282,0.22222265601158142,-0.0047559286467731,0.06961935758590698,0.07164634764194489,-0.021641790866851807,-0.6105712489577416,-0.21426641646266245,0.6720951855173877,-0.3599731798443037,-0.22409353634078052,-1.5659184113847966,0.8424148258055463
1780773615805526784,1.4734137058258057,-4.035686492919922,-0.15002112090587616,-0.18007874488830566,-0.9754050970077515,0.22032169997692108,0.0065681510604918,0.06880420446395874,0.06616203486919403,0.004051923286169767,-0.6146636861528599,-0.20224894506919064,0.6799848819874886,-0.34482520888095197,-0.22214425599393478,-1.5775299923973027,0.798862973749639
1780773615815561728,1.4834487438201904,-3.8948957920074463,-0.08012206852436066,-0.16344091296195984,-0.9757748246192932,0.21816405653953552,0.0163692869246006,0.08057218790054321,0.10053098201751709,-0.0025143641978502274,-0.6184854485238807,-0.1907749428614632,0.6868693940935454,-0.33059204357460853,-0.2199328193043188,-1.587570434208723,0.7581368662665285
1780773615825597696,1.4934847354888916,-3.8293888568878174,-0.12075310945510864,-0.1447005271911621,-0.9760880470275879,0.2158374935388565,0.025814099237322807,0.09719705581665039,0.0728130042552948,-0.022304534912109375,-0.6219259275516887,-0.17952995510946138,0.6933080445142261,-0.3167034961031067,-0.2175494609726899,-1.59723665010678,0.7186778135935299
1780773615835632896,1.5035197734832764,-3.898733139038086,-0.044554486870765686,-0.05602337792515755,-0.976283848285675,0.21366384625434875,0.034897200763225555,0.08004355430603027,0.013737887144088745,0.015487313270568848,-0.6252011986412257,-0.1678733406331211,0.6994763337866213,-0.30277870431558007,-0.2153238884954463,-1.606526047647192,0.6789073040842619
1780773615845667840,1.5135548114776611,-3.950448513031006,-0.022163160145282745,0.023236555978655815,-0.9763129949569702,0.2119186967611313,0.04362902417778969,0.06521070003509521,-0.007206767797470093,0.008266091346740723,-0.6282959523390645,-0.15564315681107468,0.7054003971563858,-0.28884207136158047,-0.2135378276129047,-1.6154541540520049,0.638605824251999
1780773615855702784,1.523589849472046,-3.8793790340423584,-0.02429501712322235,0.10670695453882217,-0.9761594533920288,0.2107018381357193,0.05213039740920067,0.07759982347488403,0.0263434499502182,-0.03606295585632324,-0.6310767745741517,-0.1430227932676616,0.7110623592847054,-0.2750944160442556,-0.21229286509322753,-1.6241492137430686,0.5983167725113493
1780773615865737728,1.5336246490478516,-3.4338314533233643,0.023743346333503723,0.197792649269104,-0.9758440256118774,0.21010981500148773,0.05985553562641144,0.04051065444946289,-0.00674062967300415,-0.021464340388774872,-0.6333989876763495,-0.1308558608720776,0.7161037015676286,-0.26244645200586153,-0.2116872774861996,-1.6320567727399182,0.5606645975980329
1780773615875772672,1.5436596870422363,-2.800812244415283,0.11096066981554031,0.28335443139076233,-0.9753854274749756,0.21047453582286835,0.06575669348239899,-0.008379340171813965,-0.02318812906742096,-0.060217730700969696,-0.6353129115614838,-0.11995876915329544,0.7200612744226941,-0.25199053339367655,-0.21206034742675087,-1.6381105817153683,0.5284972948708053
1780773615885807872,1.553694725036621,-2.1097798347473145,0.19731047749519348,0.34596773982048035,-0.974824845790863,0.21187342703342438,0.06947214156389236,-0.016142070293426514,0.045710235834121704,-0.125471830368042,-0.6369082291851832,-0.11075967177234415,0.7228197328527526,-0.2441555605088388,-0.21349150408304296,-1.641942323490814,0.5030185182651611
1780773615895843840,1.5637307167053223,-1.5975428819656372,0.24054037034511566,0.3879713714122772,-0.9741961359977722,0.21416141092777252,0.07125017791986465,0.016142666339874268,0.08130975067615509,-0.17949604988098145,-0.6382489317714187,-0.1032836149201672,0.7245395669017105,-0.2387742081711876,-0.21583323898833354,-1.6438037436989341,0.48392338132665347
1780773615905878784,1.573765754699707,-1.176966667175293,0.23536477982997894,0.4354725778102875,-0.9734900593757629,0.2171681523323059,0.07179699093103409,0.035166263580322266,0.03444923460483551,-0.17694534361362457,-0.6393568242554345,-0.09709910480689142,0.725582702216649,-0.23521102159604237,-0.21891243949420047,-1.6444151922185561,0.4695365503845385
1780773615915913728,1.5838007926940918,-0.8403880596160889,0.20809027552604675,0.47620803117752075,-0.9726460576057434,0.22088761627674103,0.07189179211854935,0.04111224412918091,-0.018510296940803528,-0.16678619384765625,-0.640105065785213,-0.091906587021668,0.7262913145681806,-0.23306581547683758,-0.2227244679068971,-1.644575780969721,0.45873353233348274
1780773615925948928,1.5938358306884766,-0.35847899317741394,0.2021341174840927,0.5043459534645081,-0.9716935157775879,0.22524887323379517,0.07123839855194092,0.00424039363861084,-0.030455127358436584,-0.10122191160917282,-0.6405554785316248,-0.08792587271599536,0.7265591792574356,-0.2325286612605916,-0.22719846052995124,-1.6439790510899128,0.4521374634790032
1780773615935983616,1.6038706302642822,0.3140037953853607,0.2863069474697113,0.5379012227058411,-0.9706692695617676,0.23032312095165253,0.06893736869096756,-0.028766095638275146,0.00971287488937378,-0.07232476025819778,-0.6408481738541831,-0.085621245094231,0.7260424831518641,-0.23418984796011458,-0.23240971754851905,-1.6416977330007338,0.45139102331401787
1780773615946018816,1.613905668258667,1.070827603340149,0.3096950948238373,0.5317584276199341,-0.9696239829063416,0.2359921932220459,0.0643184632062912,-0.036693036556243896,0.03849814832210541,-0.11757171899080276,-0.6410532029916778,-0.0854891059900488,0.7244659021985503,-0.23851938849530885,-0.23823947847375396,-1.63703269657416,0.45800998418261957
1780773615956054784,1.6239416599273682,2.1502082347869873,0.30888479948043823,0.5010929107666016,-0.9685707688331604,0.2419806718826294,0.05758494883775711,-0.0233878493309021,0.0985039472579956,-0.17571842670440674,-0.6408224169012768,-0.08836534459978666,0.7217922422832069,-0.24607750027612635,-0.24440667356340834,-1.630179954899048,0.4740730305912835
1780773615966089728,1.633976697921753,3.3629202842712402,0.3918595612049103,0.45970308780670166,-0.9675746560096741,0.24809817969799042,0.0473996177315712,-0.0596470832824707,0.10517330467700958,-0.2487393617630005,-0.6402157238417113,-0.09504021974792279,0.7174030701185332,-0.2577286636801186,-0.2507165635501273,-1.6197452686242197,0.5022738810244485
1780773615976124672,1.6440117359161377,4.600701332092285,0.475145548582077,0.39617231488227844,-0.9666708707809448,0.25386202335357666,0.033189646899700165,-0.06691372394561768,0.09799039363861084,-0.27598750591278076,-0.639181715296091,-0.1057169912806867,0.7109280848703299,-0.27359078795323866,-0.2566709928724875,-1.6051168151813118,0.5433418943312316
1780773615986159872,1.6540467739105225,5.568142890930176,0.6029916405677795,0.2526335120201111,-0.9659484028816223,0.25831007957458496,0.014822516590356827,-0.039285361766815186,0.12424302101135254,-0.27634286880493164,-0.6377088119854191,-0.12018865962952088,0.7021153355776528,-0.2931148142451583,-0.2612725030766956,-1.5861401619867312,0.5964132889635868
1780773615996194816,1.6640818119049072,6.085361957550049,0.6703071594238281,0.09892759472131729,-0.9655336737632751,0.2601947784423828,-0.006579641718417406,-0.021954059600830078,0.1844463050365448,-0.22323298454284668,-0.635897683835117,-0.13732054552037423,0.6912693012590654,-0.31452170643861016,-0.2632239120582917,-1.5639819192576612,0.6571968221977291
1780773616006229760,1.674116849899292,6.062319278717041,0.7689839601516724,-0.028159257024526596,-0.9653221964836121,0.2593943178653717,-0.029455430805683136,-0.024622201919555664,0.20013931393623352,-0.10198378562927246,-0.6338350947237686,-0.15547713273323616,0.6790428160790931,-0.3361261216287056,-0.26239501418872907,-1.5402922173890177,0.7205970760982578
1780773616016265984,1.6841528415679932,5.296341419219971,0.8312085866928101,-0.15926535427570343,-0.9652177095413208,0.2561972141265869,-0.052132200449705124,-0.0397871732711792,0.16859221458435059,0.04949241876602173,-0.6319713285478792,-0.1726304421203572,0.6664327649072295,-0.3559190149526962,-0.2590860440022443,-1.5168379341642257,0.7802143002424752
1780773616026300672,1.6941876411437988,4.039220809936523,0.8234992623329163,-0.17773863673210144,-0.9651413559913635,0.2515682280063629,-0.07221917062997818,-0.0452650785446167,0.1412082314491272,0.20906001329421997,-0.6308881035476456,-0.18647242601864716,0.6550713317249869,-0.37160434241251855,-0.2543002582097862,-1.4961079594831832,0.8284516718922352
1780773616036335616,1.7042226791381836,2.7752647399902344,0.6331822276115417,-0.17979645729064941,-0.9650037288665771,0.2471151351928711,-0.08775987476110458,-0.009971797466278076,0.0652017593383789,0.31626027822494507,-0.6303151779627951,-0.19646069252244358,0.6461603957825689,-0.3828611700063417,-0.24970192277525885,-1.480103278945661,0.8634833664973108
1780773616046370816,1.7142577171325684,1.6296826601028442,0.5222445130348206,-0.16123874485492706,-0.9648874998092651,0.2433748096227646,-0.09879714250564575,-0.023454785346984863,0.014040976762771606,0.37577468156814575,-0.6303384808819193,-0.2028245204420941,0.6398934619000985,-0.389964137369568,-0.24584376220155216,-1.468759533608859,0.8858890434879477
1780773616056405760,1.7242927551269531,0.8148517608642578,0.36493754386901855,-0.11885719746351242,-0.9647720456123352,0.24079115688800812,-0.10599379241466522,-0.046351611614227295,-0.00432567298412323,0.3530641198158264,-0.630809364204459,-0.20617794487331081,0.6359982377576345,-0.3937975599136143,-0.24318090413160456,-1.4613710953773373,0.898015024495393
1780773616066440704,1.734327793121338,0.444549024105072,0.25114706158638,-0.09529967606067657,-0.9646990299224854,0.23911748826503754,-0.11035700887441635,-0.05236029624938965,-0.03565679490566254,0.23450255393981934,-0.6313402421255215,-0.20784175552865505,0.6337375629456472,-0.3957120831457753,-0.2414568772706636,-1.4568961729664525,0.9041346393849531
1780773616076476928,1.744363784790039,0.31842756271362305,0.20746257901191711,-0.08091194927692413,-0.9646605253219604,0.23782961070537567,-0.11343372613191605,-0.06402593851089478,-0.05434267222881317,0.04884326457977295,-0.6318546754591338,-0.2088454416313515,0.6321919953540506,-0.39683320798836746,-0.2401307405699024,-1.4537445873593728,0.9078093328203903
1780773616086511872,1.7543988227844238,0.39260485768318176,0.1606293022632599,-0.0844038873910904,-0.964637041091919,0.23667271435260773,-0.11602302640676498,-0.050148725509643555,-0.031716689467430115,-0.1205797791481018,-0.6322381736031866,-0.20980701501567292,0.6308482418379021,-0.39785220556534123,-0.23893984149053488,-1.4510949813565357,0.9111982830237649
1780773616096546816,1.7644338607788086,0.5108748078346252,0.17696219682693481,-0.1563664972782135,-0.9647228121757507,0.2350144237279892,-0.11865206062793732,-0.02589315176010132,0.018968135118484497,-0.2336733490228653,-0.6325036074287,-0.2112851934881311,0.6293111615949877,-0.39908057483378573,-0.2372334098401737,-1.4484200778416836,0.9156813024028093
1780773616106582528,1.7744696140289307,0.6566269397735596,0.1381029486656189,-0.11970541626214981,-0.9648751020431519,0.2329212874174118,-0.12150540202856064,-0.02885347604751587,0.048878014087677,-0.23254424333572388,-0.6326450051767469,-0.2132952051399783,0.6274969748780836,-0.40064063743317685,-0.2350805118486998,-1.4455270900101402,0.9215151046977093
1780773616116617728,1.7845046520233154,0.7328932285308838,0.14052988588809967,-0.10253095626831055,-0.9649611115455627,0.2310013473033905,-0.12445192784070969,-0.022450268268585205,0.02406454086303711,-0.19842402637004852,-0.6325409149619675,-0.21558312706565533,0.6255381298068254,-0.4026386424609194,-0.23310674317738297,-1.442533429136982,0.928527955090641
1780773616126652672,1.7945396900177002,0.5921480655670166,0.12035191059112549,-0.07678963989019394,-0.9650110602378845,0.2292509227991104,-0.12727044522762299,-0.01629692316055298,-0.018176093697547913,-0.16414189338684082,-0.6323884345135812,-0.21777425941786868,0.6236498595586804,-0.40462349079840804,-0.23130803764501784,-1.4396681361297963,0.9353767339216037
1780773616136688640,1.8045756816864014,0.39431434869766235,0.11005532741546631,0.007848811335861683,-0.9649443626403809,0.22825893759727478,-0.12953852117061615,-0.02562570571899414,-0.03659331798553467,-0.08469484746456146,-0.6322930369355801,-0.2192096319521803,0.6222361894596911,-0.4061708376895943,-0.23028903821190172,-1.4373495963553917,0.9403473180729514
1780773616146723584,1.814610481262207,0.05143342912197113,0.08482427895069122,0.07463236898183823,-0.9647066593170166,0.22840693593025208,-0.13103891909122467,-0.04818695783615112,-0.07400324940681458,0.01676584780216217,-0.6322561055232238,-0.21959388399867855,0.6214974375936866,-0.4071505747430227,-0.23044104295026246,-1.4357896766125178,0.9427744734824732
1780773616156758528,1.8246455192565918,-0.14776435494422913,0.0308273546397686,0.15873418748378754,-0.9643750786781311,0.22958029806613922,-0.1314297318458557,-0.05041074752807617,-0.10906636714935303,0.1636562943458557,-0.6322808458490937,-0.21890984317983264,0.6215815446163397,-0.40735226591806817,-0.23164644264061632,-1.4353459426116892,0.9422239531036504
1780773616166793472,1.8346805572509766,-0.10120750963687897,-0.022174078971147537,0.17249847948551178,-0.9639699459075928,0.23142948746681213,-0.13115856051445007,-0.010929465293884277,-0.14318786561489105,0.1847473829984665,-0.6320886577662311,-0.21793447875545985,0.6220331839782332,-0.40748413287785434,-0.23354679852281496,-1.4355658891298002,0.941086349172563
1780773616176828672,1.8447155952453613,-0.07424726337194443,-0.010172543115913868,0.1739855855703354,-0.9635974764823914,0.23320694267749786,-0.13074645400047302,0.010914921760559082,-0.10755077004432678,0.11693720519542694,-0.6317609312460986,-0.2171712968917366,0.6224655799234219,-0.407739509209473,-0.23537425606443957,-1.4359341750127854,0.9404528463426244
1780773616186863616,1.854750633239746,-0.060449160635471344,0.024197949096560478,0.22367510199546814,-0.9631152153015137,0.23522579669952393,-0.13068263232707977,0.03470945358276367,-0.031536221504211426,0.04755276441574097,-0.6314529203068904,-0.21631849443249374,0.622788082896531,-0.40817711279180535,-0.23745087311769003,-1.4359325387688517,0.9400554433823394
1780773616196899584,1.8647866249084473,-0.1088491827249527,-0.00773455249145627,0.1900569647550583,-0.9625968337059021,0.23733188211917877,-0.13069435954093933,0.0674094557762146,0.007785320281982422,-0.03120136260986328,-0.6311583136856072,-0.21540861627161734,0.6230986678941492,-0.4086397422439918,-0.23961833156987844,-1.4358488248476418,0.9396323384734021
1780773616206934784,1.874821662902832,-0.18382862210273743,-0.002063083928078413,0.2787330448627472,-0.9620503187179565,0.23975375294685364,-0.13029751181602478,0.09937942028045654,0.013374313712120056,-0.04633820056915283,-0.63086102958147,-0.21418136927035936,0.6236806747323126,-0.4088559524273761,-0.24211219954263097,-1.4361781344207458,0.9382895355298316
1780773616216969472,1.8848564624786377,-0.3241308927536011,-0.09674938023090363,0.20480580627918243,-0.9615253806114197,0.24245880544185638,-0.12916231155395508,0.12664061784744263,-0.015835240483283997,-0.053775325417518616,-0.6304095328857416,-0.21279420973824026,0.6246098539531436,-0.4088582657748402,-0.24489948130201505,-1.4372650436173655,0.9362713075999234
1780773616227004416,1.8948915004730225,-0.6099727153778076,-0.1979239284992218,0.2333836555480957,-0.9612002968788147,0.2450709193944931,-0.12662772834300995,0.07440507411956787,-0.06819100677967072,-0.04637642204761505,-0.6300281923326747,-0.2109546311989565,0.6262461805220493,-0.40789522484129603,-0.24759284598451275,-1.4398114340631805,0.9317538175575868
1780773616237039616,1.9049265384674072,-0.6181462407112122,-0.19330547749996185,0.2626619338989258,-0.9608408808708191,0.2483147531747818,-0.12298295646905899,0.02805572748184204,-0.08504568040370941,-0.0022001415491104126,-0.6295322025441735,-0.20854015331918593,0.6285057887070506,-0.4064244477098139,-0.2509401285727452,-1.4434933763242657,0.9254193529568037
1780773616247074560,1.914961576461792,-0.4935385584831238,-0.07939010113477707,0.26482200622558594,-0.9603376984596252,0.2515081465244293,-0.12039653956890106,-0.04439258575439453,-0.09962216019630432,0.09015363454818726,-0.6291414297592477,-0.20628633026324109,0.6302758773844165,-0.40543730442892484,-0.25423818182615116,-1.4460780646616642,0.9202767308866808
1780773616257110528,1.9249975681304932,-0.5220080018043518,-0.029596175998449326,0.26350507140159607,-0.9597387909889221,0.25466495752334595,-0.11852210015058517,-0.08014780282974243,-0.04706910252571106,0.13011877238750458,-0.6289481443940774,-0.2039481829228374,0.631778512645561,-0.40458057173344075,-0.25750122562880146,-1.4479243167611,0.9153209589076343
1780773616267145728,1.935032606124878,-0.42870789766311646,0.05406303331255913,0.24832399189472198,-0.9590612053871155,0.257699579000473,-0.11744165420532227,-0.09797614812850952,-0.01627504825592041,0.07160425186157227,-0.6289762589936126,-0.20157436866569295,0.6329667824916294,-0.40386841139610574,-0.2606406255397604,-1.4489481500743435,0.9106557787582484
1780773616277180672,1.9450676441192627,-0.2423020452260971,0.09625695645809174,0.23019824922084808,-0.9583461880683899,0.2603866457939148,-0.11735161393880844,-0.08115881681442261,-0.026271045207977295,0.017925381660461426,-0.6290793300204321,-0.1996100185798222,0.6336245209110397,-0.40365208629320753,-0.26342264147834665,-1.4489507005179656,0.9075478311501378
1780773616287215616,1.9551026821136475,-0.26123979687690735,0.05470499023795128,0.20033515989780426,-0.9576930403709412,0.2627280056476593,-0.11746442317962646,-0.026239335536956787,-0.03090125322341919,-0.0035835355520248413,-0.6291441278161931,-0.19799389205176807,0.6340869084900947,-0.4036208476368873,-0.2658484452232691,-1.4487523752988645,0.9052753584010791
1780773616297250560,1.9651374816894531,-0.2846178114414215,-0.06854210793972015,0.17231738567352295,-0.9572083950042725,0.2648282051086426,-0.11669683456420898,0.03670668601989746,-0.01427885890007019,-0.02192932367324829,-0.6290181310103459,-0.1965622261877904,0.6348345257228868,-0.4033418030213098,-0.2680257528461145,-1.4494812783839721,0.9027221301092705
1780773616307285504,1.975172519683838,-0.36875322461128235,-0.16138602793216705,0.12145287543535233,-0.9569490551948547,0.2666377127170563,-0.11468548327684402,0.07004725933074951,0.020273268222808838,-0.009994082152843475,-0.628658036177544,-0.19529926206135007,0.6360152958898765,-0.4026558887064457,-0.26990274852463314,-1.4515202811336272,0.8995400792803844
1780773616317321472,1.985208511352539,-0.3809371590614319,-0.19915126264095306,0.07726730406284332,-0.9569064974784851,0.26797664165496826,-0.11188483238220215,0.04078418016433716,0.04884156584739685,-0.018272623419761658,-0.6282443212982707,-0.19417635796930302,0.6374583334003084,-0.40156116974284545,-0.27129224275668523,-1.4544013537808438,0.8957346170717503
1780773616327356672,1.9952435493469238,-0.34626707434654236,-0.21184921264648438,0.08217044919729233,-0.9569200277328491,0.26915431022644043,-0.10890381783246994,-0.005985856056213379,0.03400731086730957,-0.020628035068511963,-0.627771974639733,-0.1931853660800595,0.6389268390729463,-0.4004425821229567,-0.27251482827349305,-1.4574772789353792,0.8920487837026655
1780773616337391616,2.0052785873413086,-0.36073043942451477,-0.2191045880317688,0.034659117460250854,-0.9569950699806213,0.27009186148643494,-0.1058812364935875,-0.03131669759750366,0.022785335779190063,-0.0044702887535095215,-0.6273021745205557,-0.19232576309030724,0.6403672239082894,-0.39929010981693225,-0.2734884354799188,-1.4606052119306676,0.8884797068368697
1780773616347426560,2.0153136253356934,-0.360453724861145,-0.23201292753219604,-0.003202775027602911,-0.9571988582611084,0.2705892324447632,-0.10272041708230972,-0.049362242221832275,0.0023904740810394287,0.009931698441505432,-0.6268940383286187,-0.19160453952608328,0.6418157763713643,-0.39794964692712437,-0.2740050482851999,-1.4638918924929298,0.8847543179642176
1780773616357461760,2.025348663330078,-0.3572150766849518,-0.23503495752811432,-0.02969377115368843,-0.9574674367904663,0.2708324193954468,-0.09952789545059204,-0.058203279972076416,-0.028812795877456665,0.005686350166797638,-0.626528840239302,-0.19096150935206177,0.6432493710316328,-0.3965166709918608,-0.2742576568718223,-1.4672191998888602,0.8809728739919869
1780773616367496448,2.035383462905884,-0.3023954927921295,-0.24154159426689148,-0.056627918034791946,-0.9578434824943542,0.2706625759601593,-0.09632091224193573,-0.05559951066970825,-0.025987893342971802,-0.0017625689506530762,-0.626156818272511,-0.19058969081175375,0.644604618838924,-0.39507989623956064,-0.2740812383042362,-1.4705730724762465,0.877563667006381
1780773616377532672,2.045419692993164,-0.2843256890773773,-0.24060747027397156,-0.037608951330184937,-0.9581863284111023,0.2705197036266327,-0.09326301515102386,-0.03194117546081543,0.01782563328742981,-0.01963675022125244,-0.6257551787403586,-0.1902878093236301,0.6458785028411732,-0.39377906367341137,-0.27393281825535803,-1.4737690974975053,0.8745123412488386
1780773616387567616,2.0554544925689697,-0.3720981478691101,-0.25261861085891724,-0.05358445644378662,-0.9585469365119934,0.2703508734703064,-0.08998876810073853,0.02115386724472046,0.059696704149246216,-0.05039208382368088,-0.6253536728015642,-0.18991668543706106,0.6472536358598497,-0.3923354313973511,-0.2737574595129202,-1.477190289199838,0.8710938030450553
1780773616397602560,2.0654895305633545,-0.4526616930961609,-0.29958173632621765,-0.08777784556150436,-0.9589750170707703,0.27005425095558167,-0.0862409695982933,0.06044602394104004,0.054530709981918335,-0.06721662729978561,-0.6249978023936984,-0.18937433169914392,0.6488581332846938,-0.39051010893211435,-0.2734493623439935,-1.4811072292850944,0.8667201900595658
1780773616407637504,2.0755245685577393,-0.4396236538887024,-0.3600277602672577,-0.11436071991920471,-0.959531843662262,0.2694452404975891,-0.08183962851762772,0.056104838848114014,0.0159551203250885,-0.052056245505809784,-0.6245429820576367,-0.1889521732847912,0.6506744673872691,-0.38841445202664604,-0.2728169049497648,-1.485711043942566,0.8619781816665483
1780773616417672704,2.085559606552124,-0.39064866304397583,-0.34677889943122864,-0.09982918202877045,-0.9601152539253235,0.26871761679649353,-0.07726117968559265,0.010484635829925537,0.009282231330871582,-0.053079359233379364,-0.6239844231310171,-0.18869555130233928,0.6525054780663007,-0.38635981361799693,-0.2720614357549039,-1.4904986182104398,0.8575314693347562
1780773616427707648,2.095594644546509,-0.25699445605278015,-0.2832968831062317,-0.07694197446107864,-0.9605852961540222,0.26814061403274536,-0.07332471013069153,-0.04277163743972778,0.02299708127975464,-0.010049283504486084,-0.6234115873803947,-0.18858037944021397,0.6540451717271692,-0.38473412153929754,-0.27146243349053106,-1.4946107048709631,0.8541102492887789
1780773616437743616,2.10563063621521,-0.016459066420793533,-0.1478015035390854,-0.08070315420627594,-0.960974395275116,0.26742327213287354,-0.07080211490392685,-0.09444546699523926,0.011049598455429077,0.050584204494953156,-0.6229942308269436,-0.18882087025004518,0.6549394018689035,-0.3837697774805708,-0.2707179128314804,-1.4972517887283943,0.8524991017339323
1780773616447778816,2.1156656742095947,0.15915456414222717,-0.045328665524721146,-0.057881467044353485,-0.9612213373184204,0.26670917868614197,-0.0701405331492424,-0.10831290483474731,-0.007950633764266968,0.0934101939201355,-0.6227344192864862,-0.1894982606973277,0.6549962918474446,-0.38376046076353515,-0.2699769055441283,-1.4979552079839593,0.853364850484063
1780773616457813504,2.1257004737854004,0.2092140167951584,-0.00559723237529397,-0.07694490253925323,-0.9614140391349792,0.26594653725624084,-0.07039547711610794,-0.06745558977127075,0.035506099462509155,0.09950923919677734,-0.6226115267553723,-0.19032457547372666,0.6546593130823567,-0.38412581005008484,-0.26918567837912155,-1.4977059859283002,0.8551907912208919
1780773616467848448,2.135735511779785,0.22837066650390625,-0.010986404493451118,-0.09476597607135773,-0.9616502523422241,0.26495277881622314,-0.07091420143842697,-0.02393019199371338,0.052857279777526855,0.08302962779998779,-0.6225328619240339,-0.19133170230408275,0.6541674705058407,-0.384590602165883,-0.26815495017978547,-1.4971873645683746,0.8574735163512153
1780773616477883648,2.14577054977417,0.17472074925899506,-0.012491090223193169,-0.10240871459245682,-0.9619311094284058,0.263812780380249,-0.07135216891765594,0.0004138946533203125,0.03756353259086609,0.035829730331897736,-0.6224972527628619,-0.19233263931708816,0.6537064096646662,-0.3849326384540869,-0.2669728986728211,-1.4967559515111213,0.8595266929620002
1780773616487919616,2.155806541442871,0.042258840054273605,-0.03625714033842087,-0.10831481218338013,-0.9622210264205933,0.26273298263549805,-0.07143012434244156,0.016664326190948486,0.02713826298713684,-0.0027123168110847473,-0.6225230659319556,-0.1930520287757547,0.6534644988276949,-0.38494184095617984,-0.2658535969844271,-1.4966976091446118,0.86056749096435
1780773616497954560,2.165841579437256,-0.130011186003685,-0.06928539276123047,-0.09988084435462952,-0.9625287055969238,0.2617802321910858,-0.07077881693840027,0.032002031803131104,0.014159709215164185,-0.02446657419204712,-0.6225825553398328,-0.1933523196123727,0.6536248717800824,-0.38442217684400604,-0.264866296587208,-1.4973942020237432,0.8600224475918089
1780773616507989760,2.1758766174316406,-0.2577603757381439,-0.11832325160503387,-0.10347424447536469,-0.9628586173057556,0.2609495520591736,-0.06934533268213272,0.034132421016693115,-0.005914151668548584,0.0023134946823120117,-0.6226599386601308,-0.19324130882695234,0.6542057242497783,-0.3833632034441274,-0.2640057144508436,-1.4989001948835479,0.8578810426449788
1780773616518024704,2.1859116554260254,-0.19362744688987732,-0.1425686627626419,-0.11475220322608948,-0.9632324576377869,0.26006627082824707,-0.0674448162317276,0.016348302364349365,-0.021846085786819458,0.046662330627441406,-0.6226598624080841,-0.19311472929508958,0.6549689265070056,-0.38212184242726005,-0.263090848658655,-1.500891168472348,0.8553558789229666
1780773616528059648,2.19594669342041,-0.043608397245407104,-0.08655652403831482,-0.1435556262731552,-0.9636419415473938,0.2589196562767029,-0.06599018722772598,-0.012432217597961426,0.0027685165405273438,0.048991866409778595,-0.6226310854779177,-0.19338283426479633,0.6554448756183954,-0.3812158768498731,-0.2619035513364461,-1.5024230827815945,0.8540194231808153
1780773616538094592,2.205981492996216,0.1345810443162918,0.008356399834156036,-0.1477288007736206,-0.9640451073646545,0.25748762488365173,-0.06570524722337723,-0.03326934576034546,0.06282487511634827,0.01969999074935913,-0.6227358236390347,-0.19406623928007277,0.6553515637428619,-0.38085788876402155,-0.2604212565867639,-1.5027457872571637,0.8543425139364653
1780773616548130560,2.216017484664917,0.2933861315250397,0.07221021503210068,-0.16330988705158234,-0.964434802532196,0.25577512383461,-0.06666730344295502,-0.03812861442565918,0.09368163347244263,0.0007492974400520325,-0.6229635963654884,-0.19520958291009005,0.6546446122892163,-0.3811167445497633,-0.2586494080730041,-1.50178034288001,0.8565121010318404
1780773616558165504,2.2260525226593018,0.3213634490966797,0.09743301570415497,-0.1780688613653183,-0.9648064374923706,0.25393083691596985,-0.06832152605056763,-0.020835041999816895,0.07083725929260254,-0.018684089183807373,-0.6232691585775524,-0.19657122922155307,0.6536046108292564,-0.38170202291095345,-0.25674214524514877,-1.5001006248561148,0.8596254708203582
1780773616568200704,2.2360875606536865,0.2633472681045532,0.04759754613041878,-0.18154855072498322,-0.9652206897735596,0.251945436000824,-0.0698029026389122,0.0013840794563293457,0.016349822282791138,-0.03418575972318649,-0.6235725845509542,-0.19795997526583448,0.6526181099261863,-0.38217622909309,-0.25469000914857276,-1.4986039325447087,0.8625666091271009
1780773616578235648,2.2461225986480713,0.1387382447719574,-0.004677110351622105,-0.18292327225208282,-0.9656586647033691,0.2500625550746918,-0.07051102072000504,0.01712667942047119,-0.02340853214263916,-0.023437313735485077,-0.6237807804659311,-0.199144785402959,0.6519860779159052,-0.382299526077187,-0.2527448651647418,-1.4979071133674233,0.8645327292220072
1780773616588270592,2.256157636642456,0.010137922130525112,-0.023288344964385033,-0.1624198704957962,-0.9660983085632324,0.24834251403808594,-0.07056834548711777,0.015323281288146973,-0.030706435441970825,-0.0071904584765434265,-0.6239965347107532,-0.19995928870808022,0.6517147446078803,-0.38198485420634803,-0.25096879130123045,-1.4978811367714038,0.8651518744607494
1780773616598306560,2.2661936283111572,-0.09888602793216705,-0.03995280712842941,-0.15051978826522827,-0.9665156602859497,0.24683734774589539,-0.07013373076915741,0.007378756999969482,-0.030986517667770386,0.0077710747718811035,-0.6242293242321254,-0.20041255306552624,0.6517422373089801,-0.38131956757665797,-0.24941525579766638,-1.4983598188000016,0.8646051136782559
1780773616608341760,2.276228666305542,-0.15468432009220123,-0.037989258766174316,-0.1307293176651001,-0.9668911099433899,0.24555689096450806,-0.06945214420557022,-0.0026218295097351074,-0.04263022541999817,0.04523646831512451,-0.624518934125958,-0.20052137102792145,0.6519701729897999,-0.38039751872590216,-0.24809412632947003,-1.4990891132326405,0.8631041401187735
1780773616618376448,2.2862634658813477,-0.1683969348669052,-0.03788353502750397,-0.12304661422967911,-0.9672225117683411,0.2444627583026886,-0.06869262456893921,0.0013869404792785645,-0.0347917377948761,0.06794494390487671,-0.6247956255798599,-0.20049382609230143,0.6522698173995986,-0.3794427318814554,-0.2469655948032007,-1.4998948779495245,0.8613475114579434
1780773616628411648,2.2962985038757324,-0.09349498897790909,-0.024315258488059044,-0.13452965021133423,-0.9675638675689697,0.24329662322998047,-0.06802172213792801,0.008976280689239502,0.014409065246582031,0.04388231039047241,-0.6250642951986314,-0.2005597744937155,0.6525066404225665,-0.3785571680158888,-0.24576315954430933,-1.500609757048293,0.8598537451151609
1780773616638446592,2.306333541870117,-0.005401355680078268,0.008695820346474648,-0.14375802874565125,-0.9679149389266968,0.2419535368680954,-0.0678175836801529,0.007908225059509277,0.0325215607881546,0.0166243314743042,-0.6253568742260275,-0.2008818120217932,0.6524857895679219,-0.3779386389301015,-0.2443787068630489,-1.5008450014761598,0.8592305404432055
1780773616648481536,2.316368579864502,0.028526782989501953,0.008022572845220566,-0.14120858907699585,-0.9682490229606628,0.24057428538799286,-0.06795600801706314,0.010500490665435791,0.03226816654205322,-0.013403840363025665,-0.6256411918789719,-0.20137387499967968,0.6522810417987717,-0.3775595429231198,-0.2429574659298956,-1.5007267932674102,0.8592944616497058
1780773616658517504,2.326404571533203,0.013057013042271137,-0.011828097514808178,-0.1554410457611084,-0.9686047434806824,0.23912611603736877,-0.0679965391755104,0.022422492504119873,0.01322375237941742,-0.03301668167114258,-0.6258858493607369,-0.20194188836544083,0.6520898745109445,-0.37718056195955024,-0.2414657508022676,-1.5007108054791098,0.859457235827724
1780773616668552704,2.336439609527588,-0.0408211313188076,-0.014333865605294704,-0.15050248801708221,-0.9689883589744568,0.23761674761772156,-0.06782303750514984,0.02005946636199951,-0.015021532773971558,-0.037310004234313965,-0.6261593947007914,-0.20241730376168074,0.6520089852363306,-0.37661117894664803,-0.23991159300471274,-1.5009166382826569,0.8591418255729928
1780773616678587648,2.3464746475219727,-0.03155785799026489,-0.008664528839290142,-0.11376257240772247,-0.9693105816841125,0.23635037243366241,-0.06764290481805801,0.007366001605987549,-0.02432948350906372,-0.02372676134109497,-0.6264138805172027,-0.20275834555807068,0.6519720851745674,-0.3760679806670474,-0.23860807496418168,-1.5011247227660809,0.8586802064303155
1780773616688622592,2.3565096855163574,-0.06957022100687027,-0.0029113013297319412,-0.10238927602767944,-0.9695680141448975,0.23535138368606567,-0.06743674725294113,0.009576559066772461,-0.006103336811065674,-0.02854102849960327,-0.6266352214168572,-0.20296592368645605,0.6519865487311599,-0.3755618720963008,-0.23758009240111613,-1.501354763756715,0.8580902352943064
1780773616698657536,2.366544485092163,-0.06176422908902168,0.006224939599633217,-0.06844888627529144,-0.9697670340538025,0.23456096649169922,-0.06732582300901413,8.64267349243164e-05,-0.029940664768218994,-0.0032155364751815796,-0.6268841896150348,-0.203021351639169,0.6520118251970503,-0.37507196638504714,-0.23676690722606122,-1.50148280686655,0.8573209829729905
1780773616708693504,2.3765804767608643,-0.03960539773106575,-0.036517731845378876,-0.05250880494713783,-0.9699146151542664,0.2340248078107834,-0.06706640869379044,0.005513429641723633,-0.06935195624828339,0.028476960957050323,-0.6270059487249322,-0.2030686162482672,0.6520965674085792,-0.3746954758099953,-0.23621539922862725,-1.5017595030743784,0.8567201120135326
1780773616718728448,2.386615514755249,0.03429971635341644,-0.06841534376144409,-0.06752956658601761,-0.9701025485992432,0.23341549932956696,-0.06647074222564697,0.017725229263305664,-0.042817965149879456,0.020282387733459473,-0.6269329973168184,-0.20337175525134168,0.6522304487593208,-0.3744201382120796,-0.2355887380905804,-1.5023839615130665,0.8566246319138415
1780773616728763648,2.396650552749634,0.12301840633153915,-0.04064815863966942,-0.0554950088262558,-0.970280110836029,0.23277568817138672,-0.06611901521682739,0.0068860650062561035,-0.0064878910779953,-0.0039645954966545105,-0.6267852370681842,-0.20392099204522374,0.6521937763021427,-0.3744324485194944,-0.2349308035915935,-1.5027572606336688,0.8573949059851248
1780773616738798592,2.4066855907440186,0.18279039859771729,-0.028449151664972305,-0.04637394845485687,-0.9704181551933289,0.23218269646167755,-0.06617891788482666,0.004536926746368408,0.01581837236881256,-0.020582549273967743,-0.6266248934929438,-0.204622104850231,0.6519511768943484,-0.3747407178626178,-0.23432110292785568,-1.5027054665297719,0.8589269465889952
1780773616748833536,2.4167206287384033,0.21562397480010986,-0.031394608318805695,-0.05401162803173065,-0.9705556035041809,0.23155997693538666,-0.06634534150362015,0.013341307640075684,0.00041937828063964844,-0.019851557910442352,-0.6264084435881753,-0.20548162887503832,0.6516169342520438,-0.37521342083237885,-0.23368094486576646,-1.5025444007862054,0.8609765297533912
1780773616758869760,2.4267566204071045,0.1641075164079666,-0.03892349451780319,-0.037057410925626755,-0.97068852186203,0.23097389936447144,-0.06644560396671295,0.00817936658859253,-0.038041770458221436,-0.018179655075073242,-0.6261769992290251,-0.206315713401542,0.651314843684902,-0.3756664041706072,-0.2330785323635081,-1.5024509095550906,0.8629505985213181
1780773616768904704,2.4367916584014893,0.07793508470058441,-0.05011463165283203,-0.01657610572874546,-0.9707769155502319,0.23063743114471436,-0.06632010638713837,0.007779598236083984,-0.05931177735328674,-0.015054993331432343,-0.6259669987569053,-0.20685646605200428,0.6511914850310049,-0.37593248671575763,-0.23273271950785823,-1.5025857853938973,0.8641655616136306
1780773616778939648,2.446826696395874,0.030757181346416473,-0.06963839381933212,-0.012200264260172844,-0.9708490967750549,0.230464905500412,-0.06586528569459915,0.01551145315170288,-0.0430716872215271,0.006935827434062958,-0.6257453545074257,-0.20718025674603982,0.6512631566640258,-0.3759993697834535,-0.2325554235846409,-1.5030571577021932,0.86469958574942
1780773616788974592,2.4568614959716797,0.008665194734930992,-0.07119687646627426,0.004481776617467403,-0.9709088802337646,0.23040352761745453,-0.06519387662410736,0.014121770858764648,-0.03136788308620453,0.028145551681518555,-0.6255024925279942,-0.2073818728350624,0.6514566914516564,-0.3759569106861612,-0.23249235330355492,-1.5037497053843933,0.8648518050894847
1780773616799009536,2.4668965339660645,0.010330469347536564,-0.05751169100403786,0.028900299221277237,-0.970912516117096,0.2305605262517929,-0.06458207964897156,-0.004017293453216553,-0.03724692761898041,0.030890703201293945,-0.6252515416741106,-0.20747415443399428,0.6516620550979721,-0.3759675723622511,-0.23265369546199052,-1.5043772771608848,0.8649442862752863
1780773616809044480,2.476931571960449,0.03818660229444504,-0.06723649799823761,0.027148472145199776,-0.9708870053291321,0.23081718385219574,-0.0640454888343811,-0.00529402494430542,-0.030743956565856934,0.0217786505818367,-0.624970451974263,-0.207580713993382,0.6518339535274867,-0.37607798867538705,-0.2329174569695961,-1.5049258059792907,0.8652346455209522
1780773616819080704,2.4869675636291504,0.04384661838412285,-0.05495133250951767,0.02893039397895336,-0.9708679914474487,0.23104523122310638,-0.06350945681333542,-0.0054503679275512695,-0.02582976222038269,0.015429019927978516,-0.6246671913166612,-0.20774511180563449,0.6519871462061485,-0.376225471422704,-0.23315184525500118,-1.5054742593158308,0.865671155413135
1780773616829115648,2.497002601623535,0.058393336832523346,-0.03328678384423256,0.029191384091973305,-0.970828652381897,0.23129941523075104,-0.06318509578704834,-0.0029262304306030273,-0.0031347423791885376,0.00581204891204834,-0.6244120667817683,-0.20789063155184306,0.6520651326604499,-0.3764334512098652,-0.23341310905036383,-1.5058043147805948,0.8662040618127322
1780773616839150592,2.50703763961792,0.08268003910779953,-0.017449364066123962,0.037374213337898254,-0.9707698822021484,0.23157180845737457,-0.06308963149785995,0.0010738968849182129,0.0075639039278030396,0.010675735771656036,-0.6241855958271205,-0.20806275872472585,0.6520468317875205,-0.37674545335229837,-0.23369309631409987,-1.5058983121975253,0.8669744830391098
1780773616849185792,2.5170726776123047,0.029390713199973106,0.013095495291054249,0.05010651797056198,-0.9706709384918213,0.23195812106132507,-0.06319299340248108,0.002607583999633789,-0.006860464811325073,0.014578528702259064,-0.6240324525922353,-0.20810818077326193,0.6519927058228908,-0.37706758938939655,-0.23409022379174624,-1.5057856817883746,0.8675998770611727
1780773616859220480,2.5271074771881104,-0.035128358751535416,0.019122496247291565,0.04708249866962433,-0.9705434441566467,0.23244249820709229,-0.06336908787488937,0.0007560253143310547,-0.02461785078048706,0.01647879183292389,-0.6240015784887811,-0.20790407698980296,0.651990300011305,-0.37723525069333746,-0.23458822029764023,-1.505596497400554,0.8676110803005601
1780773616869256448,2.5371434688568115,-0.03694809600710869,-0.0032437965273857117,0.04761539772152901,-0.9704288244247437,0.23292212188243866,-0.0633644238114357,-0.0006099343299865723,-0.04430827498435974,0.03278578072786331,-0.6239836110460314,-0.207611134094365,0.6520854283917602,-0.3772619309223474,-0.23508137736068024,-1.505593602730665,0.8672371000453475
1780773616879291648,2.5471785068511963,-0.0025131574366241693,-0.01620873063802719,0.037193115800619125,-0.9703338742256165,0.23335912823677063,-0.06321236491203308,0.002056896686553955,-0.025702252984046936,0.02999401092529297,-0.6238883450393091,-0.20742352802592587,0.6522034173251853,-0.3773189151872964,-0.23553076428348318,-1.5057432839819205,0.8670516877646953
1780773616889326592,2.557213544845581,0.030569694936275482,-0.017803963273763657,0.023524442687630653,-0.9702779650688171,0.23362572491168976,-0.06308460235595703,0.007021129131317139,0.0073563456535339355,0.008915901184082031,-0.6237620705652276,-0.20741313111888376,0.6522556943010368,-0.3774429428354247,-0.23580494362946205,-1.5058706657374357,0.867236690440531
1780773616899361536,2.567248582839966,0.03091803565621376,-0.022772889584302902,0.011660060845315456,-0.9702563881874084,0.23375117778778076,-0.06295327842235565,0.009059369564056396,0.01814095675945282,-0.004200644791126251,-0.6236297070763832,-0.20750688214194685,0.6522762104010259,-0.3775747730342714,-0.23593395858098143,-1.506004007964024,0.8675837894716575
1780773616909396736,2.5772836208343506,0.04288628324866295,-0.029936794191598892,0.0065246871672570705,-0.9702473878860474,0.23383277654647827,-0.06278583407402039,0.005815744400024414,0.016731753945350647,-0.002643875777721405,-0.6234922719105198,-0.20762459970041505,0.6523029279844746,-0.3776906605823528,-0.2360178935555718,-1.506175271496396,0.8679344031799135
1780773616919432704,2.5873196125030518,0.07500480860471725,-0.03189688175916672,-0.00823827926069498,-0.9702697992324829,0.23378635942935944,-0.06261410564184189,0.0013672113418579102,0.02166101336479187,-0.009193718433380127,-0.6233284016538645,-0.20787265134737845,0.6522897435954479,-0.3778475902034033,-0.23597014985831477,-1.5063530137964498,0.8685415199958464
1780773616929467648,2.5973546504974365,0.09465627372264862,-0.016994629055261612,-0.018764957785606384,-0.9703223705291748,0.23358100652694702,-0.06256593018770218,-0.01049739122390747,0.023834750056266785,-0.006724238395690918,-0.623183190092996,-0.20824268934032195,0.6521901695042833,-0.3780551458134427,-0.23575895432487248,-1.5064059329756656,0.8694217506832571
1780773616939502592,2.6073896884918213,0.11391784995794296,0.00400119973346591,-0.01266099140048027,-0.9703649878501892,0.2333548665046692,-0.06274623423814774,-0.02437061071395874,0.014417290687561035,0.0010702162981033325,-0.6230820612140799,-0.20863819247029708,0.6519946213754361,-0.3783407674556373,-0.23552637537360988,-1.5062237125666962,0.8704939293821511
1780773616949537536,2.617424488067627,0.07681069523096085,0.003872835310176015,-0.013583243824541569,-0.9703943729400635,0.2331572026014328,-0.06302887946367264,-0.0182989239692688,0.010022148489952087,0.0005898997187614441,-0.6230177660224088,-0.2089903677464889,0.6517734178140026,-0.3786335976329671,-0.2353231115716133,-1.5059356202082166,0.8715264629052545
1780773616959572480,2.6274595260620117,0.0327092781662941,-0.004545149859040976,-0.014174198731780052,-0.9704297184944153,0.23297105729579926,-0.06317342817783356,-0.006621181964874268,0.008239924907684326,-0.004194147884845734,-0.6229925399369075,-0.20921412957384913,0.6516461718129776,-0.3787705368148401,-0.23513169284572963,-1.5057896430272453,0.8720950991728237
1780773616969608448,2.637495517730713,0.01563202403485775,-0.03641359880566597,-0.018950046971440315,-0.9704832434654236,0.23279209434986115,-0.06301107257604599,-0.004034698009490967,-0.014072582125663757,0.004615657031536102,-0.6229392048580092,-0.2093640110625885,0.6516603211002628,-0.3787511535873256,-0.23494767211310674,-1.5059598092273883,0.8722611858436758
1780773616979643648,2.6475305557250977,0.02760293334722519,-0.050227418541908264,-0.030640792101621628,-0.9705749750137329,0.23252198100090027,-0.06259466707706451,-0.006430149078369141,-0.02410215139389038,0.015307657420635223,-0.6228087067329997,-0.2096106289770388,0.6517407855251253,-0.3786909115981841,-0.23466992986137047,-1.506393161808082,0.872471897909285
1780773616989678592,2.6575655937194824,0.04300745576620102,-0.036204010248184204,-0.0509473942220211,-0.970696210861206,0.23210753500461578,-0.062250882387161255,-0.005698561668395996,0.018579140305519104,-0.00868726521730423,-0.6227085491992116,-0.20992963059453562,0.6517699821887398,-0.37862857842672965,-0.23424382937057267,-1.5067538878756104,0.8727898195082167
1780773616999713536,2.667600631713867,0.04145669564604759,-0.03890112787485123,-0.060045819729566574,-0.970847487449646,0.23154504597187042,-0.06198468804359436,-0.003624558448791504,0.04387609660625458,-0.013073325157165527,-0.6226404266502319,-0.21032256680041495,0.6517454052381196,-0.3785647766280238,-0.23366558621887162,-1.5070369088868771,0.8732188090756094
1780773617009748736,2.677635669708252,0.021988989785313606,-0.03631865978240967,-0.05940825864672661,-0.971014678478241,0.2309255450963974,-0.06167685240507126,-0.006326019763946533,0.026536017656326294,-0.0033866167068481445,-0.6225922902493509,-0.2107033997581627,0.651740478195799,-0.37844063655023286,-0.23302882499231078,-1.5073635997380797,0.8735236102191846
1780773617019783424,2.6876704692840576,-0.010926350019872189,-0.04694320634007454,-0.06477319449186325,-0.9711830615997314,0.23032556474208832,-0.06126799434423447,-0.010842084884643555,0.005529552698135376,-0.007839024066925049,-0.6225640427519348,-0.21099804289008303,0.6518019859368656,-0.37821697760153083,-0.23241222977476175,-1.5077938792358287,0.8735254261830995
1780773617029819392,2.697706460952759,-0.003131010802462697,-0.04495489224791527,-0.06892798840999603,-0.9713654518127441,0.22968144714832306,-0.06079278886318207,-0.01210927963256836,0.008752405643463135,-0.027403056621551514,-0.6225439579805568,-0.21128250383395428,0.6518920999912293,-0.37793581110549707,-0.23175036678875785,-1.5082929690384324,0.8734085256259816
1780773617039854592,2.7077414989471436,0.005483516491949558,-0.038564637303352356,-0.07529773563146591,-0.9715553522109985,0.22897997498512268,-0.060401801019907,-0.01515418291091919,0.018639668822288513,-0.0342789888381958,-0.6225485827756799,-0.2115948568329314,0.6519407306064087,-0.37766940629167717,-0.23102969389614486,-1.5087060306213993,0.8733652496532899
1780773617049889536,2.7177765369415283,0.024434037506580353,-0.02070840634405613,-0.08170876652002335,-0.9717535972595215,0.22820965945720673,-0.06012953445315361,-0.014544129371643066,0.021668314933776855,-0.022664673626422882,-0.6225790161537219,-0.21195444791722645,0.6519283279949508,-0.377439072859131,-0.23023842562371136,-1.5089977697682535,0.8734629994286379
1780773617059924480,2.727811574935913,0.05022462084889412,-0.023717114701867104,-0.06709520518779755,-0.9719403386116028,0.2274496704339981,-0.05998858064413071,-0.022627532482147217,-0.006700769066810608,0.008276581764221191,-0.6226077875525292,-0.212360095390125,0.6518503658762368,-0.37729806381662995,-0.2294578980137352,-1.5091540854056082,0.8737919188718193
1780773617069959680,2.737846612930298,0.05617012828588486,-0.033895980566740036,-0.0689287856221199,-0.9721103310585022,0.2267673909664154,-0.059817876666784286,-0.017193257808685303,-0.012167766690254211,0.024844706058502197,-0.6225806548585201,-0.2127988238897473,0.6517727533515149,-0.3772298319241761,-0.2287573180234798,-1.5093397754976547,0.8742902775413255
1780773617079995648,2.747882604598999,0.055370915681123734,-0.030044252052903175,-0.07414165884256363,-0.9722973704338074,0.22601497173309326,-0.05962442606687546,-0.005638420581817627,0.013075008988380432,0.024925947189331055,-0.6225533192093309,-0.21327585727032092,0.6516910274491273,-0.37714663547377436,-0.227984842713036,-1.5095497812435872,0.8748163075047584
1780773617090030592,2.757917642593384,0.04240744560956955,-0.013962488621473312,-0.06648454070091248,-0.9724717140197754,0.22529326379299164,-0.05951214209198952,-0.005494594573974609,0.017763972282409668,0.02484416961669922,-0.6225570366129847,-0.21370978909902263,0.6515919394059823,-0.37706600248210503,-0.22724403402170387,-1.509675765082288,0.8752924794619801
1780773617100066048,2.7679529190063477,0.007677162066102028,-0.0010500182397663593,-0.059555795043706894,-0.9726171493530273,0.22466053068637848,-0.059529200196266174,-0.004509985446929932,-0.000646248459815979,0.01456153392791748,-0.6226340559605338,-0.214007300125423,0.6514877396531021,-0.3769502939135473,-0.22659463983599581,-1.509667407776776,0.8755245851212131
1780773617110100736,2.7779877185821533,-0.024660803377628326,-0.023265574127435684,-0.06291323900222778,-0.9727577567100525,0.22408795356750488,-0.059389978647232056,0.00998908281326294,-0.011426165699958801,0.0020627304911613464,-0.6227239771765194,-0.21418173228162896,0.6514838416940344,-0.3767093805493025,-0.22600708418455662,-1.5098188104470278,0.8753517989944497
1780773617120135680,2.788022756576538,0.00031804919126443565,-0.03937530517578125,-0.07205160707235336,-0.9729285836219788,0.22343671321868896,-0.059043582528829575,0.02049022912979126,-0.004579901695251465,0.004920661449432373,-0.6227606194190239,-0.2144207752453374,0.651538134051934,-0.3764187510901178,-0.22533890488610403,-1.5101842120738844,0.8751686273376648
1780773617130171648,2.7980587482452393,0.04735506698489189,-0.028977787122130394,-0.08009622246026993,-0.9731242656707764,0.222665935754776,-0.05872967466711998,0.015497922897338867,0.006658390164375305,-0.0026412010192871094,-0.6227611197942826,-0.21481474756378555,0.6515288077186784,-0.3762093728607087,-0.22454821582140105,-1.510517771023484,0.8753504335865724
1780773617140206848,2.808093786239624,0.060065533965826035,-0.0029995846562087536,-0.09061118215322495,-0.9733244776725769,0.22179774940013885,-0.05869423970580101,0.002560436725616455,0.010975047945976257,-0.023871056735515594,-0.6228086348580646,-0.21529973178665876,0.6513823031200222,-0.3761069383259365,-0.22365774915628825,-1.5105664129669858,0.8758710271702711
1780773617150241792,2.818128824234009,0.05323133245110512,0.0036404745187610388,-0.08883991092443466,-0.973527193069458,0.22087064385414124,-0.05883130431175232,-0.001875758171081543,0.0036472082138061523,-0.01903427392244339,-0.6229232229882069,-0.2157746959498509,0.6511725030430944,-0.37600848961084377,-0.22270706760615314,-1.5104386443648257,0.8763997614402561
1780773617160276992,2.8281638622283936,0.03982364758849144,-0.00724865822121501,-0.08593253791332245,-0.9737184643745422,0.22000174224376678,-0.05892295762896538,0.0047394633293151855,-0.016998782753944397,0.0043269917368888855,-0.6230246647040293,-0.21621552737159083,0.6509910654435491,-0.375901437850167,-0.22181625641917652,-1.510356686659137,0.8768606580422045
1780773617170311936,2.8381989002227783,0.012606406584382057,-0.02735952101647854,-0.09123063087463379,-0.9739227890968323,0.21912582218647003,-0.0588076077401638,0.011077880859375,-0.023202955722808838,0.011810533702373505,-0.6231054551806097,-0.2166164580532892,0.6509020708735876,-0.37569063139721187,-0.22091843222329915,-1.510487344664754,0.8770689531549031
1780773617180347904,2.8482348918914795,-0.005929193925112486,-0.029181253165006638,-0.08905163407325745,-0.9741443991661072,0.21821948885917664,-0.05850671976804733,0.006248891353607178,-0.020999625325202942,0.01392054557800293,-0.623175370194373,-0.21698465321502336,0.6508949988118241,-0.3753742683715485,-0.2199896112800961,-1.510808785571162,0.8770342243976031
1780773617190382848,2.8582699298858643,0.012147011235356331,-0.012316785752773285,-0.061073798686265945,-0.9743237495422363,0.21746781468391418,-0.05831896513700485,-0.006175577640533447,-0.016448527574539185,0.01377856731414795,-0.623252711059665,-0.2172800885617398,0.6508685579390159,-0.3751207641240557,-0.21921944299330517,-1.5110118143893922,0.87701207019336
1780773617200417792,2.86830472946167,0.04733136296272278,-0.006118678953498602,-0.05170666053891182,-0.9744508266448975,0.21690569818019867,-0.05828966572880745,-0.004492044448852539,-0.01371966302394867,0.006028294563293457,-0.6232978406679394,-0.21756593988873463,0.6507843183794592,-0.3750262921108105,-0.21864358285741228,-1.5110495549707075,0.8772610053607584
1780773617210452736,2.8783397674560547,0.048754557967185974,-0.008145611733198166,-0.04750552400946617,-0.9745678305625916,0.21636639535427094,-0.05833622068166733,-0.002009868621826172,-0.020886048674583435,-0.0038128457963466644,-0.6233181910926586,-0.21790867750306248,0.650651748171698,-0.3750234124396431,-0.2180911578515564,-1.5110091122218896,0.8777546256118087
1780773617220487936,2.8883748054504395,0.04404102638363838,-0.004497080110013485,-0.03690747544169426,-0.974662721157074,0.21593037247657776,-0.05836651101708412,0.0007399916648864746,-0.028384581208229065,-0.014600992202758789,-0.6233217671010114,-0.21820524271226552,0.6505407108395969,-0.3750376529691359,-0.21764457619513275,-1.5109839527026008,0.8782094422302901
1780773617230523904,2.8984107971191406,0.05114341154694557,-0.00032843416556715965,-0.029045557603240013,-0.9747348427772522,0.2155809849500656,-0.058452870696783066,0.004169106483459473,-0.016102850437164307,-0.02217453345656395,-0.6233280626838645,-0.21846077267226263,0.650421751926639,-0.3750846562707849,-0.21728675900984204,-1.5109000849196892,0.8786657177311283
1780773617240558848,2.9084458351135254,0.04196882247924805,-0.006491921376436949,-0.022397242486476898,-0.9747899174690247,0.21531185507774353,-0.05852801725268364,0.008328676223754883,-0.0032299309968948364,-0.020771928131580353,-0.623313384997465,-0.2186949465420625,0.6503141634959916,-0.3751593182557863,-0.2170111705322812,-1.5108266488214959,0.8791374035752695
1780773617250593792,2.91848087310791,0.024282503873109818,-0.01609155163168907,-0.018224602565169334,-0.9748431444168091,0.2150794267654419,-0.05849459394812584,0.0028430819511413574,-0.02423776686191559,-0.0032119713723659515,-0.6232779493733749,-0.218898388074529,0.6502585634159311,-0.37519574803110867,-0.21677315169020014,-1.510864078473138,0.8794901450897779
1780773617260628992,2.928515911102295,0.011979498900473118,-0.029986195266246796,-0.00841537956148386,-0.9748912453651428,0.21491771936416626,-0.0582888126373291,-0.009117543697357178,-0.04867318272590637,0.0158388614654541,-0.6232170222411749,-0.21903264302190556,0.6502924682852573,-0.37516000793070065,-0.21660757216187893,-1.5110773532698363,0.8796053432578527
1780773617270664960,2.938551902770996,0.02941041998565197,-0.03687605634331703,-0.0070814029313623905,-0.9749236702919006,0.21484822034835815,-0.058001480996608734,-0.016622960567474365,-0.050404250621795654,0.027346551418304443,-0.6230983008222003,-0.21917393131300775,0.650355323824837,-0.3751657117707307,-0.21653642572632847,-1.5113730140500516,0.8797942035335052
1780773617280699904,2.948586940765381,0.06689175218343735,-0.021174460649490356,-0.0035495185293257236,-0.9749518036842346,0.21477214992046356,-0.05780862271785736,-0.012215495109558105,-0.021229684352874756,0.020836595445871353,-0.6229548446599618,-0.21939886633157107,0.6503536155322857,-0.375275322868715,-0.21645853251806563,-1.5115718419993582,0.8802889845616291
1780773617290734848,2.9586217403411865,0.08187709748744965,-0.015289407223463058,-0.005685640033334494,-0.9749705791473389,0.21468955278396606,-0.05780022591352463,-0.006398439407348633,0.0020768046379089355,0.0001983046531677246,-0.6228215110948072,-0.21968178171637726,0.650261333887475,-0.3754910522483913,-0.21637395335348647,-1.511581563209215,0.8810642919865733
1780773617300769792,2.9686567783355713,0.07986854016780853,-0.023813121020793915,0.002040456747636199,-0.9749850034713745,0.21462763845920563,-0.057787805795669556,0.002099752426147461,-0.00901542603969574,-0.006314404308795929,-0.6226707247993619,-0.2199793995553948,0.6501654873750314,-0.37573287624557283,-0.21631056203923124,-1.5115951312034623,0.8819050850111778
1780773617310804736,2.978691816329956,0.04932527244091034,-0.043921586126089096,-0.008425765670835972,-0.9750144481658936,0.21454481780529022,-0.05759848654270172,0.012032151222229004,-0.022009387612342834,-0.00621379166841507,-0.6224948283544802,-0.22026624076840007,0.6501411699107782,-0.3758983694836696,-0.2162257739432365,-1.5117904105456048,0.8825851741040683
1780773617320840960,2.9887278079986572,0.019938621670007706,-0.051865264773368835,-0.013552883639931679,-0.9750686287879944,0.21440520882606506,-0.0571989081799984,0.017472803592681885,-0.01530851423740387,-0.003607332706451416,-0.6223224105450652,-0.2205040453963625,0.6502142041881966,-0.37591798498752843,-0.2160828365519036,-1.5122020562966128,0.8829278751824323
1780773617330875904,2.998762845993042,-0.0016044867224991322,-0.04697037488222122,-0.013882050290703773,-0.9751286506652832,0.2142588049173355,-0.05672356113791466,0.017944753170013428,0.0007985979318618774,0.006964676082134247,-0.6221754577010635,-0.22067343713700163,0.6503394917237337,-0.375845238895798,-0.21593295440939644,-1.5126914726840854,0.8830080536896248
1780773617340910848,3.0087978839874268,-0.03363751992583275,-0.04110049456357956,-0.007082734722644091,-0.9751752018928528,0.21416576206684113,-0.05627294257283211,0.013947665691375732,0.001166313886642456,0.014189235866069794,-0.6220697952109926,-0.2207451123186458,0.6504883728738216,-0.37572039373237204,-0.21583769493041663,-1.5131547807330625,0.8828604080805563
1780773617350946048,3.0188329219818115,-0.07053162157535553,-0.04795414209365845,-0.000500465277582407,-0.9752141833305359,0.2141319215297699,-0.05572189390659332,0.009882092475891113,-0.015950754284858704,0.012615799903869629,-0.6220004018449237,-0.22067545336627511,0.650723748702721,-0.3754683637368979,-0.21580305069711317,-1.5137202762446198,0.8822832230232127
1780773617360980736,3.028867721557617,-0.061366088688373566,-0.05545427277684212,0.0049291872419416904,-0.9752405285835266,0.2141866236925125,-0.055043306201696396,0.007924973964691162,-0.0271901935338974,0.013707228004932404,-0.6218958229685106,-0.22055802603519195,0.6510241961225225,-0.37518947143587567,-0.21585904671996337,-1.5144153962311078,0.8815803728639848
1780773617371016704,3.0389037132263184,-0.02192840166389942,-0.05431976169347763,0.0026487228460609913,-0.9752585291862488,0.2142656445503235,-0.05441562831401825,0.01203221082687378,-0.010545581579208374,0.008791867643594742,-0.62175577579528,-0.22050541826797776,0.651282999787766,-0.3750034060436957,-0.21593995896066961,-1.5150580116032024,0.881133793820322
1780773617381051904,3.048938751220703,0.03394019231200218,-0.046196456998586655,-0.0011686523212119937,-0.9752876162528992,0.2142554223537445,-0.05393245071172714,0.01189345121383667,0.0108422189950943,-0.003349006175994873,-0.6215802624429231,-0.22062977336839915,0.6514263415817239,-0.37497228888201245,-0.2159294920659919,-1.5155535715271262,0.8812193531759169
1780773617391086848,3.058973789215088,0.06448878347873688,-0.0400373674929142,-0.0001782227773219347,-0.9753168225288391,0.21420185267925262,-0.053615640848875046,0.004842579364776611,0.0021067261695861816,-0.00798410177230835,-0.6213803545862941,-0.22088989241573706,0.6514597730342244,-0.37509233673676234,-0.21587464874987122,-1.5158790658805503,0.8817728972439992
1780773617401121792,3.0690088272094727,0.058981627225875854,-0.038077279925346375,0.010971101000905037,-0.9753282070159912,0.21421286463737488,-0.0533658005297184,-0.001936197280883789,-0.024103596806526184,0.004827558994293213,-0.6211730361849329,-0.22114579000056966,0.6514688321356166,-0.37526926653879317,-0.21588591037363047,-1.5161350944247736,0.8824229514813343
1780773617411156992,3.0790438652038574,0.03537989407777786,-0.03617951273918152,0.028096292167901993,-0.9753074645996094,0.21437691152095795,-0.053086429834365845,-0.0060463547706604,-0.03647466003894806,0.01495467871427536,-0.620957098043933,-0.2213029190883249,0.6515226800979927,-0.3754406159317814,-0.21605387002159376,-1.5164195285921183,0.8829179530924833
1780773617421192960,3.0890798568725586,0.02279006876051426,-0.021269002929329872,0.043031565845012665,-0.9752448201179504,0.2147194743156433,-0.05285117030143738,-0.0076348185539245605,-0.020276710391044617,0.01052325963973999,-0.6207588623384978,-0.2213268633123106,0.6516048151676468,-0.3756116282021278,-0.21640458868952533,-1.5166565658040274,0.8832230949207246
1780773617431227904,3.0991148948669434,0.003907723817974329,-0.006956642493605614,0.04854457452893257,-0.9751570224761963,0.21514397859573364,-0.0527442991733551,-0.009095907211303711,-0.013285458087921143,0.00878375768661499,-0.6206179547456666,-0.22124625284001312,0.651673189384939,-0.3757733047613545,-0.2168392621577281,-1.5167609733291791,0.8833719098251144
1780773617441262848,3.109149932861328,-0.01637384667992592,0.003403453389182687,0.06659628450870514,-0.9750398397445679,0.21568377315998077,-0.052707333117723465,-0.010922133922576904,-0.020462825894355774,0.017139136791229248,-0.620514074125213,-0.22105135630285752,0.6517535043151976,-0.3759202907664027,-0.2173920359084207,-1.5167922907709885,0.8833361643178904
1780773617451297792,3.119184732437134,-0.035360854119062424,-0.0033287517726421356,0.07562600076198578,-0.9748796224594116,0.21641942858695984,-0.052653275430202484,-0.005833268165588379,-0.017933130264282227,0.014018002897500992,-0.6204080395933872,-0.2207222998499774,0.6518857482918584,-0.37605915659536787,-0.21814548327898775,-1.5168387238660939,0.8830906690702066
1780773617461333760,3.129220724105835,-0.006489789579063654,-0.013214537873864174,0.06009523570537567,-0.9747393131256104,0.21708868443965912,-0.05249710753560066,-0.00019061565399169922,-0.0022143572568893433,0.0001289770007133484,-0.620274899764337,-0.2204451887706881,0.6520393884845707,-0.37617506104826287,-0.21883102939211208,-1.516990720394086,0.8828726500722404
1780773617471368704,3.1392557621002197,0.022822558879852295,-0.00380585715174675,0.060425467789173126,-0.9746120572090149,0.217673659324646,-0.0524374395608902,-0.006345093250274658,-0.006461471319198608,-8.327513933181763e-05,-0.6201207045242958,-0.22029800159111274,0.652112007304861,-0.3763896055883364,-0.2194303406075778,-1.5170447558930609,0.8830191353087724
1780773617481403904,3.1492908000946045,0.03403100371360779,-0.005943709053099155,0.05565361678600311,-0.9744894504547119,0.2182167023420334,-0.05245734006166458,-0.0074135661125183105,0.00289839506149292,0.0016913451254367828,-0.6199681925466733,-0.2202063049247689,0.6521353487115286,-0.37665380096817597,-0.21998676388678426,-1.5170176426616544,0.8833375117761856
1780773617491438848,3.1593258380889893,0.036307208240032196,-0.02164996787905693,0.04244540259242058,-0.9743922352790833,0.21866574883460999,-0.0523948147892952,0.004207789897918701,0.01610599458217621,0.0008048340678215027,-0.6197897050584071,-0.2201906953074958,0.6521645883930551,-0.37690608757773064,-0.22044692550663256,-1.5170762716902284,0.8837388395925521
1780773617501473792,3.169360876083374,0.007224691100418568,-0.026025008410215378,0.034365639090538025,-0.9743207097053528,0.21902920305728912,-0.05220670998096466,-0.0017229914665222168,0.0048935264348983765,0.009192168712615967,-0.6196154560939526,-0.22017635806341293,0.6522415319631647,-0.3770677908331757,-0.2208193978979148,-1.5172648425147546,0.8839767884567007
1780773617511510016,3.179396867752075,-0.0035190333146601915,-0.012557669542729855,0.045914702117443085,-0.974242091178894,0.21942588686943054,-0.05200820043683052,-0.018510103225708008,-0.01717059314250946,0.02155166119337082,-0.6194697833197673,-0.22008624960480738,0.6523480229558093,-0.3771755462306838,-0.22122597132808022,-1.5174637096373742,0.8840121725400478
1780773617521544960,3.18943190574646,0.008383432403206825,-0.01055111177265644,0.04436527565121651,-0.9741469025611877,0.21987739205360413,-0.05188364163041115,-0.012547492980957031,-0.0024853795766830444,0.016025476157665253,-0.6193449415522617,-0.21995179014730531,0.6524411008440223,-0.3772979983738064,-0.22168877834478656,-1.5175860129562946,0.8840148057189587
1780773617531579904,3.1994669437408447,0.04223247617483139,-0.01740448921918869,0.03077809512615204,-0.9740712642669678,0.22023232281208038,-0.051798779517412186,0.00039255619049072266,0.028287619352340698,-0.004460342228412628,-0.6191987164092295,-0.2199341401276292,0.652479566505104,-0.3774817048355766,-0.22205263555928373,-1.5176687605829293,0.8842945225773141
1780773617541614848,3.2095017433166504,0.0677596777677536,-0.008877714164555073,0.01228430587798357,-0.9740390181541443,0.22038038074970245,-0.051775023341178894,0.0004672408103942871,0.02823108434677124,-0.017133653163909912,-0.6190608829083445,-0.22006397939251096,0.6524448884345767,-0.3776919671864724,-0.2222044252029428,-1.5176913234954625,0.8848386756182645
1780773617551649792,3.219536781311035,0.06051161512732506,-0.009807956404983997,0.010318626649677753,-0.9740201234817505,0.2204480618238449,-0.05183883756399155,-0.007318258285522461,-0.005314424633979797,-0.007762011140584946,-0.6189335685400106,-0.22026283703051636,0.6523533270338068,-0.37794257443338414,-0.22227381188337028,-1.5176249663253365,0.8855593844970732
1780773617561685760,3.2295727729797363,0.02855900675058365,-0.015643473714590073,0.005868217907845974,-0.9740080833435059,0.2205059975385666,-0.051820382475852966,-0.003988742828369141,-0.015275299549102783,0.00021517649292945862,-0.6188337268769992,-0.22038929370066437,0.652317689304343,-0.3780938818687075,-0.2223332080069703,-1.5176432022434554,0.8859988613206116
1780773617571720960,3.239607810974121,0.01580646075308323,-0.032519660890102386,-0.004210248589515686,-0.9740157127380371,0.22051696479320526,-0.051629576832056046,0.008241236209869385,0.004885882139205933,0.007592737674713135,-0.6187240675330392,-0.2204979618074823,0.6523540913764695,-0.378147202544137,-0.22234444364688,-1.5178389655093283,0.8862303535792331
1780773617581755904,3.249642848968506,-0.010261358693242073,-0.01899799332022667,-0.001776385703124106,-0.9740403890609741,0.22047264873981476,-0.051354389637708664,0.006297469139099121,0.007936179637908936,0.010354042053222656,-0.6186331769039932,-0.22057895322270424,0.6524321652809526,-0.378114076127851,-0.22229902154694242,-1.5181220364788561,0.8862670039740994
1780773617591790848,3.2596778869628906,-0.051973652094602585,-0.012134226970374584,0.0173064935952425,-0.9740315079689026,0.22055675089359283,-0.05115906894207001,-0.004560351371765137,-0.02489331364631653,0.009212676435709,-0.6186139968437464,-0.2204805757787523,0.6525402522343362,-0.37801613976791537,-0.22238524436381726,-1.5183215310919005,0.8859401656008952
1780773617601826048,3.2697129249572754,-0.06430088728666306,-0.026704514399170876,0.02850828319787979,-0.973986029624939,0.2208326905965805,-0.05083581805229187,0.00842505693435669,-0.0311812162399292,0.009347140789031982,-0.6185726740214831,-0.22024286206882648,0.6527443399353902,-0.3778700933858725,-0.2226681634813998,-1.5186500639040927,0.885318088737557
1780773617611862016,3.2797489166259766,-0.039645347744226456,-0.04979199171066284,0.020827192813158035,-0.9739528298377991,0.22109420597553253,-0.05033211410045624,0.023467540740966797,-0.005258634686470032,-0.004034996032714844,-0.6184599127324552,-0.22006835386303975,0.6529960661971826,-0.3777213577443676,-0.22293630587426985,-1.5191640721650448,0.884767000036613
1780773617621896704,3.2897837162017822,0.008518454618752003,-0.03346135467290878,0.02205943875014782,-0.9739315509796143,0.22129404544830322,-0.04986502230167389,0.009438633918762207,0.007191106677055359,-0.023102469742298126,-0.6182910819171402,-0.22004615620855494,0.6531823466979633,-0.37768870855212133,-0.22314121179392452,-1.519641274845263,0.8846377067976646
1780773617631931904,3.299818754196167,0.05377008765935898,-0.015047992579638958,0.03313446044921875,-0.9738835096359253,0.2215415984392166,-0.049702923744916916,-0.007638096809387207,4.653632640838623e-05,-0.025492370128631592,-0.6181318459316943,-0.22009285501871118,0.6532286525197545,-0.3778419758410541,-0.22339507495457722,-1.5198047661571874,0.8849519073927132
1780773617641966848,3.3098537921905518,0.07797370105981827,-0.0314546637237072,0.03611959517002106,-0.973817765712738,0.22184628248214722,-0.049630407243967056,-0.002897322177886963,-0.013838499784469604,-0.011099573224782944,-0.6179163005812115,-0.22023289289377815,0.653209207252957,-0.3781462910123313,-0.223707535203065,-1.5198756013853176,0.8856667049342927
1780773617652002816,3.319889783859253,0.10643729567527771,-0.05183450132608414,0.0319426953792572,-0.9737626314163208,0.22213318943977356,-0.04942629486322403,0.010475397109985352,-0.009730875492095947,-0.002560429275035858,-0.6176080768182433,-0.22049397097659634,0.653199250524317,-0.3785145934039166,-0.22400177031274957,-1.5200817970071039,0.8866545787980679
1780773617662037760,3.3299248218536377,0.10330408811569214,-0.04469110816717148,0.017760830000042915,-0.97373366355896,0.2223174273967743,-0.049169450998306274,0.005136311054229736,-0.005795210599899292,-0.01272016391158104,-0.6172688159523521,-0.22085694948666376,0.6531749253979765,-0.37889822400780465,-0.22419073559792554,-1.5203433896069116,0.8878121107231655
