time,seconds_elapsed,rotationRateX,rotationRateY,rotationRateZ,gravityX,gravityY,gravityZ,accelerationX,accelerationY,accelerationZ,quaternionW,quaternionX,quaternionY,quaternionZ,pitch,roll,yaw
1780771388084070400,0.02968430519104004,0.10508707165718079,0.07185734808444977,0.10708991438150406,-0.08754472434520721,-0.392917662858963,-0.9153969883918762,-0.1462351679801941,0.06584551930427551,-0.02082127332687378,0.5343281094992056,0.14708309445130643,0.14376394189462963,0.8198731393062226,0.40380228176267985,-0.09534582493777151,2.005955693373647
1780771388094105600,0.039719343185424805,0.13939312100410461,-0.016444021835923195,0.14656594395637512,-0.08796326816082001,-0.3939370810985565,-0.9149186015129089,0.0981561467051506,0.02124115824699402,-0.010710060596466064,0.5336739702268319,0.14746179699671041,0.14420721815434373,0.8201532494748283,0.40491113464474626,-0.09584866926140138,2.0075469635649426
1780771388104140544,0.04975438117980957,0.13744528591632843,0.03619721904397011,0.06772120296955109,-0.08832063525915146,-0.39512160420417786,-0.9143732190132141,0.09726229310035706,-0.016591042280197144,0.006292164325714111,0.5331221278799085,0.147882093279932,0.1447213587127031,0.8203459598815517,0.4062002145124504,-0.096292726208047,2.008863562941611
1780771388114175232,0.059789180755615234,0.11286936700344086,0.04157786816358566,0.040253087878227234,-0.08810870349407196,-0.39624732732772827,-0.9139063954353333,-0.018458671867847443,-0.01952415704727173,0.006923973560333252,0.5328024299954847,0.14807772471239952,0.14532647497305307,0.82041138927429,0.4074259917945108,-0.09611185218098732,2.009508623169312
1780771388124209408,0.0698232650756836,0.06723742932081223,-0.04660618305206299,0.04781407117843628,-0.08829294145107269,-0.3970268666744232,-0.9135502576828003,-0.028085842728614807,-0.022940784692764282,0.014044642448425293,0.5325613495244407,0.1483535203800522,0.14565752177953295,0.8204593764131993,0.4082751729394037,-0.09634890004056701,2.0100672181603647
1780771388134244352,0.07985830307006836,0.017221931368112564,-0.0991828441619873,0.05724538862705231,-0.08924233168363571,-0.3973724842071533,-0.9133076667785645,0.029015883803367615,-0.02839350700378418,0.03237199783325195,0.5323729460521187,0.14883878814652596,0.1455787734517427,0.8205076561774572,0.4086517791338113,-0.09740410907027942,2.0106820734228004
1780771388144279552,0.08989334106445312,-0.025063473731279373,-0.07574129849672318,0.04358470439910889,-0.09031110256910324,-0.3972976803779602,-0.9132351875305176,0.04259686917066574,-0.029078662395477295,0.03567171096801758,0.5322195212663313,0.14925373790856783,0.1452781337612252,0.8205852224081885,0.40857026935471674,-0.09857091001108838,2.0112699326926236
1780771388154313216,0.09992718696594238,-0.0700535848736763,-0.04332184046506882,0.003217307385057211,-0.09095077961683273,-0.396847128868103,-0.9133675694465637,0.004860676825046539,-0.03552591800689697,0.02382594347000122,0.5322047512125143,0.149391721015572,0.14490796775885856,0.8206351640139824,0.40807933852255474,-0.09925023144355122,2.011466515775117
1780771388164348416,0.10996222496032715,-0.08458086103200912,-0.03323698416352272,0.0037073292769491673,-0.09132163226604462,-0.3961378037929535,-0.9136384725570679,-0.021974876523017883,-0.02402821183204651,0.02061784267425537,0.5322907504328552,0.14935142754359088,0.1444815751047337,0.8206618816899679,0.4073067062627298,-0.09962290974760357,2.0113858174504173
1780771388174383360,0.11999726295471191,-0.07833601534366608,-0.014191651716828346,0.013041443191468716,-0.09160217642784119,-0.39535337686538696,-0.9139500856399536,-0.011181019246578217,-0.004732072353363037,0.015543103218078613,0.5323282871519563,0.1492403823972214,0.1440564629462632,0.8207324084277102,0.4064525319491377,-0.09989307622327499,2.0114112236249104
1780771388184417536,0.13003134727478027,-0.05050145462155342,0.010087721049785614,0.010559376329183578,-0.0916815921664238,-0.3947469890117645,-0.9142041802406311,-0.0006645992398262024,0.00045987963676452637,-0.0009722113609313965,0.532327916191739,0.1490896402130821,0.14377129371244998,0.8208100225993067,0.40579246459689255,-0.09995150334916769,2.011475823580752
1780771388194452480,0.14006638526916504,-0.005255147814750671,0.02124769799411297,0.0025006509386003017,-0.09156042337417603,-0.3944992125034332,-0.9143232703208923,-0.0067367032170295715,0.016783148050308228,-0.01376199722290039,0.5323056045923612,0.14895731722116629,0.14370132213963402,0.8208608431598787,0.4055227926843079,-0.09980735636375368,2.011526974192132
1780771388204487424,0.1501011848449707,0.034674689173698425,0.021212410181760788,0.0013128811260685325,-0.09139394760131836,-0.3946384787559509,-0.9142798185348511,-0.00954294204711914,0.024338185787200928,-0.018337368965148926,0.5322736712618481,0.14892184645533146,0.1438136715916309,0.8208681837180032,0.4056743752912172,-0.09963179709367372,2.011561413361689
1780771388214521344,0.16013526916503906,0.06242962181568146,0.02573632076382637,-0.0041295550763607025,-0.09120047837495804,-0.3950885236263275,-0.9141047596931458,-0.0004895925521850586,0.028053611516952515,-0.016940772533416748,0.5322235066691646,0.14896628182900307,0.14407172042547028,0.8208474585086966,0.40616421389932644,-0.09944118668877744,2.0116106141669823
1780771388224556544,0.17017030715942383,0.07517418265342712,0.03219568729400635,-0.009373851120471954,-0.0909273698925972,-0.3957314193248749,-0.9138538241386414,-0.0001675933599472046,0.021479129791259766,-0.009211301803588867,0.5321792465616172,0.14903605525446434,0.14443452986263083,0.8207996710092407,0.4068641509637377,-0.0991724022712413,2.011614026612592
1780771388234591488,0.1802053451538086,0.07654384523630142,0.042115431278944016,-0.020101597532629967,-0.09053675830364227,-0.3964328467845917,-0.9135885834693909,-0.002953849732875824,0.014184921979904175,-0.004029214382171631,0.5321564371760092,0.14907636694629597,0.14485145198298288,0.8207337815367125,0.4076280636427701,-0.09877762137142797,2.0115377823966427
1780771388244626432,0.19024038314819336,0.06934372335672379,0.04773416370153427,-0.02698080986738205,-0.09004100412130356,-0.3971309959888458,-0.9133343696594238,-0.0049754902720451355,0.0031642913818359375,0.0018658638000488281,0.5321696753294357,0.1490763904996321,0.14528956951410826,0.8206477514318903,0.4083886251761678,-0.09826739887694012,2.011352665697693
1780771388254660352,0.20027422904968262,0.047433894127607346,0.04935416579246521,-0.028279898688197136,-0.0894797071814537,-0.3977000415325165,-0.9131418466567993,-0.003110624849796295,-0.01193740963935852,0.009104371070861816,0.5322035689052877,0.14901220777991706,0.14568607694746527,0.8205670322686278,0.40900875534435766,-0.09767917894036204,2.011114074846771
1780771388264695296,0.21030926704406738,0.02026991918683052,0.04942793771624565,-0.022385524585843086,-0.0889301672577858,-0.39802059531211853,-0.9130558967590332,3.2454729080200195e-05,-0.01466861367225647,0.015244007110595703,0.5322479154832455,0.1488790267717402,0.14596949951991572,0.8205121047811524,0.4093581434267422,-0.0970921329811026,2.0108725905185207
1780771388274730496,0.22034430503845215,0.009774400852620602,0.03620321303606033,-0.023568233475089073,-0.08844611048698425,-0.3981640934944153,-0.9130403399467468,0.005362004041671753,-0.013975799083709717,0.015091121196746826,0.5322996236635811,0.1487215486450843,0.14615655069002995,0.8204737818424472,0.4095145715741574,-0.09656857524952049,2.010640126149146
1780771388284764416,0.2303783893585205,0.01689010113477707,0.002095308154821396,-0.026524342596530914,-0.08817599713802338,-0.39830997586250305,-0.9130028486251831,0.009898416697978973,0.0008948147296905518,0.010567545890808105,0.532378107418442,0.14866267387400775,0.14628054135096927,0.8204114311843662,0.40967360432826594,-0.09627941103409171,2.01038389470214
1780771388294799360,0.24041318893432617,0.02705591917037964,-0.01844778284430504,-0.001137227169238031,-0.08822282403707504,-0.3985154330730438,-0.9129086136817932,0.018917404115200043,0.0014664828777313232,0.005178570747375488,0.5324274851622152,0.14875472991591163,0.146347904097194,0.8203507695137789,0.40989763518843314,-0.09634009791002708,2.0102556898023347
1780771388304834304,0.25044822692871094,0.03231886029243469,-0.014136658981442451,0.009139912202954292,-0.08841315656900406,-0.39879027009010315,-0.9127702116966248,0.015201486647129059,-0.005369275808334351,0.0005845427513122559,0.532395894540037,0.14891604465505975,0.14642032159222362,0.8203290488926128,0.41019729972562624,-0.09656121234706312,2.010346816138771
1780771388314869504,0.2604832649230957,0.03278251364827156,-0.0026160897687077522,0.006540932692587376,-0.08853551745414734,-0.3990834355354309,-0.9126302003860474,0.0016061961650848389,0.002858459949493408,0.0014821290969848633,0.532346001575326,0.1490501429250609,0.14652288154836912,0.8203187517109988,0.41051700399353885,-0.09670875446217068,2.0104678299957017
1780771388324903424,0.27051734924316406,0.04318402335047722,-0.0025809360668063164,0.008398220874369144,-0.08858238160610199,-0.3994181454181671,-0.9124792218208313,-0.0013071447610855103,0.012211114168167114,0.0008733868598937988,0.5322899323984195,0.1491630202408066,0.14666555841760287,0.820309163077897,0.4108820845088026,-0.09677554336374214,2.0105857938851246
1780771388334938624,0.28055238723754883,0.054117895662784576,-0.023496070876717567,0.007149198558181524,-0.08873121440410614,-0.39985644817352295,-0.9122727513313293,0.00607435405254364,0.010650545358657837,7.18235969543457e-05,0.5322318456133553,0.14935165212226825,0.14682540598384347,0.820283963445606,0.4113602395144633,-0.09695892532361257,2.010719950132368
1780771388344973312,0.2905871868133545,0.04542720317840576,-0.032238565385341644,0.016023384407162666,-0.08904922008514404,-0.4003191888332367,-0.9120388031005859,0.00797928124666214,0.004567235708236694,0.003927290439605713,0.5321735660148068,0.14962140125560863,0.1469490659467368,0.8202504200976679,0.41186512152987065,-0.09732903057576675,2.010885574764787
1780771388355007488,0.30062127113342285,0.01557103730738163,-0.0063094948418438435,0.023298872634768486,-0.08932815492153168,-0.400583416223526,-0.9118955135345459,0.0014070048928260803,-0.011785358190536499,0.0040128231048583984,0.5320818872090831,0.14980735848976975,0.14700339519840927,0.8202662636408633,0.41215349304514837,-0.09764721994978975,2.011141930476524
1780771388365042432,0.3106563091278076,-0.0071491883136332035,0.014499247074127197,0.021503370255231857,-0.08937343209981918,-0.40058189630508423,-0.911891758441925,-0.006695911288261414,-0.0070261359214782715,0.011607944965362549,0.5319848926885018,0.14980921315535772,0.14700790295729574,0.820328055356836,0.41215182887734525,-0.09769680034912522,2.0113875208268843
1780771388375077376,0.3206913471221924,-0.015171960927546024,0.0052530188113451,0.030284611508250237,-0.08939208835363388,-0.4004334807395935,-0.9119550585746765,-0.0017181336879730225,0.0037965476512908936,0.011152505874633789,0.5318849686716167,0.14975400188567317,0.146956458210821,0.8204119670112336,0.411989859376651,-0.09771032001105812,2.0116467002024483
1780771388385111296,0.33072519302368164,-2.5953922886401415e-06,-0.01960066519677639,0.036532387137413025,-0.08959665894508362,-0.40034183859825134,-0.9119752645492554,0.011792093515396118,0.0011108815670013428,0.006152510643005371,0.5317605805639517,0.14979272007899058,0.14688266977929568,0.820498763097898,0.4118898384533419,-0.09793034584512943,2.0119977797070314
1780771388395146496,0.3407602310180664,0.009246828965842724,-0.03918688744306564,0.03132510930299759,-0.0899626687169075,-0.40032315254211426,-0.9119473695755005,0.012295447289943695,-0.0055911242961883545,0.0018522143363952637,0.5316444442921907,0.14992561438717808,0.14679445140966293,0.8205655084918769,0.4118694775564043,-0.09833081584874358,2.0123541558968805
1780771388405181440,0.35079526901245117,0.005367935169488192,-0.037772879004478455,0.0392080657184124,-0.09046188741922379,-0.4002143442630768,-0.9119457602500916,0.009590312838554382,-0.00760728120803833,0.005787372589111328,0.5315290106643284,0.1500890865086233,0.14663006488571662,0.8206398014607993,0.4117507242998492,-0.09887311002899571,2.0127423832351443
1780771388415215616,0.36082935333251953,-0.0017996963579207659,-0.02836393192410469,0.038873571902513504,-0.09082689136266708,-0.40007320046424866,-0.9119714498519897,0.0025395452976226807,-0.0029419362545013428,0.006240248680114746,0.5314059043523052,0.15018288682774383,0.14649021064719042,0.8207273846696166,0.41159671576850143,-0.09926666352428286,2.013125599618955
1780771388425250560,0.3708643913269043,-0.015143731608986855,-0.022109363228082657,0.04372958093881607,-0.09111751616001129,-0.399919718503952,-0.9120097756385803,-0.00014529377222061157,0.006532877683639526,0.005302011966705322,0.531272219444103,0.15023869389156985,0.1463675282957107,0.8208255645734913,0.4114292406757989,-0.09957804766014566,2.013520680823703
1780771388435285248,0.38089919090270996,-0.015852665528655052,-0.023349598050117493,0.051215194165706635,-0.09148015826940536,-0.39990103244781494,-0.9119816422462463,0.003742128610610962,0.004042267799377441,0.005640089511871338,0.531103642101395,0.15036092681591814,0.1462899813494982,0.8209261866397093,0.41140885780339687,-0.09997479193468208,2.014004064269826
1780771388445320448,0.3909342288970947,-0.018757641315460205,-0.015489012002944946,0.05395318940281868,-0.09192203730344772,-0.3998205363750458,-0.9119725227355957,0.0041839927434921265,-0.0022180378437042236,0.004227161407470703,0.5309023991164158,0.15049305184988662,0.1461696863870317,0.821053561135268,0.41132103402474757,-0.10045546611192346,2.0145871382550857
1780771388455354368,0.4009683132171631,-0.02599957585334778,-0.015905262902379036,0.05502244830131531,-0.09227567166090012,-0.3995944559574127,-0.9120358824729919,6.681680679321289e-05,0.00010409951210021973,0.0033292174339294434,0.530701784940759,0.15054241598756188,0.14601038431152302,0.8212025045431901,0.4110743912480673,-0.10083236382298126,2.0151629361002716
1780771388465389568,0.41100335121154785,-0.035841286182403564,-0.019454192370176315,0.06083026900887489,-0.09251954406499863,-0.3992704749107361,-0.9121530652046204,0.0027520880103111267,0.004052579402923584,0.007520496845245361,0.5305097488726973,0.1505156310032875,0.14583726507723785,0.8213622800694184,0.4107210086189547,-0.10108413611735692,2.015704246420752
1780771388475424512,0.4210383892059326,-0.03989621624350548,-0.025601299479603767,0.06254801154136658,-0.09279010444879532,-0.3989500403404236,-0.9122657775878906,0.0036787763237953186,0.001443326473236084,0.009906768798828125,0.5303159994633627,0.1505013884803208,0.14565863553275238,0.8215217024540954,0.4103715415817928,-0.1013652859230251,2.016254284259812
1780771388485458432,0.4310722351074219,-0.05351295694708824,-0.024548020213842392,0.061980489641427994,-0.0932721197605133,-0.39844614267349243,-0.912436842918396,0.004420183598995209,-0.0035466551780700684,0.005545973777770996,0.530114162276135,0.1505220892258216,0.14534331328752154,0.8217040338249152,0.40982208933749764,-0.10186924882285472,2.016879330025091
1780771388495493376,0.44110727310180664,-0.060644105076789856,-0.022458769381046295,0.06425829231739044,-0.09374911338090897,-0.3978593945503235,-0.9126439690589905,0.001189306378364563,-0.006345927715301514,0.0070043206214904785,0.5299112033575568,0.15051540146083808,0.14499357514211755,0.8218977995907718,0.4091824423981527,-0.10236351419577489,2.017511551490673
1780771388505528576,0.4511423110961914,-0.0578903965651989,-0.011256848461925983,0.06798005849123001,-0.09416449069976807,-0.3972315490245819,-0.9128746390342712,0.0004907920956611633,-0.002563953399658203,0.00616687536239624,0.5296956952070208,0.15046733110721267,0.14464528172013744,0.8221068886494982,0.40849821438453027,-0.10278807806553444,2.018165315707546
1780771388515562240,0.46117615699768066,-0.07210501283407211,-0.0030697593465447426,0.06224760413169861,-0.09447217732667923,-0.39660587906837463,-0.9131149053573608,-0.0013835355639457703,0.004836469888687134,5.9485435485839844e-05,0.5294860568814664,0.1503742325167463,0.14432654645636647,0.8223149809953431,0.4078165386022247,-0.10309463362774439,2.0187831799932945
1780771388525597440,0.47121119499206543,-0.0871068686246872,-0.0008269781246781349,0.06587403267621994,-0.0947607234120369,-0.39584001898765564,-0.9134172797203064,-0.0005761906504631042,-0.0012547075748443604,0.0066027045249938965,0.5292769305584725,0.1502304885095752,0.14395197170087637,0.8225415454607873,0.40698240509467576,-0.10337328349702402,2.019406342914749
1780771388535632384,0.4812462329864502,-0.13415266573429108,-0.009229784831404686,0.06934386491775513,-0.09509755671024323,-0.39478418231010437,-0.9138391017913818,0.004231452941894531,-0.01517370343208313,0.012349843978881836,0.5290737878532141,0.15002109617037798,0.14343679600216822,0.8228004529370755,0.40583293989589236,-0.10369055868025803,2.0200455791225784
1780771388545667328,0.49128127098083496,-0.19320401549339294,-0.01243649609386921,0.07326936721801758,-0.09550929814577103,-0.3932417035102844,-0.9144610166549683,0.004078634083271027,-0.013038814067840576,0.02145564556121826,0.5289179985082089,0.14970550090689863,0.14268063698715586,0.8230893756201288,0.4041546980367398,-0.10406597094330976,2.020619026389443
1780771388555701504,0.5013153553009033,-0.2883475720882416,-0.02471180446445942,0.08529700338840485,-0.09600955247879028,-0.39094340801239014,-0.915393590927124,0.004166901111602783,-0.014131665229797363,0.027118444442749023,0.5287795000175545,0.14920328414603268,0.1415682971259242,0.8234616929466486,0.4016563591440281,-0.10450128303976346,2.02122205507407
1780771388565736448,0.5113503932952881,-0.3477326035499573,-0.03938741981983185,0.09577866643667221,-0.09667626768350601,-0.3879430294036865,-0.9165990948677063,0.010204702615737915,-0.02746221423149109,0.0324133038520813,0.5286623108642401,0.1485666298378363,0.14010140580548883,0.8239028185626537,0.39839880116994497,-0.10508426821822,2.0218511609755128
1780771388575771392,0.5213851928710938,-0.42516347765922546,-0.050434213131666183,0.11034908890724182,-0.09750267118215561,-0.38427597284317017,-0.9180551171302795,0.011275246739387512,-0.041047483682632446,0.033869385719299316,0.5285501073573001,0.14780173119247084,0.13830069428408312,0.8244164662767887,0.3944234607210312,-0.10580903862618272,2.022538278224215
1780771388585805312,0.5314192771911621,-0.37965673208236694,-0.059414926916360855,0.11576010286808014,-0.09849961847066879,-0.3804108202457428,-0.9195572137832642,0.010456405580043793,-0.031118720769882202,0.01896822452545166,0.5284162095509715,0.14705121214575476,0.13637205408137085,0.8249575888252224,0.3902404625280444,-0.10670947410680158,2.023312787493782
1780771388595840512,0.5414543151855469,-0.3650389015674591,-0.08513413369655609,0.10588190704584122,-0.09952913224697113,-0.37681373953819275,-0.9209263920783997,0.008785121142864227,-0.010652661323547363,0.005734741687774658,0.5282923288508529,0.14640033970007324,0.1345502032923186,0.8254516923681858,0.3863540665656119,-0.10765716523310366,2.0240398736754024
1780771388605875456,0.5514893531799316,-0.29574131965637207,-0.09605922549962997,0.14615608751773834,-0.10087962448596954,-0.3737560510635376,-0.9220247864723206,0.013034768402576447,-0.017082542181015015,-0.010485589504241943,0.5280689710778071,0.1460377568098458,0.13289311382045435,0.8259270992577075,0.383055279683844,-0.10897749689319279,2.0250187259320316
1780771388615909376,0.5615231990814209,-0.2700977325439453,-0.06825023144483566,0.14575980603694916,-0.10221122950315475,-0.37096887826919556,-0.9230031967163086,0.013649225234985352,-0.0019711554050445557,-0.006836831569671631,0.5277206913783664,0.1457303815326783,0.13138129590358824,0.8264456615043482,0.3800521291415203,-0.11028831945491588,2.0262698771411256
1780771388625944320,0.5715582370758057,-0.22768741846084595,-0.050529155880212784,0.12669530510902405,-0.10326767712831497,-0.3685567080974579,-0.9238516092300415,-0.003314964473247528,0.042323797941207886,-0.009238600730895996,0.52736924115138,0.1454167522302049,0.13010832766422362,0.8269265253917204,0.3774559465861329,-0.11131742252224237,2.027450275961541
1780771388635979520,0.5815932750701904,-0.21637457609176636,-0.04828544333577156,0.13337397575378418,-0.10420219600200653,-0.3663594424724579,-0.9246202707290649,-0.0026703551411628723,0.021205633878707886,-0.009766936302185059,0.5270292089451326,0.14511771492092163,0.12896011591169637,0.8273755290050716,0.3750934003688229,-0.1122237795485565,2.0285630651895876
1780771388646014464,0.5916283130645752,-0.24144211411476135,-0.0653923898935318,0.16474440693855286,-0.10528593510389328,-0.3641057312488556,-0.925387442111969,0.00924711674451828,0.006134539842605591,-0.004452645778656006,0.5266024054828259,0.14485550926603094,0.12776216377925073,0.8278789616354629,0.3726724482151281,-0.11328782463680609,2.0299085701593036
1780771388656047360,0.601661205291748,-0.33890342712402344,-0.07506472617387772,0.172575443983078,-0.10657943040132523,-0.36127999424934387,-0.9263463616371155,0.013058312237262726,-0.007418155670166016,0.0069890618324279785,0.5261352573011813,0.1445116648927387,0.12626637094064308,0.8284653250561408,0.36964022883362274,-0.11454986679524297,2.0314118314807965
1780771388666082304,0.6116962432861328,-0.45429953932762146,-0.0911404937505722,0.17492221295833588,-0.10799459367990494,-0.3574011027812958,-0.9276861548423767,0.005791224539279938,-0.012502461671829224,0.02760070562362671,0.5257531310751311,0.14392610251823354,0.1242666198643089,0.8291120242574408,0.3654837077154292,-0.11589121620712742,2.0327774847852527
1780771388676117248,0.6217310428619385,-0.5109044909477234,-0.07827183604240417,0.17642396688461304,-0.10940299928188324,-0.35265472531318665,-0.9293361306190491,0.0014470741152763367,-0.012610167264938354,0.023131906986236572,0.5254328099742082,0.1430960161287806,0.12188301176961919,0.8298122945485803,0.3604065863574125,-0.1171823363407925,2.0340235549473964
1780771388686151168,0.6317651271820068,-0.6256928443908691,-0.07285802811384201,0.18911553919315338,-0.11072634905576706,-0.3472069501876831,-0.931228756904602,-0.004111297428607941,-0.022193074226379395,0.0037995576858520508,0.5251118466728982,0.14202881719437352,0.11922008759594592,0.8305853583675521,0.35459111575794044,-0.11834784223996762,2.0352745877665552
1780771388696186368,0.6418001651763916,-0.8350708484649658,-0.08589500188827515,0.22857798635959625,-0.11224664747714996,-0.340218722820282,-0.9336230158805847,0.008578434586524963,-0.05374795198440552,0.027418792247772217,0.5247622887635832,0.14060133891425874,0.1158436857076537,0.8315263844541734,0.3471494861946505,-0.11965265253953987,2.0366733014052305
1780771388706221312,0.6518352031707764,-1.0813770294189453,-0.11929649859666824,0.2736109793186188,-0.11408799886703491,-0.3309527635574341,-0.9367252588272095,0.022642076015472412,-0.10186278820037842,0.06291544437408447,0.5244393508715548,0.13866778120548295,0.11139398852003259,0.8326619938462415,0.3373130571943307,-0.12119759225989006,2.038117338702237
1780771388716255232,0.6618690490722656,-1.4290471076965332,-0.1530640423297882,0.33350813388824463,-0.11634638905525208,-0.3188389241695404,-0.9406408667564392,0.028547316789627075,-0.1421443521976471,0.08819335699081421,0.524108558733692,0.13611190133703893,0.10560830874170578,0.8340447152292735,0.32450422854259886,-0.12306338900790388,2.039689538245331
1780771388726290176,0.6719040870666504,-1.832101583480835,-0.1877192258834839,0.49077337980270386,-0.11920318007469177,-0.30296117067337036,-0.945518434047699,0.03970488905906677,-0.17878931760787964,0.11960595846176147,0.5236143827746582,0.1327495320147191,0.09807312377189652,0.8358152997887962,0.3077983181517042,-0.12541013527650166,2.0417585311313564
1780771388736325376,0.6819391250610352,-2.355729103088379,-0.25274351239204407,0.8026426434516907,-0.12305887043476105,-0.2823109030723572,-0.9513974189758301,0.07232340425252914,-0.21779590845108032,0.11481910943984985,0.5224046472893106,0.12844338174087572,0.08833787618498788,0.8383269789297415,0.2862021329991029,-0.12863121727554974,2.0456138978786202
1780771388746360320,0.6919741630554199,-2.876194477081299,-0.4116833508014679,1.0641142129898071,-0.1287914216518402,-0.2560441493988037,-0.9580470323562622,0.11623343825340271,-0.2930280864238739,0.1332331895828247,0.5202752207449257,0.1233922657348819,0.07583417416426437,0.8416277272562027,0.25892772024405486,-0.133630072730614,2.0516595125279236
1780771388756394496,0.7020082473754883,-3.462918519973755,-0.5596882700920105,1.4326075315475464,-0.13644930720329285,-0.2239658534526825,-0.9649978876113892,0.13416048884391785,-0.3940761387348175,0.15886080265045166,0.5170930172548933,0.11765851351552106,0.060477621422168976,0.8456439190427227,0.2258818086016688,-0.14046734557117457,2.059917178628908
1780771388766429184,0.712043046951294,-4.26287841796875,-0.652494490146637,1.817953109741211,-0.14572735130786896,-0.18424929678440094,-0.9720163345336914,0.17671795189380646,-0.45181334018707275,0.1616525650024414,0.512498012881151,0.11073378050664948,0.0415916691942823,0.8505022037915642,0.18530802888621264,-0.1488143890545814,2.070812961240654
1780771388776464128,0.7220780849456787,-5.219854831695557,-0.7110739350318909,1.9718859195709229,-0.1555132120847702,-0.13497477769851685,-0.9785690903663635,0.2340196818113327,-0.5394942164421082,0.16388708353042603,0.5069214944661672,0.10184262803262564,0.018534729057852677,0.8557542118504727,0.1353880088162001,-0.15760105777179048,2.0827219901561222
1780771388786498304,0.7321121692657471,-6.194709300994873,-0.7785600423812866,1.8284927606582642,-0.16488631069660187,-0.0755995512008667,-0.9834110140800476,0.2866056561470032,-0.6522446870803833,0.2083255648612976,0.5014390823200227,0.09063904360044418,-0.008891571298333492,0.860386125490786,0.07567174661828015,-0.1661225488467904,2.092532118736634
1780771388796533248,0.7421472072601318,-7.058607578277588,-0.7848948836326599,1.5836015939712524,-0.17292314767837524,-0.00722334673628211,-0.9849088191986084,0.32462602853775024,-0.646981954574585,0.2346799373626709,0.4968985812557245,0.07703113614464648,-0.04014705821117338,0.8634502871868476,0.007223409457877528,-0.17380133623207333,2.0978318754525165
1780771388806568448,0.7521822452545166,-7.47360372543335,-0.924833357334137,1.392890214920044,-0.18125174939632416,0.06756211072206497,-0.9811132550239563,0.43553948402404785,-0.5210533142089844,0.1471899151802063,0.49252196442074897,0.06232916623901552,-0.07455509360421247,0.8648575860094344,-0.06761361506823388,-0.18268123520887122,2.1000402158334928
1780771388816602112,0.7622160911560059,-7.608831882476807,-1.3085180521011353,0.863818347454071,-0.19041454792022705,0.1433493196964264,-0.9711813926696777,0.47756969928741455,-0.4433065950870514,0.10465002059936523,0.4893625118361393,0.04785272272598514,-0.11008825574625104,0.8637795902594145,-0.14384486402958244,-0.1936089226558156,2.0966997239552665
1780771388826637312,0.7722511291503906,-8.27728271484375,-2.0125584602355957,0.9809665679931641,-0.20456932485103607,0.2220875471830368,-0.9533249735832214,0.45627832412719727,-0.2235981673002243,0.07905739545822144,0.48607992096568164,0.034848842997540874,-0.1487382655480664,0.8604584318226804,-0.22395496214938806,-0.21137955324988655,2.0893019027205373
1780771388836672256,0.7822861671447754,-8.132353782653809,-2.6977460384368896,1.048287034034729,-0.22429536283016205,0.3019636571407318,-0.9265578985214233,0.5478732585906982,-0.2021864354610443,-0.0004898309707641602,0.4806590432061858,0.024287383020672848,-0.19008200922481278,0.8557136930963242,-0.30675179262005314,-0.2375048827730092,2.0811361153793335
1780771388846707456,0.7923212051391602,-8.380916595458984,-3.3085291385650635,1.0677273273468018,-0.24807095527648926,0.3794099986553192,-0.8913522958755493,0.38691067695617676,-0.2237398326396942,-0.15894067287445068,0.4739365234864102,0.016302552504749254,-0.23250395766222245,0.8491527271381769,-0.38915852128258954,-0.2714395237477732,2.0696562069615343
1780771388856741120,0.8023550510406494,-8.541812896728516,-3.263007164001465,0.7581193447113037,-0.2732282280921936,0.4560571610927582,-0.8469700217247009,0.351139634847641,-0.10396063327789307,-0.2607417702674866,0.4661009606242458,0.009229304764984136,-0.27645943235729836,0.8403777795493816,-0.47355973058290923,-0.312055049300725,2.052925051394105
1780771388866776320,0.8123900890350342,-8.455164909362793,-2.9964635372161865,0.1708688884973526,-0.2966160178184509,0.5274703502655029,-0.7961117625236511,0.3610233664512634,-0.00688624382019043,-0.3097537159919739,0.4598449435433848,0.001795615942615776,-0.31928184290520617,0.8286123436931652,-0.5556202416614734,-0.3566481136471497,2.025596942297108
1780771388876811264,0.822425127029419,-7.961935043334961,-3.526707649230957,-0.2409498244524002,-0.3215411901473999,0.5909430980682373,-0.7398632168769836,0.5721515417098999,0.1574242115020752,-0.25218701362609863,0.4544437634006091,-0.00382481346043903,-0.3606296878303464,0.8145014079762863,-0.6322274084004063,-0.4099699415437011,1.9879587779391292
1780771388886845440,0.8324592113494873,-7.246892929077148,-4.4870758056640625,-0.6206856966018677,-0.3527281880378723,0.6434952616691589,-0.6793354749679565,0.8508666157722473,0.28317099809646606,-0.12362778186798096,0.4484495944160303,-0.0039956966848835925,-0.4003951930272161,0.7990998846905495,-0.6990558079502693,-0.47890934951895137,1.941293321014649
1780771388896880384,0.8424942493438721,-6.754251956939697,-5.282211780548096,-0.7673336863517761,-0.3893509805202484,0.6864045262336731,-0.6142105460166931,0.9191666841506958,0.2676360011100769,-0.01631307601928711,0.44076364735738616,0.0013975326517023311,-0.43919558427386074,0.7828363142527635,-0.7565333278636378,-0.5649770906393334,1.8863236600987463
1780771388906915072,0.8525290489196777,-6.385180950164795,-5.467165946960449,-0.9447862505912781,-0.42686331272125244,0.7210193276405334,-0.5458195805549622,0.7821642160415649,0.10344356298446655,0.03895312547683716,0.4318390342257048,0.01004047496441267,-0.4764340497779614,0.7657838929139381,-0.8052722339393651,-0.6637053984491554,1.8232124161166494
1780771388916949248,0.8625631332397461,-6.2514262199401855,-5.2834014892578125,-1.11448073387146,-0.46211615204811096,0.7487496137619019,-0.4752079248428345,0.5718116164207458,-0.07469266653060913,0.08732953667640686,0.4228711767665672,0.019533337661916197,-0.5118735003571455,0.7475184517210031,-0.846173675486088,-0.7714318885772294,1.7502757962964426
1780771388926984192,0.8725981712341309,-6.086121082305908,-4.9649505615234375,-1.246567964553833,-0.4937357008457184,0.7703129649162292,-0.4035380780696869,0.4737619459629059,-0.15271347761154175,0.151813805103302,0.4144004819530379,0.028671075820959208,-0.5453521196716208,0.728039352380727,-0.8793318475197158,-0.8855856961821899,1.6677490682654514
1780771388937019392,0.8826332092285156,-5.810448169708252,-4.721848487854004,-1.3242698907852173,-0.5216630697250366,0.7857281565666199,-0.33241352438926697,0.5083879828453064,-0.18514233827590942,0.18072590231895447,0.40643352197916705,0.0374513740152669,-0.5765332922242926,0.7078265632391894,-0.9038724276288834,-1.0034586682623374,1.5786242746636228
1780771388947054336,0.8926682472229004,-5.542354106903076,-4.611003398895264,-1.3218613862991333,-0.5460937023162842,0.7955443859100342,-0.2624705731868744,0.6266295909881592,-0.20612788200378418,0.1931498646736145,0.39845445470171403,0.046240244545166016,-0.6054969488928141,0.68736401212726,-0.9199054916047127,-1.1227621176300695,1.4868795748115906
1780771388957088256,0.9027020931243896,-5.320881366729736,-4.579747676849365,-1.288049340248108,-0.5670239329338074,0.8006994724273682,-0.19329781830310822,0.7519147396087646,-0.2502387762069702,0.2156672179698944,0.3899952816694189,0.05513533500487573,-0.6327014987880911,0.6667476767699483,-0.9284619053746672,-1.2422523037786386,1.3949266697602525
1780771388967123200,0.9127371311187744,-5.0201921463012695,-4.5178303718566895,-1.228956937789917,-0.5844387412071228,0.8016986846923828,-0.12534169852733612,0.8033566474914551,-0.3112049698829651,0.2743895649909973,0.38094481416241216,0.06420375065923375,-0.6581846461532485,0.6461825599172769,-0.9301317647539459,-1.3595315118730706,1.305620614865781
1780771388977158400,0.9227721691131592,-4.1906256675720215,-4.361485481262207,-1.0831166505813599,-0.597906768321991,0.7992005348205566,-0.061529871076345444,0.7733218669891357,-0.3349977135658264,0.40338778495788574,0.3713111646310887,0.07350042615219646,-0.6810526787100368,0.6268117192711777,-0.9259639711570878,-1.4682485069186155,1.2255638089941931
1780771388987192320,0.9328062534332275,-3.0513839721679688,-4.132589340209961,-0.8609427213668823,-0.6071549654006958,0.7945534586906433,-0.0068766712211072445,0.7080461978912354,-0.24587810039520264,0.5544230341911316,0.361038229709347,0.0834188972086044,-0.6997163367473883,0.6108105987339514,-0.9182718546430017,-1.559470755126681,1.164617727322144
1780771388997227264,0.9428410530090332,-1.7993109226226807,-3.7378456592559814,-0.5613980889320374,-0.6122156381607056,0.7898435592651367,0.03659609332680702,0.6249567270278931,0.00043964385986328125,0.6553747653961182,0.350268015997244,0.0935944006924744,-0.7138193997949784,0.5991780226731782,-0.9105538520967406,-1.6305017601099108,1.1249866646218585
1780771389007262208,0.952876091003418,-0.5336747765541077,-3.22818660736084,-0.23500698804855347,-0.6135106086730957,0.7868169546127319,0.06725940108299255,0.521271288394928,0.2050958275794983,0.6208661794662476,0.3394709179465691,0.10339601081727176,-0.7231451896487311,0.592562072437464,-0.9056345469408633,-1.6799906331045826,1.106524123750709
1780771389017296384,0.9629101753234863,0.7069071531295776,-2.76531720161438,0.11665492504835129,-0.6116822361946106,0.78654944896698,0.08476366847753525,0.4198487401008606,0.24303734302520752,0.4873340129852295,0.32869309569370286,0.11267585178770877,-0.7277952919175759,0.5912520896083613,-0.9052012127379424,-1.7084940720053639,1.108445321164052
1780771389027331328,0.9729452133178711,1.3169074058532715,-2.377983570098877,0.5112041234970093,-0.6069357395172119,0.7893935441970825,0.09212492406368256,0.3470938205718994,0.14381885528564453,0.44571685791015625,0.31775951731895374,0.12088577655768523,-0.7290055487860495,0.5941098429533664,-0.9098204553239398,-1.7214334334761685,1.1247357849310105
1780771389037366272,0.9829802513122559,1.3770772218704224,-2.0029144287109375,0.9663151502609253,-0.5989854335784912,0.7951754927635193,0.09440746903419495,0.29522866010665894,-0.024591267108917236,0.48272573947906494,0.3066933275298706,0.12686117310335374,-0.7287729249742251,0.5989454353345853,-0.9192969193344535,-1.7271226183302313,1.1452200523945297
1780771389047401216,0.9930150508880615,1.0595850944519043,-1.8068164587020874,1.3670588731765747,-0.5877816081047058,0.8033374547958374,0.09571865946054459,0.26511919498443604,-0.26636528968811035,0.4744565486907959,0.29543686074851094,0.13016404795779876,-0.7286402761876104,0.6040346806017762,-0.932878491549777,-1.7322266076351591,1.1625948459449102
1780771389057435392,1.0030491352081299,0.5646365880966187,-1.688859462738037,1.6946489810943604,-0.5735999345779419,0.8130913972854614,0.09932545572519302,0.26634901762008667,-0.4382439851760864,0.5205169916152954,0.28381079590568337,0.131061197131594,-0.7297161722224113,0.6081025593905176,-0.9494429955835684,-1.742257620436909,1.1719635438102958
1780771389067470336,1.0130841732025146,0.13180390000343323,-1.5014848709106445,1.988537073135376,-0.5567961931228638,0.8238955736160278,0.1057085245847702,0.2595091462135315,-0.4249849319458008,0.6362348794937134,0.2720807408411008,0.129648771987906,-0.7321512543457148,0.6108337802673003,-0.9682506924099042,-1.758414823688555,1.1718555986792585
1780771389077505280,1.0231192111968994,0.05334398150444031,-1.248692512512207,2.220440149307251,-0.5376970171928406,0.8355729579925537,0.11269313097000122,0.21894091367721558,-0.2483689785003662,0.733452558517456,0.26047451623578133,0.12620127185701346,-0.7351325084057176,0.6130305766045928,-0.9891749190724486,-1.777390831963533,1.1656623021051893
1780771389087539200,1.0331530570983887,0.25068554282188416,-0.9634407758712769,2.3893768787384033,-0.5169211030006409,0.8479519486427307,0.11734458804130554,0.15521162748336792,-0.007665872573852539,0.7845871448516846,0.24918701714296793,0.12126068509213708,-0.7375419576239503,0.6158192868436018,-1.0121095530326387,-1.7940200136845381,1.1590823854897676
1780771389097574144,1.0431880950927734,0.6224391460418701,-0.6564475297927856,2.51432466506958,-0.49488571286201477,0.8609395623207092,0.11777597665786743,0.07568100094795227,0.18781226873397827,0.7823399305343628,0.2382960307539525,0.11521056539576041,-0.7386572359480427,0.6199411422511802,-1.0371137919651368,-1.8044363219204043,1.1564548867113384
1780771389107609344,1.0532231330871582,1.037129521369934,-0.285399466753006,2.578747272491455,-0.4721364676952362,0.8742683529853821,0.112881600856781,-0.021287083625793457,0.31054621934890747,0.7315855026245117,0.22811220485080458,0.10820810117759455,-0.7380594885929298,0.6257188745680247,-1.0639265393982835,-1.8054776824152625,1.160725274673674
1780771389117643264,1.0632572174072266,1.4456909894943237,-0.05259869620203972,2.6890671253204346,-0.4486866593360901,0.8877854943275452,0.10255412757396698,-0.11018174886703491,0.35661453008651733,0.603469967842102,0.21858925700267137,0.10033788566138128,-0.7356693362901087,0.633199609818602,-1.0925111885794299,-1.795501520870219,1.1737469164293775
1780771389127678464,1.0732922554016113,1.6949745416641235,-0.05310776084661484,2.747852325439453,-0.42415449023246765,0.9012537598609924,0.08851256221532822,-0.15380266308784485,0.3230808973312378,0.4583929777145386,0.20891893602319522,0.09215257762019258,-0.7319591414808845,0.641947454558314,-1.1226544765491977,-1.7765239591114932,1.1954987687685221
1780771389137713152,1.083327054977417,1.7710120677947998,0.009822470135986805,2.69783878326416,-0.39927148818969727,0.9139351844787598,0.07283531129360199,-0.21201086044311523,0.29358434677124023,0.4153848886489868,0.1991992633804676,0.08402122633285161,-0.7275699884870551,0.6510776346378563,-1.1528764628954544,-1.751232817563651,1.2236589344615973
1780771389147748352,1.0933620929718018,1.7763053178787231,0.0920502319931984,2.639112949371338,-0.37464889883995056,0.9254615902900696,0.056206103414297104,-0.30503860116004944,0.2934257388114929,0.4126507043838501,0.18988791036850924,0.07586644503479313,-0.7227360065411237,0.6601814708972589,-1.1822522335834749,-1.7197091674792488,1.2573559826156941
1780771389157782272,1.1033961772918701,1.7101385593414307,0.20092371106147766,2.504371166229248,-0.35062888264656067,0.9356867671012878,0.03936810418963432,-0.3804197311401367,0.3071722388267517,0.4339900016784668,0.18117932253082547,0.06768984923618641,-0.71770616325544,0.6689469995042396,-1.2102005104308726,-1.6826066104096504,1.2956622191048526
1780771389167817472,1.1134312152862549,1.5791709423065186,0.3510109484195709,2.313047409057617,-0.3279531002044678,0.9444167613983154,0.022888746112585068,-0.45546361804008484,0.33643651008605957,0.45771729946136475,0.1734875083126438,0.05957450829905172,-0.7126677004794439,0.6770951208625856,-1.2358160066350605,-1.6404760788102835,1.3375512005044083
1780771389177852416,1.1234662532806396,1.363266110420227,0.4768977761268616,2.0753023624420166,-0.30706581473350525,0.951659083366394,0.007459437474608421,-0.5330830812454224,0.36059677600860596,0.4519674777984619,0.16703482188013496,0.05157278688901204,-0.7078629573932511,0.6843753926043817,-1.2585928739021877,-1.595084184027893,1.3810220287578843
1780771389187886336,1.133500099182129,1.0962650775909424,0.6263391971588135,1.7914156913757324,-0.2885633111000061,0.9574432969093323,-0.005782818887382746,-0.6037706136703491,0.40390002727508545,0.4113308787345886,0.1620191813089193,0.04384409280871256,-0.7036947393390838,0.6903920360582841,-1.2780097200048863,-1.5507589747284438,1.421700173494768
1780771389197921280,1.1435351371765137,1.05169677734375,0.7524073719978333,1.6371015310287476,-0.2719714045524597,0.9621350765228271,-0.0180955957621336,-0.6521313190460205,0.4384690523147583,0.30628836154937744,0.1582998811475154,0.036246853792154615,-0.699741643811487,0.6956930504743091,-1.2947298511065055,-1.5043593307103573,1.462744560003542
1780771389207956224,1.1535701751708984,0.990283727645874,0.768083393573761,1.4130325317382812,-0.25691744685173035,0.965969979763031,-0.029919052496552467,-0.6674599647521973,0.39258086681365967,0.17211568355560303,0.15543421126598278,0.028977144508256284,-0.6958453845848955,0.700570898776017,-1.3091675661021356,-1.4548645639105413,1.5061030576102432
1780771389217990400,1.1636042594909668,0.8801793456077576,0.7055329084396362,1.1106153726577759,-0.244445338845253,0.9688006639480591,-0.04088917374610901,-0.7110295295715332,0.29316234588623047,0.0388445220887661,0.1534316255772546,0.022738465379260848,-0.692125982379928,0.7049137477216955,-1.3203449106715213,-1.4050574925740429,1.54997853935885
1780771389228025088,1.1736390590667725,0.5290769934654236,0.591939389705658,0.9102785587310791,-0.23430092632770538,0.9709095358848572,-0.049372900277376175,-0.7436806559562683,0.20253711938858032,-0.07346034049987793,0.1520579753352366,0.017439259507617346,-0.6892092728570609,0.7082124050961525,-1.3290005853992768,-1.3631105231161864,1.586407452424517
1780771389238060288,1.1836740970611572,0.3040350377559662,0.40268027782440186,0.6498533487319946,-0.22636562585830688,0.9725204110145569,-0.05442879721522331,-0.7546524405479431,0.21397238969802856,-0.1272728443145752,0.15093792513469187,0.013260556591964541,-0.6874661870883579,0.710233827238502,-1.3358225226041813,-1.334829312275982,1.6103907752731133
1780771389248095232,1.193709135055542,0.3499716520309448,0.3241945207118988,0.38520780205726624,-0.22111275792121887,0.9735137224197388,-0.058137696236371994,-0.7882255911827087,0.2916839122772217,-0.164137065410614,0.15030123731588196,0.01043308341062208,-0.6861649235323313,0.7116728708732593,-1.3401275506877162,-1.3136835618627,1.6284513035681307
1780771389258129408,1.2037432193756104,0.7358317375183105,0.360604465007782,0.11396939307451248,-0.21847306191921234,0.9737288355827332,-0.0641992911696434,-0.805528998374939,0.38668370246887207,-0.2489416003227234,0.1505211954496715,0.008803718996866635,-0.6839757671895903,0.713752729933383,-1.341070437319027,-1.2849871071636028,1.6545131502407948
1780771389268164352,1.2137782573699951,1.1033157110214233,0.4992204010486603,-0.09935353696346283,-0.21814405918121338,0.9731106758117676,-0.07395070791244507,-0.8178819417953491,0.4577670097351074,-0.33174997568130493,0.15193038035347933,0.007946651135860018,-0.6804127392470126,0.7168629521302256,-1.3383713581291108,-1.2439549801148742,1.6922702509117002
1780771389278199296,1.2238130569458008,1.705757737159729,0.5291061401367188,-0.28818339109420776,-0.21962952613830566,0.9715314507484436,-0.08882304280996323,-0.7931268215179443,0.4186357855796814,-0.3979475498199463,0.1543700675467571,0.007797638737119884,-0.6749279036825282,0.7215132631285797,-1.3316115142505025,-1.1864835900951243,1.7459519727127208
1780771389288233216,1.2338471412658691,2.113173723220825,0.5005128383636475,-0.46076181530952454,-0.22277885675430298,0.9688007831573486,-0.1086031123995781,-0.7239221930503845,0.25965380668640137,-0.4672178030014038,0.15737299165804927,0.008705784604671233,-0.6675497386037182,0.7276917754922198,-1.320345545895018,-1.1172043611115479,1.8120834635675764
1780771389298268416,1.243882179260254,2.4925341606140137,0.48773282766342163,-0.6281419992446899,-0.2274903804063797,0.9647829532623291,-0.13206811249256134,-0.639803946018219,0.1189572811126709,-0.3960232734680176,0.16092098848296907,0.010545495114915442,-0.6586765058122116,0.7349411452348259,-1.3046169803900305,-1.0448058016899537,1.881812629862376
1780771389308303360,1.2539172172546387,2.789090156555176,0.4681788384914398,-0.7376919388771057,-0.23342230916023254,0.9593636393547058,-0.15854206681251526,-0.5632085204124451,0.04428321123123169,-0.32328468561172485,0.16484997839479498,0.013196776988020005,-0.6485019736279971,0.7430313826872598,-1.2847383567539363,-0.9741621204426779,1.9503224997089739
1780771389318337280,1.263951063156128,3.3051917552948,0.501370906829834,-0.8567325472831726,-0.24028326570987701,0.9521529078483582,-0.18886145949363708,-0.4898802936077118,0.04165196418762207,-0.2752193212509155,0.16918869618179005,0.016526500751412203,-0.6366287329273357,0.7522006535018494,-1.26020463880971,-0.9046534930617374,2.017974736800919
1780771389328372224,1.2739861011505127,3.749422788619995,0.5278800129890442,-0.9596908688545227,-0.24791131913661957,0.9426032900810242,-0.22369399666786194,-0.42985355854034424,0.02385789155960083,-0.2625272870063782,0.17395869618062593,0.02050141060107021,-0.622681854934197,0.762617425924112,-1.2303426388737293,-0.8367039068115332,2.084237111191583
1780771389338407168,1.2840211391448975,4.0174784660339355,0.5596309900283813,-1.0375369787216187,-0.25602397322654724,0.9305790066719055,-0.26167604327201843,-0.37668171525001526,-0.00023543834686279297,-0.2355315387248993,0.179056898821462,0.02495603977918096,-0.6070742709762728,0.7738065428924188,-1.1959912073245405,-0.7744809138548567,2.144838912694586
1780771389348442368,1.2940561771392822,4.026712417602539,0.5257251262664795,-1.0216295719146729,-0.26413026452064514,0.9164677262306213,-0.3005366027355194,-0.32090693712234497,-0.06194502115249634,-0.2187962532043457,0.1841969717010284,0.029642385530167112,-0.5906378189462003,0.7850731816663322,-1.1591610197455644,-0.721013312501866,2.1968275425067403
1780771389358476288,1.3040902614593506,3.856492280960083,0.43903785943984985,-0.9945242404937744,-0.27181172370910645,0.9011133313179016,-0.33780646324157715,-0.25717997550964355,-0.1336420178413391,-0.19405388832092285,0.18900129075514488,0.034367001034979194,-0.5743828724696755,0.7957271939297568,-1.1223304370826077,-0.6775622704128537,2.2392562966861345
1780771389368511232,1.3141250610351562,3.7160232067108154,0.3098234534263611,-1.049336314201355,-0.2796747386455536,0.8847876787185669,-0.3727369010448456,-0.2223699390888214,-0.2039405107498169,-0.1833391785621643,0.1934718735828045,0.03942125194813104,-0.5586389902672649,0.8055663014912723,-1.0860381936274082,-0.6437106620600753,2.2729879690403796
1780771389378546176,1.324160099029541,3.590272903442383,0.23973596096038818,-1.0735732316970825,-0.28804826736450195,0.8674764037132263,-0.40560182929039,-0.21913859248161316,-0.2308797836303711,-0.15819516777992249,0.19779978022332487,0.04487450662215534,-0.5433096387893933,0.8146632090771394,-1.0501069032961923,-0.6175222205211229,2.299789466719469
1780771389388580352,1.3341941833496094,3.4694745540618896,0.17705179750919342,-1.0367825031280518,-0.2963307201862335,0.849435031414032,-0.43663302063941956,-0.2075755000114441,-0.20148581266403198,-0.12243378162384033,0.20187588903793152,0.05042471486727804,-0.5283378069722927,0.8231420153478438,-1.0149137211098784,-0.5962682002211046,2.3221295701178963
1780771389398615296,1.3442292213439941,3.2937326431274414,0.11422224342823029,-1.0164508819580078,-0.30434131622314453,0.8310302495956421,-0.46558043360710144,-0.17974376678466797,-0.1806396245956421,-0.11413145065307617,0.20559815229910647,0.05597903669974329,-0.5138833812804195,0.8309751137055811,-0.9809573032448982,-0.5789589214465294,2.3410396535427065
1780771389408650496,1.354264259338379,3.0805115699768066,0.0936150997877121,-1.0571037530899048,-0.31244996190071106,0.8124623894691467,-0.4922194182872772,-0.15658995509147644,-0.17641502618789673,-0.10352951288223267,0.209263479407308,0.061538033960694155,-0.5001033472916427,0.8380444848205106,-0.9483633048923846,-0.5655996489142215,2.356092627010631
1780771389418685184,1.3642990589141846,2.779693603515625,0.1106601357460022,-1.1163265705108643,-0.3207353949546814,0.7941827774047852,-0.5161418914794922,-0.13635686039924622,-0.15844064950942993,-0.08351320028305054,0.21318918326659758,0.06690910259513502,-0.48729071129798857,0.8441689556630129,-0.9176615861719346,-0.5560131189677013,2.366728185056414
1780771389428719360,1.374333143234253,2.755572557449341,0.06176755949854851,-1.136229395866394,-0.32922497391700745,0.7759532928466797,-0.5380588173866272,-0.11210498213768005,-0.12562376260757446,-0.05251729488372803,0.21726934438826387,0.07224645317308778,-0.47513265552616535,0.8496018799253424,-0.8882249968793479,-0.5491056987067549,2.374408852447457
1780771389438754304,1.3843681812286377,2.9820027351379395,-0.0004673185758292675,-1.100588321685791,-0.3377675414085388,0.7563919425010681,-0.5601645112037659,-0.07106119394302368,-0.08364719152450562,-0.01175016164779663,0.22105546940706464,0.07795623133599822,-0.4624289883136546,0.8551120957879298,-0.8577794720326298,-0.5426072051883646,2.3826118472262086
1780771389448789248,1.3944032192230225,3.2580201625823975,0.07522530853748322,-1.0027151107788086,-0.3455231785774231,0.7348914742469788,-0.5835651755332947,-0.027157485485076904,-0.00893932580947876,0.05646556615829468,0.22443071380787882,0.08372360800113927,-0.4485618989010334,0.8610536906375298,-0.8255066205128622,-0.5345831258857994,2.392947670702077
1780771389458823168,1.4044370651245117,3.4279556274414062,0.13676191866397858,-0.9938336610794067,-0.3520490825176239,0.711277425289154,-0.6083961725234985,0.0215131938457489,0.07075077295303345,0.13262712955474854,0.22748516286760817,0.08926635314306984,-0.43339754574442185,0.8674379604864549,-0.7913138760928994,-0.5245737944280912,2.405305518473376
1780771389468858368,1.4144721031188965,3.3402602672576904,0.07907358556985855,-1.2062671184539795,-0.35908055305480957,0.686292827129364,-0.6325056552886963,0.05250096321105957,0.246110737323761,0.1254866123199463,0.23097513060146957,0.0950195506540762,-0.4179933704145781,0.8734434305100773,-0.7563797112576971,-0.5163393092623537,2.4154768747901736
1780771389478893312,1.4245071411132812,3.339257001876831,0.049948714673519135,-1.2449703216552734,-0.36713331937789917,0.6601583957672119,-0.6552892327308655,0.07019731402397156,0.4015480875968933,0.11492973566055298,0.23492915143703827,0.10123937663424853,-0.4026238664091438,0.8788929533323626,-0.7210296197795931,-0.5106873637415373,2.4230141195530916
1780771389488927488,1.4345412254333496,3.190305233001709,-0.009799832478165627,-1.061934232711792,-0.37454453110694885,0.633898138999939,-0.6766753792762756,0.10182419419288635,0.34815752506256104,0.08585512638092041,0.238408494883392,0.10734325211501193,-0.3874786735951753,0.8840244634893634,-0.6865830557007765,-0.5055316941178403,2.4306287804078845
1780771389498962432,1.4445762634277344,2.6193792819976807,-0.23578289151191711,-0.8802016377449036,-0.38141363859176636,0.609915554523468,-0.6946413516998291,0.13022348284721375,0.1701747179031372,0.015396416187286377,0.24086402099593177,0.1132700047049563,-0.3739642221595932,0.888428436445061,-0.6559540341226531,-0.5021365756416923,2.437993781416245
1780771389508997120,1.45461106300354,1.4351218938827515,-0.5715884566307068,-0.7951951622962952,-0.389256089925766,0.5923132300376892,-0.7054393291473389,0.16034376621246338,-0.045819759368896484,-0.03654974699020386,0.24265669501181683,0.11908302828541054,-0.3648281269201112,0.890975473504767,-0.6339268845604747,-0.504218317578882,2.441201612271524
1780771389519032320,1.4646461009979248,0.15066654980182648,-0.9638358354568481,-0.7979739308357239,-0.3994233310222626,0.5835306644439697,-0.7070735692977905,0.17592784762382507,-0.18574929237365723,-0.11139261722564697,0.24432152355402612,0.12495579281149284,-0.3617309485326981,0.8909791441651539,-0.6230695778216805,-0.5142080341786918,2.4373863641208007
1780771389529066240,1.4746801853179932,-0.9487664699554443,-1.2746332883834839,-0.8331292271614075,-0.41220223903656006,0.5832103490829468,-0.6999678611755371,0.17585885524749756,-0.17929494380950928,-0.1449570655822754,0.24620546140782115,0.13096538129635354,-0.36450534126916645,0.8884631838988122,-0.6226752017236536,-0.5322084021955455,2.425953075152467
1780771389539101440,1.484715223312378,-1.561374545097351,-1.4211359024047852,-0.8245237469673157,-0.42658859491348267,0.5886144638061523,-0.6866987943649292,0.14893969893455505,-0.03905385732650757,-0.1648026704788208,0.24825995262817122,0.13697629829017205,-0.3713328565188576,0.8841473178445473,-0.6293438446566262,-0.5558739465306637,2.408904281042295
1780771389549136384,1.4947502613067627,-1.7716041803359985,-1.3976229429244995,-0.8117133975028992,-0.44115257263183594,0.5965438485145569,-0.670462429523468,0.11533167958259583,0.13508456945419312,-0.1764918565750122,0.25039198629787296,0.14270104252502225,-0.38000682622634296,0.8789398110804584,-0.6391878982483814,-0.5819663929223317,2.388960859894411
1780771389559170304,1.504784107208252,-1.6534758806228638,-1.3061796426773071,-0.8041279315948486,-0.45504453778266907,0.6043626070022583,-0.6539726853370667,0.09423518180847168,0.2332991361618042,-0.11639779806137085,0.25260872913740573,0.14804305402085982,-0.3887118626658631,0.8735989205945167,-0.6489655733838928,-0.6079122501788684,2.3683842163531392
1780771389569205248,1.5148191452026367,-1.5709781646728516,-1.2150461673736572,-0.7704464197158813,-0.46807345747947693,0.6110594272613525,-0.6383679509162903,0.10770663619041443,0.23320937156677246,-0.02519094944000244,0.2547814639875554,0.15309703831635324,-0.39670809410034297,0.8684874696789279,-0.6573982824720307,-0.6326846000723646,2.348511931388877
1780771389579240448,1.5248541831970215,-1.5523993968963623,-1.1418037414550781,-0.7498577833175659,-0.48020124435424805,0.6173563599586487,-0.623119592666626,0.14760541915893555,0.19615072011947632,0.06844735145568848,0.2569377634707097,0.15772511505710285,-0.4044292205006313,0.8634482704708826,-0.6653777484943068,-0.6565807346558018,2.3288284661571956
1780771389589275392,1.5348892211914062,-1.5313916206359863,-1.124805212020874,-0.777720034122467,-0.4919602572917938,0.6231160759925842,-0.6080308556556702,0.17938396334648132,0.10977888107299805,0.10896170139312744,0.2591517525931577,0.1621974882034742,-0.4119181198153454,0.8584030909630757,-0.67272046755578,-0.6802676042620723,2.308975242809262
1780771389599309312,1.5449230670928955,-1.6389681100845337,-1.072428822517395,-0.8220030665397644,-0.5036522746086121,0.6286149621009827,-0.5926024317741394,0.20079582929611206,0.021104276180267334,0.14761042594909668,0.2615941964781853,0.16655149912754613,-0.41947511249844815,0.8531528711647999,-0.679771049718978,-0.7044354788859916,2.2880696878020284
1780771389609344256,1.5549581050872803,-1.7668911218643188,-0.9754346013069153,-0.8506667017936707,-0.5149880051612854,0.6343396306037903,-0.5765419602394104,0.2078133225440979,-0.009721159934997559,0.1946144700050354,0.26443056153829464,0.1704624706309836,-0.4274009597102223,0.8475538009070394,-0.6871540013248649,-0.7290654652009974,2.2653870780324876
1780771389619379200,1.564993143081665,-1.8961814641952515,-0.8289218544960022,-0.8635246753692627,-0.5256757736206055,0.6402680277824402,-0.5601088404655457,0.1889600157737732,-0.0069825053215026855,0.22018879652023315,0.2676862156108425,0.1737388340460929,-0.4356149671807849,0.8416641608984884,-0.6948471430099925,-0.7536961514126578,2.241055540943371
1780771389629413376,1.5750272274017334,-2.145836353302002,-0.594108521938324,-0.8252723813056946,-0.5351210236549377,0.6469175219535828,-0.5432708859443665,0.16092973947525024,-0.004110515117645264,0.27807319164276123,0.2714503292980429,0.17589418510800747,-0.4443262084883888,0.835434142412841,-0.7035351669946176,-0.777840845606925,2.2146940335387835
1780771389639448320,1.5850622653961182,-2.2982757091522217,-0.31890174746513367,-0.7342825531959534,-0.5426923036575317,0.6546968817710876,-0.5261720418930054,0.13439762592315674,-0.027423381805419922,0.30835288763046265,0.27565604426408113,0.1765033788602353,-0.45360836358962986,0.828914742901633,-0.7137815325908101,-0.8008528337168694,2.1864253085289795
1780771389649483264,1.5950970649719238,-2.349149703979492,-0.04824136570096016,-0.6850385665893555,-0.5483208298683167,0.662875771522522,-0.5098429918289185,0.12058645486831665,-0.08925217390060425,0.26945608854293823,0.2802180334544473,0.17565301870075714,-0.46284393967785703,0.8224349540415655,-0.7246531444153473,-0.821744943303176,2.1574932672260236
1780771389659520256,1.6051340103149414,-2.4741904735565186,0.18286269903182983,-0.6242979764938354,-0.552394688129425,0.6713460683822632,-0.4941200017929077,0.11686307191848755,-0.13132226467132568,0.24160230159759521,0.2852040690670773,0.1735047486077293,-0.4720551949887152,0.8159158236485374,-0.7360235240153989,-0.8410252431565601,2.127550252509695
1780771389669554176,1.6151680946350098,-2.687695264816284,0.3810957372188568,-0.5167909860610962,-0.5548810958862305,0.6807411909103394,-0.4782242178916931,0.14029979705810547,-0.14256370067596436,0.2745499014854431,0.29043378317620266,0.16999068611797724,-0.4816545067844657,0.8091725928529525,-0.7487739708716937,-0.8594628923558968,2.0960546021252116
1780771389679589376,1.6252031326293945,-2.863591194152832,0.5073367953300476,-0.4273601770401001,-0.556025505065918,0.6912539601325989,-0.4615231156349182,0.16906261444091797,-0.14128142595291138,0.2727718949317932,0.2957776174514154,0.16523881825924094,-0.4918684458027955,0.802045611532493,-0.7632229439496888,-0.8780050948003895,2.062494437753084
1780771389689624320,1.6352381706237793,-2.8587708473205566,0.5944561958312988,-0.32854652404785156,-0.5561878681182861,0.7021661400794983,-0.44454225897789,0.17627453804016113,-0.1359277367591858,0.2604449987411499,0.30100403115840024,0.15969729153916484,-0.5022207145092682,0.7947752881979114,-0.778435267504037,-0.8965028567253912,2.0280474920291645
1780771389699658240,1.6452720165252686,-2.779637336730957,0.7177057266235352,-0.19831128418445587,-0.5552220940589905,0.7130582928657532,-0.4281079173088074,0.1610112190246582,-0.12034589052200317,0.2828595042228699,0.30594323001113416,0.15348036167590481,-0.5122400023509754,0.7876882313049212,-0.7938506876755824,-0.9139543185919418,1.9941340401724261
1780771389709693184,1.6553070545196533,-2.5569186210632324,0.8664268851280212,-0.06291244179010391,-0.5528383851051331,0.7236196398735046,-0.41321229934692383,0.12922388315200806,-0.09567469358444214,0.27547121047973633,0.3105246428315051,0.1465758354620554,-0.521449308081145,0.781140611217977,-0.8090323533823143,-0.9289370752056556,1.9622450766487938
1780771389719728128,1.665342092514038,-2.2554473876953125,1.0738214254379272,0.0709335058927536,-0.5488696098327637,0.7334868907928467,-0.4009227752685547,0.08871030807495117,-0.08144837617874146,0.24273493885993958,0.31478471730757857,0.13901400496902883,-0.5293521669657205,0.7754817221759386,-0.8234378691104175,-0.9399238932542053,1.9338659755392298
1780771389729762304,1.6753761768341064,-1.914290428161621,1.302864909172058,0.1974451094865799,-0.5431610345840454,0.7425101399421692,-0.39198800921440125,0.06356209516525269,-0.07782214879989624,0.23802688717842102,0.3188437949511631,0.13074410080479007,-0.535641642341177,0.7709296553039091,-0.8368100514566765,-0.9456682538300818,1.9099601984155012
1780771389739796992,1.685410976409912,-1.6389838457107544,1.5731216669082642,0.2736927270889282,-0.5357353687286377,0.7507085800170898,-0.386554479598999,0.053344011306762695,-0.07257747650146484,0.23949021100997925,0.32293211727782906,0.12168766487664393,-0.540291474764347,0.7674582404704723,-0.8491340007621115,-0.9457598007035931,1.89045641085987
1780771389749832192,1.6954460144042969,-1.5953742265701294,1.7494503259658813,0.28828659653663635,-0.5271162986755371,0.7584003806114197,-0.3833763897418976,0.060960233211517334,-0.04181700944900513,0.2480003833770752,0.3273275817744041,0.11187427969277103,-0.5438712584542824,0.7645554337987189,-0.8608553945225119,-0.9419763571549025,1.8732139455117476
1780771389759867136,1.7054810523986816,-1.8424237966537476,1.8018094301223755,0.34360256791114807,-0.5180047154426575,0.7665902376174927,-0.3794872760772705,0.07418757677078247,0.023525118827819824,0.2518322467803955,0.3320152681244853,0.10135223374059849,-0.5477080321501423,0.7612552195879536,-0.8735141318037468,-0.9385282620394926,1.854209746033125
1780771389769901312,1.71551513671875,-0.992789626121521,1.1514350175857544,0.9463363885879517,-0.5075372457504272,0.7756104469299316,-0.37527889013290405,0.07466071844100952,0.14061874151229858,-0.00484803318977356,0.3343471380304187,0.0914875183317467,-0.5513534100370654,0.758848677456073,-0.8876816009109717,-0.9341063261792936,1.840925482409353
1780771389779936256,1.7255501747131348,0.844660222530365,0.5737802386283875,0.07199903577566147,-0.498914897441864,0.7790175080299377,-0.3797575831413269,0.02622807025909424,0.3457384705543518,-0.9915193319320679,0.3347076969533218,0.08589485430115254,-0.550221121289229,0.7601642629661594,-0.8930973535654851,-0.9201865156602378,1.8461189462339216
1780771389789971200,1.7355849742889404,1.3850147724151611,-0.15898998081684113,-0.681256890296936,-0.5016109943389893,0.7721593379974365,-0.39007216691970825,-0.0017458796501159668,0.6670343279838562,-1.484622597694397,0.3358887170919277,0.08876132643524628,-0.5450553585109335,0.7630300190931001,-0.8822324184027093,-0.9098397732812271,1.85830826355956
1780771389800005120,1.7456190586090088,0.767398476600647,-0.2327033430337906,-0.5016988515853882,-0.5069876909255981,0.7649601697921753,-0.397239625453949,0.20922774076461792,0.7114649415016174,-0.6353073120117188,0.3373601296273519,0.09278315851689627,-0.541083614634541,0.764727327727236,-0.8709794980634503,-0.9061796288377564,1.8651054776245486
1780771389810040320,1.7556540966033936,0.9188918471336365,-0.6900889873504639,-0.1823674738407135,-0.5114671587944031,0.7599294781684875,-0.40113404393196106,0.2660295367240906,0.25389498472213745,-0.39056819677352905,0.3369913433107546,0.09690502117188445,-0.5385558473891254,0.7661617550816143,-0.8632046167084081,-0.9057138329929652,1.8719222980436003
1780771389820075264,1.7656891345977783,0.5217165350914001,-0.727960467338562,-0.03198675438761711,-0.5151790976524353,0.7562626004219055,-0.40330806374549866,0.14202535152435303,-0.23938637971878052,-0.40935975313186646,0.3349279938446046,0.10136598088744762,-0.536722374474874,0.7677742358363283,-0.8575817820533951,-0.9066003842232533,1.8806591299102546
1780771389830110208,1.775724172592163,-0.6526530981063843,-0.45519113540649414,-0.006353560835123062,-0.5177323818206787,0.7563931941986084,-0.3997780978679657,0.002916097640991211,-0.4470975399017334,-0.07600623369216919,0.33341689927134116,0.10362547696638258,-0.5379337487703179,0.7672823809725141,-0.8577814053461249,-0.9132559560067084,1.8797961601930255
1780771389840144128,1.7857580184936523,-1.4565998315811157,-0.28106167912483215,0.047910209745168686,-0.518991231918335,0.7608374953269958,-0.38958248496055603,-0.08438706398010254,-0.49171823263168335,0.14103204011917114,0.3329490110094747,0.10310348669310872,-0.5427507971976558,0.7641572668138077,-0.8646027382024357,-0.9268772373982993,1.8665369759153143
1780771389850179072,1.795793056488037,-1.7124873399734497,-0.24462832510471344,0.11196323484182358,-0.519390881061554,0.7674348950386047,-0.3758678436279297,-0.10519707202911377,-0.4461306929588318,0.12362486124038696,0.33273037722658005,0.10121597399022804,-0.5493827469917952,0.7597528141399895,-0.874830617724696,-0.9443601617603475,1.8471612259886259
1780771389860214272,1.8058280944824219,-1.7227060794830322,-0.09783487766981125,0.08149533718824387,-0.5192312002182007,0.774359405040741,-0.36161643266677856,-0.09401953220367432,-0.27498501539230347,0.09379416704177856,0.3327022251404372,0.0987210678111869,-0.5562786483676145,0.7550611789949023,-0.8857020326905564,-0.9624596416880573,1.8259910344931767
1780771389870248192,1.8158621788024902,-1.5495405197143555,0.03638577088713646,0.0023134308867156506,-0.5190374851226807,0.7804471254348755,-0.3485720157623291,-0.07249999046325684,-0.03563511371612549,0.0735628604888916,0.3332948257953416,0.0959544464259819,-0.5625893099830255,0.7504669369686838,-0.8953806229357046,-0.9794041074568284,1.804542026886669
1780771389880283136,1.825896978378296,-1.0662946701049805,0.1328771561384201,-0.018763359636068344,-0.5188166499137878,0.7849481105804443,-0.33865270018577576,-0.029248535633087158,0.1457005739212036,0.04025182127952576,0.33420853324941124,0.0934434747707239,-0.5673993059540089,0.7467468822110742,-0.9026123731853335,-0.9924968923585054,1.786694091687585
1780771389890318080,1.8359320163726807,-0.5410799384117126,0.18154482543468475,-0.05184780806303024,-0.5185407996177673,0.7874707579612732,-0.33317455649375916,0.018418729305267334,0.2179918885231018,0.00041091442108154297,0.3351551203120335,0.09160177001190256,-0.5701068629262261,0.7444853262708859,-0.9066946453511081,-0.9996950968965739,1.7755138248274485
1780771389900353280,1.8459670543670654,-0.11624717712402344,0.1938246637582779,-0.08868358284235,-0.5184744596481323,0.7881670594215393,-0.33162790536880493,0.034419894218444824,0.2106580138206482,-0.03510183095932007,0.3361169286035786,0.09055526822687864,-0.5709516494857189,0.7435317836496178,-0.90782516747446,-1.0017510180156615,1.770475039740527
1780771389910387200,1.8560011386871338,0.18860140442848206,0.1675388514995575,-0.06792930513620377,-0.5184975862503052,0.7875943183898926,-0.332949697971344,0.03453463315963745,0.16232633590698242,-0.045803964138031006,0.3369247211940413,0.09017616546865687,-0.5704326481998684,0.7436105308473726,-0.9068950543223029,-0.9999641989429,1.770395343178312
1780771389920422400,1.8660361766815186,0.3360443711280823,0.11283540725708008,-0.060276180505752563,-0.518521785736084,0.7863482236862183,-0.33584457635879517,0.01734691858291626,0.10581785440444946,-0.04527422785758972,0.33743215637306107,0.09029810191817625,-0.5691431858620493,0.7443532528095531,-0.9048754189441791,-0.996042386897264,1.7735989260191651
1780771389930457088,1.8760709762573242,0.2941102385520935,0.13063225150108337,-0.07364524900913239,-0.5186489820480347,0.7849018573760986,-0.3390165865421295,-0.013836979866027832,0.05935162305831909,-0.03630378842353821,0.3378694935626181,0.0905986121655136,-0.5677002716135264,0.7452197433996994,-0.9025377674437293,-0.9918571874715025,1.7774233571003744
1780771389940491264,1.8861050605773926,0.13359780609607697,0.1602383404970169,-0.06383762508630753,-0.5186967253684998,0.7837952375411987,-0.34149491786956787,-0.038828909397125244,0.01246941089630127,-0.011410355567932129,0.33845266615313613,0.09061485241039893,-0.5666052329304513,0.745786352721961,-0.9007537465228265,-0.9885588560093144,1.7797411264037315
1780771389950526208,1.8961400985717773,-0.06661330908536911,0.1580275297164917,-0.0419568307697773,-0.5185668468475342,0.7833898663520813,-0.3426205813884735,-0.04228520393371582,-0.0411108136177063,0.020888984203338623,0.3390904714579223,0.09023059333053471,-0.5661697234620743,0.7458739782040382,-0.9001012748876162,-0.9869312169501095,1.7797680527315123
1780771389960561152,1.906175136566162,-0.24296782910823822,0.1473921835422516,-0.017853090539574623,-0.518266499042511,0.7837786674499512,-0.342185378074646,-0.038526713848114014,-0.08768796920776367,0.039679884910583496,0.33971257070935196,0.08946574698323019,-0.5664831802985962,0.7454448793528867,-0.9007271306854358,-0.9872492918024798,1.7773770474560369
1780771389970596352,1.9162101745605469,-0.3617565631866455,0.13172361254692078,0.0022979844361543655,-0.5178515911102295,0.7847670912742615,-0.34054431319236755,-0.027558565139770508,-0.10890954732894897,0.03600943088531494,0.3402755689839935,0.08845254019055296,-0.5673658369434047,0.7446373328175154,-0.9023202498456281,-0.9890900608327973,1.7732396184203414
1780771389980630272,1.9262440204620361,-0.4915712773799896,0.1293238401412964,0.02536894753575325,-0.5173149704933167,0.7862886786460876,-0.33783918619155884,-0.01628488302230835,-0.09649986028671265,0.025598585605621338,0.3407897074148064,0.08720108156398514,-0.568749836392108,0.7434930640094704,-0.9047790447472259,-0.9922709793338869,1.7675313132815667
1780771389990665216,1.936279058456421,-0.554133951663971,0.1203128919005394,0.04943540319800377,-0.516596257686615,0.7882505655288696,-0.3343490660190582,-0.0015159249305725098,-0.06405317783355713,0.021803319454193115,0.34123216345822494,0.08573284476837888,-0.5705044654142075,0.7421152819327235,-0.9079608121484597,-0.9963811139506757,1.760722334185034
1780771390000700160,1.9463140964508057,-0.6025677919387817,0.11240410804748535,0.05941985920071602,-0.5157722234725952,0.790465235710144,-0.33036890625953674,0.009073615074157715,-0.03185933828353882,0.022217661142349243,0.3416036884497058,0.08415416599429253,-0.5724802383639527,0.7406019580778365,-0.9115681663617252,-1.0011053943672255,1.7532687153536661
1780771390010734336,1.956348180770874,-0.6016016006469727,0.11477591842412949,0.06002386286854744,-0.5149362087249756,0.7927659153938293,-0.3261336088180542,0.007901906967163086,0.0023238658905029297,0.0296705961227417,0.3419615408955768,0.0825295889850615,-0.5745624911365763,0.739005583165623,-0.9153334653249414,-1.0062167332227125,1.7453918987014285
1780771390020769024,1.9663829803466797,-0.5362436175346375,0.1320558339357376,0.06834597885608673,-0.5140266418457031,0.7949540615081787,-0.3222181797027588,0.003086090087890625,0.030195415019989014,0.03368976712226868,0.34231533109319573,0.08090773726821485,-0.5764935796868201,0.7375155895662592,-0.9189318951239166,-1.010866946814892,1.7379753181490303
1780771390030804224,1.9764180183410645,-0.44550657272338867,0.17033477127552032,0.08979161828756332,-0.5129217505455017,0.7969445586204529,-0.31904688477516174,0.0018743276596069336,0.05176466703414917,0.03216639161109924,0.34265707663218886,0.0792813695960076,-0.5780925674457896,0.7362810385257094,-0.9222199470458919,-1.0143437807918576,1.7317253915521766
1780771390040839168,1.9864530563354492,-0.3182500898838043,0.22375832498073578,0.11744881421327591,-0.5114730596542358,0.7986962795257568,-0.31698521971702576,0.00306546688079834,0.06672120094299316,0.037459492683410645,0.34300228576931646,0.07759595154260246,-0.579211751224182,0.7354196829861471,-0.92512546724874,-1.015981508520779,1.7271936586923429
1780771390050873344,1.9964871406555176,-0.18697939813137054,0.24183933436870575,0.14100393652915955,-0.5096958875656128,0.8001555800437927,-0.31616634130477905,0.011359095573425293,0.06932073831558228,0.03397029638290405,0.34330646567939904,0.07592316307752794,-0.5797865953909662,0.7349992238284202,-0.9275545455688291,-1.0155811173581357,1.7247507519589476
1780771390060908288,2.0065221786499023,-0.08887893706560135,0.24608281254768372,0.1606399565935135,-0.5077043771743774,0.8013490438461304,-0.31634795665740967,0.01740896701812744,0.05277693271636963,0.03389251232147217,0.34351118575638495,0.07435174314093669,-0.57991192899423,0.7349653630590014,-0.9295470202657872,-1.0135682355104976,1.7241972752418941
1780771390070943232,2.016556978225708,-0.06913772225379944,0.2666006088256836,0.17918886244297028,-0.5055224895477295,0.8024455904960632,-0.3170619010925293,0.020613431930541992,0.024657070636749268,0.0433802604675293,0.34365850522710994,0.07278489422614645,-0.5798029037865348,0.735139375884152,-0.9313823554018524,-1.0106191038651287,1.7246643218049769
1780771390080977152,2.0265910625457764,-0.10407652705907822,0.2985239326953888,0.19028759002685547,-0.5031453371047974,0.8036465644836426,-0.3178004026412964,0.012178480625152588,-0.0008511543273925781,0.04617869853973389,0.34382333160094625,0.07107072931304752,-0.5796971228253228,0.7353133878020411,-0.9333976836991589,-1.0074453860405221,1.7251177177141692
1780771390091012352,2.036626100540161,-0.1627718061208725,0.3372079133987427,0.19259069859981537,-0.5005977153778076,0.8050265908241272,-0.318330317735672,-0.0004703998565673828,-0.020694315433502197,0.035783350467681885,0.3440916717551377,0.06911818560423832,-0.5797046794963798,0.7353680443581043,-0.9357203204047747,-1.0043968438739401,1.7249479255308127
1780771390101047296,2.046661138534546,-0.17759335041046143,0.3751257359981537,0.1994810849428177,-0.4978809356689453,0.8065621852874756,-0.31870388984680176,-0.009687423706054688,-0.026883840560913086,0.023003816604614258,0.34447370341080935,0.06692969191856954,-0.5798003754467859,0.7353162037206594,-0.9383133467069024,-1.0013975322164546,1.7242167137946793
1780771390111082240,2.0566961765289307,-0.1272343099117279,0.38590022921562195,0.21005117893218994,-0.49501174688339233,0.8080725073814392,-0.31934642791748047,-0.01286172866821289,-0.018308162689208984,0.0045423805713653564,0.3448787281795941,0.06466630969963838,-0.5797801735030221,0.7353447396631589,-0.940872753257926,-0.9978529893934441,1.7238800864600445
1780771390121116160,2.06673002243042,-0.03863920271396637,0.42421621084213257,0.22902512550354004,-0.49194613099098206,0.8094344139099121,-0.32063233852386475,-0.020245671272277832,0.0002733469009399414,-0.0007177889347076416,0.3452705320907259,0.06239493475987032,-0.5794745033655924,0.7355981016582387,-0.9431883183177099,-0.9931826547834536,1.7246618819224024
1780771390131151104,2.0767650604248047,0.0668049305677414,0.4399001896381378,0.22325806319713593,-0.4886874556541443,0.8105102777481079,-0.3228895366191864,-0.030248701572418213,0.01297605037689209,2.8848648071289062e-05,0.34568546363220054,0.060152752371309695,-0.5787373099320826,0.7361700633276865,-0.945022819644646,-0.9869163050048415,1.727015090986945
1780771390141186304,2.0868000984191895,0.22224698960781097,0.46436798572540283,0.18510854244232178,-0.4855690598487854,0.8110596537590027,-0.3261975944042206,-0.0489768385887146,0.0077269673347473145,0.0013532638549804688,0.3462018681493404,0.058134944769005555,-0.577513224200293,0.7370502315966343,-0.9459613418569206,-0.9792592021454718,1.7308831035763594
1780771390151220224,2.096834182739258,0.48550522327423096,0.49957287311553955,0.16813382506370544,-0.4825821816921234,0.8107356429100037,-0.33139437437057495,-0.06607809662818909,0.008600294589996338,-0.0010488629341125488,0.34684984527060864,0.05647216510090674,-0.5754248114491547,0.7385069009332121,-0.9454076849665579,-0.9690451278848928,1.7375416682623301
1780771390161255168,2.1068689823150635,0.6610565781593323,0.551173985004425,0.16783873736858368,-0.47944584488868713,0.8095884919166565,-0.3386712372303009,-0.07029780745506287,0.039013803005218506,-0.0014472007751464844,0.3475754769842213,0.055052332520590296,-0.5723928917033771,0.7406260760351903,-0.9434507872527953,-0.9558009203659746,1.7473784094835696
1780771390171290112,2.1169040203094482,0.7380086183547974,0.6178829669952393,0.1352381855249405,-0.47619393467903137,0.807903528213501,-0.3471759855747223,-0.07545706629753113,0.07356619834899902,0.021690785884857178,0.34848691820446065,0.05366707566041452,-0.5687986080000965,0.7430644912627478,-0.9405859515459568,-0.9408292913303017,1.7586413957368017
1780771390181325312,2.126939058303833,0.7508959174156189,0.6845477819442749,0.10293218493461609,-0.4729391634464264,0.805813729763031,-0.3563604950904846,-0.08580717444419861,0.0628233551979065,0.05544191598892212,0.34970862178726764,0.052207558905254976,-0.5648841617182836,0.7455763902785281,-0.937048323324005,-0.925057839367998,1.770061877165406
1780771390191359232,2.1369731426239014,0.6772944331169128,0.722806990146637,0.09472113102674484,-0.46960434317588806,0.8036655783653259,-0.36550435423851013,-0.08778396248817444,0.024886667728424072,0.08074480295181274,0.3511529098056665,0.05055689002886494,-0.5609740007856937,0.7479597556724381,-0.9334296019133344,-0.9094128943449425,1.780708733478999
1780771390201394432,2.147008180618286,0.5320847630500793,0.7497222423553467,0.10244722664356232,-0.4660709798336029,0.8018779158592224,-0.37385764718055725,-0.08524429798126221,-0.016019821166992188,0.09106650948524475,0.35270407081881505,0.048576012129062054,-0.5574150647415087,0.7500190514494812,-0.9304316509429671,-0.8947473688689489,1.789744950324011
1780771390211429120,2.157042980194092,0.3821207880973816,0.7753598093986511,0.1080252155661583,-0.46234390139579773,0.8006351590156555,-0.38107919692993164,-0.07879376411437988,-0.04158681631088257,0.08438730239868164,0.3543291663894459,0.04622203226270281,-0.5543680449959194,0.751658407061426,-0.9283545912705755,-0.8814527093431352,1.7967878724745185
1780771390221463296,2.16707706451416,0.28093451261520386,0.7869424223899841,0.1021452248096466,-0.4584845304489136,0.7998707890510559,-0.3872966766357422,-0.06519711017608643,-0.04334002733230591,0.06600761413574219,0.35603034150771484,0.04355563345386211,-0.5517740178832161,0.7529215240269413,-0.9270799402627409,-0.869368411233203,1.8020799901761626
1780771390231498240,2.177112102508545,0.2661963105201721,0.7892496585845947,0.08238616585731506,-0.454680860042572,0.7992255687713623,-0.3930697441101074,-0.04742485284805298,-0.026795148849487305,0.03679227828979492,0.3578075302799018,0.04081505556955994,-0.5493625906569478,0.7539951564191304,-0.9260056537667265,-0.8579465890614665,1.806486224204404
1780771390241533184,2.1871471405029297,0.32353922724723816,0.7719830870628357,0.06698910146951675,-0.45098182559013367,0.7984128594398499,-0.39893925189971924,-0.02498564124107361,-0.005886495113372803,0.008359968662261963,0.359623897021778,0.03816991725959931,-0.5468760676806343,0.7550764462014016,-0.9246546078215587,-0.8465540445251941,1.8109185283012053
1780771390251568384,2.1971821784973145,0.41935017704963684,0.7375323176383972,0.05934848636388779,-0.44742605090141296,0.7971978187561035,-0.40532171726226807,0.0058825016021728516,0.008847713470458984,-0.020093321800231934,0.36138385189664346,0.035803540454793274,-0.5441114267518423,0.7563482739600939,-0.922639376079617,-0.8347329969343278,1.816229154492688
1780771390261602048,2.2072160243988037,0.4999733865261078,0.6822485327720642,0.03367641195654869,-0.4441242218017578,0.7955167293548584,-0.41219741106033325,0.03357124328613281,0.013961970806121826,-0.03677716851234436,0.36304682291631796,0.03381800803853874,-0.5410708226107236,0.7578229573778584,-0.9198599071085558,-0.8226645540924451,1.822446736456886
1780771390271637248,2.2172510623931885,0.5181745290756226,0.6031287312507629,0.005841319914907217,-0.4412888288497925,0.7934685945510864,-0.4191322922706604,0.05632480978965759,0.017978668212890625,-0.033962249755859375,0.364635871083238,0.03224785512596337,-0.5379534608753558,0.7593464000378799,-0.9164872126756348,-0.811143286286566,1.8288102973649387
1780771390281672192,2.2272861003875732,0.5503742694854736,0.5135838985443115,0.012728787958621979,-0.4388602375984192,0.7912415862083435,-0.42583829164505005,0.06773602962493896,0.008685052394866943,-0.014637112617492676,0.3660304621915852,0.031070939083969344,-0.5348976032894476,0.7608815469151149,-0.9128367619258834,-0.8004565402622537,1.8352098372652623
1780771390291706368,2.2373201847076416,0.5336648225784302,0.4475819766521454,0.012498690746724606,-0.4367154538631439,0.7889292240142822,-0.4322851002216339,0.06147128343582153,-0.021808743476867676,0.0017430782318115234,0.36717425195763614,0.03022999977516265,-0.5319244291729943,0.7624472113685763,-0.9090645083018627,-0.7904963544552929,1.8417706268756904
1780771390301741056,2.2473549842834473,0.4499562978744507,0.41987258195877075,0.007143605966120958,-0.43475717306137085,0.7868313193321228,-0.43804430961608887,0.04063788056373596,-0.04781752824783325,0.009180724620819092,0.36821005621168373,0.029459081593533554,-0.5292541990458478,0.7638348238023609,-0.9056578278955507,-0.7816319994560212,1.8475354948111082
1780771390311776256,2.257390022277832,0.3585377037525177,0.41023725271224976,0.0015823929570615292,-0.43288230895996094,0.7850549817085266,-0.44305917620658875,0.023733139038085938,-0.06406205892562866,0.0022480785846710205,0.36922928441207276,0.0286075397635112,-0.5269269536533464,0.7649831600553624,-0.9027849290529149,-0.7737804534638077,1.8522302038353806
1780771390321811200,2.267425060272217,0.23907975852489471,0.3799976110458374,0.0017919838428497314,-0.43112248182296753,0.7837234735488892,-0.44711387157440186,0.027893751859664917,-0.06797951459884644,0.002274423837661743,0.3702421951242742,0.027637061189886312,-0.5250516668834768,0.7658182301608933,-0.9006382041698351,-0.7671916538077838,1.8555498927047027
1780771390331845376,2.277459144592285,0.14503955841064453,0.3255307376384735,0.012559144757688046,-0.42948514223098755,0.7828894853591919,-0.45014065504074097,0.04410913586616516,-0.0673743486404419,0.013754546642303467,0.37111426784743623,0.026624386135408497,-0.5236609778150602,0.7663840869011805,-0.8992966419411876,-0.7619203191828074,1.8577760726495514
1780771390341880320,2.28749418258667,0.04053737223148346,0.2795869708061218,0.0028034523129463196,-0.42806822061538696,0.7824920415878296,-0.45217660069465637,0.05395326018333435,-0.06151437759399414,0.01182323694229126,0.371857897573554,0.025629631296693486,-0.522737811048286,0.7666876035280995,-0.8986580541295524,-0.7580167212231078,1.8589237656756756
1780771390351915008,2.2975289821624756,-0.03634888678789139,0.2522096633911133,-0.012813590466976166,-0.42691078782081604,0.7824741005897522,-0.45330068469047546,0.05154457688331604,-0.0408664345741272,0.0032885074615478516,0.3725791360260148,0.024620322992315473,-0.5222485074527576,0.7667041043052942,-0.8986292641519353,-0.7554258561404165,1.858827735713752
1780771390361949184,2.307563066482544,-0.03070351667702198,0.21328917145729065,-0.028231428936123848,-0.4260207712650299,0.7825666069984436,-0.45397791266441345,0.04888454079627991,-0.016834795475006104,-0.012635886669158936,0.37326941255864227,0.023710635248426353,-0.5219663317746986,0.7665892324338331,-0.8987778585070423,-0.7536393189476186,1.8581456112012333
1780771390371984128,2.3175981044769287,0.00027144388877786696,0.18013069033622742,-0.021238766610622406,-0.4253425896167755,0.7825084924697876,-0.4547133445739746,0.04718402028083801,0.0029071569442749023,-0.010694921016693115,0.3738824857409122,0.023009166766525667,-0.5216453783986443,0.7665302805706075,-0.8986845055132279,-0.7520367954774824,1.8576985121669674
1780771390382019328,2.3276331424713135,0.004220645409077406,0.1679704338312149,-0.035501591861248016,-0.42477577924728394,0.7823718190193176,-0.45547765493392944,0.045076072216033936,0.010368049144744873,-0.005261480808258057,0.3744393927422095,0.022427725053750232,-0.5213042912260701,0.7665076712185491,-0.8984650211533932,-0.7505338241143688,1.85741273172096
1780771390392054272,2.3376681804656982,0.005558085162192583,0.16118988394737244,-0.0450223945081234,-0.4243393838405609,0.7821720838546753,-0.45622697472572327,0.0350724458694458,0.001229405403137207,-0.011119246482849121,0.3750352058648407,0.02190417490835392,-0.52096710455494,0.7664608180820888,-0.8981443527703837,-0.7492014089762195,1.8569760047227728
1780771390402088192,2.3477020263671875,0.003954329062253237,0.13340406119823456,-0.04865814000368118,-0.42403745651245117,0.7819433808326721,-0.4568992257118225,0.03652524948120117,-0.01126772165298462,-0.01838153600692749,0.3756054135421773,0.02147059881096121,-0.5206624582934154,0.7664008489453761,-0.8977773489166547,-0.7481122151253522,1.8564702490804068
1780771390412123136,2.3577370643615723,-0.016185028478503227,0.10328424721956253,-0.04270997270941734,-0.42386406660079956,0.7817675471305847,-0.45736053586006165,0.04050227999687195,-0.026167631149291992,-0.0056521594524383545,0.37609426710203864,0.021129716192947855,-0.5204548712674758,0.766311481896552,-0.8974953792394911,-0.7474052037825151,1.8558601733152305
1780771390422158336,2.367772102355957,-0.07400065660476685,0.07459134608507156,-0.04161541163921356,-0.42378267645835876,0.7817795276641846,-0.4574156403541565,0.03868132829666138,-0.03980565071105957,0.009341299533843994,0.37648590409566784,0.0208222678141714,-0.5204407808092201,0.7661372444193012,-0.8975146133476751,-0.747249349361179,1.8549316852018354
1780771390432192000,2.3778059482574463,-0.15191595256328583,0.030329342931509018,-0.05452295392751694,-0.42391568422317505,0.7821002006530762,-0.4567435681819916,0.023433536291122437,-0.03660160303115845,0.0068840086460113525,0.3768177762027026,0.020529428991095458,-0.5207751543453101,0.7657545757027691,-0.8980290184909018,-0.7481389276424735,1.8531203098825526
1780771390442227200,2.387840986251831,-0.17197275161743164,-0.008514725603163242,-0.05400284007191658,-0.42431309819221497,0.7826160788536072,-0.4554893374443054,-0.0018801391124725342,-0.022911489009857178,0.00166243314743042,0.37707336042699346,0.02032914202223579,-0.5213847484955427,0.765219209686187,-0.8988573159467377,-0.7499774813617035,1.850653752733823
1780771390452262144,2.397876024246216,-0.15773282945156097,-0.010371481068432331,-0.028462858870625496,-0.424713134765625,0.7831984162330627,-0.4541134536266327,-0.031158447265625,-0.002711355686187744,0.0005917549133300781,0.377216510714226,0.0201788302319123,-0.5220498970907924,0.7646989141652291,-0.899793295039764,-0.751956595731297,1.8483088448527414
1780771390462297088,2.4079110622406006,-0.1891442835330963,0.04147041216492653,-0.025068392977118492,-0.4248511493206024,0.7838635444641113,-0.45283472537994385,-0.06037828326225281,0.02639329433441162,0.002563178539276123,0.37736219063392046,0.01987459669440389,-0.5226735476862594,0.7642087646464057,-0.9008638091422868,-0.7535256013344112,1.8461438082759665
1780771390472331264,2.417945146560669,-0.1608327478170395,0.09080693870782852,-0.024177832528948784,-0.424747109413147,0.7845831513404846,-0.451684832572937,-0.08564412593841553,0.06437009572982788,-0.01872837543487549,0.3776586312113028,0.019335354044593894,-0.5232434735122119,0.7636860623414089,-0.9020235585878617,-0.7546721759557902,1.8438110345381054
1780771390482366208,2.4279801845550537,-0.04460388422012329,0.09468982368707657,0.000805548916105181,-0.42441102862358093,0.7850041389465332,-0.4512692391872406,-0.07029417157173157,0.0992121696472168,-0.04310023784637451,0.3779638772117002,0.018805434729618146,-0.5234612978127324,0.7633990515828195,-0.902702852754109,-0.7547365068815941,1.8425149189962735
1780771390492401152,2.4380149841308594,0.04993327334523201,0.06856873631477356,0.018661510199308395,-0.42395442724227905,0.7850183248519897,-0.4516734182834625,-0.03364139795303345,0.10560667514801025,-0.04867756366729736,0.3781349069068836,0.018477790383314565,-0.5232799142645975,0.7634465597276063,-0.9027256766984911,-0.7537525982080228,1.8427253434373603
1780771390502435328,2.4480490684509277,0.06636231392621994,0.04566901922225952,0.03425245359539986,-0.4234825372695923,0.7848475575447083,-0.45241230726242065,-0.0015663206577301025,0.07905930280685425,-0.026713669300079346,0.3781720386537522,0.01830993093756013,-0.5229326824515941,0.7636701541640826,-0.9024500888550706,-0.7523813389187487,1.8437514529813108
1780771390512470272,2.4580841064453125,0.014330004341900349,0.038495127111673355,0.03179595619440079,-0.4230305850505829,0.7847949862480164,-0.45292600989341736,0.012798041105270386,0.028513729572296143,-0.012070298194885254,0.3781519045067201,0.01814231710725291,-0.5226928821347185,0.7638482379399361,-0.9023652344488167,-0.7512824956505312,1.8446126447693367
1780771390522505216,2.4681191444396973,-0.0181853286921978,0.02715831622481346,0.036782991141080856,-0.42262697219848633,0.7849591970443726,-0.45301809906959534,0.021976977586746216,-0.019593656063079834,-0.002075284719467163,0.378121448114756,0.017915844754830323,-0.5226566553910693,0.7638933988347814,-0.9026302818683233,-0.7507049759515171,1.8449109924864535
1780771390532540416,2.478154182434082,-0.033804766833782196,0.014642925001680851,0.06303723156452179,-0.42215490341186523,0.785287082195282,-0.4528901278972626,0.037450313568115234,-0.05233114957809448,0.01719069480895996,0.3779889114018545,0.017662440920697905,-0.5227264849605091,0.7639172165845752,-0.9031597195309524,-0.750288456501891,1.8451915089702124
1780771390542574080,2.4881880283355713,-0.047228697687387466,0.026356039568781853,0.07412184029817581,-0.42151913046836853,0.7857638597488403,-0.4526554346084595,0.04155999422073364,-0.06370258331298828,0.0313296914100647,0.37777140380907254,0.017333499868438094,-0.5228497294956194,0.7639480364572274,-0.9039301066163744,-0.7497952919302556,1.845586404268964
1780771390552609280,2.498223066329956,-0.0479661263525486,0.03835784271359444,0.07341397553682327,-0.42080023884773254,0.786288321018219,-0.4524132013320923,0.03289133310317993,-0.053469836711883545,0.027089744806289673,0.3775776598469552,0.01693148169660105,-0.5229787019318146,0.7639644267947251,-0.9047785513303298,-0.7492109565577945,1.8459287815281866
1780771390562644224,2.508258104324341,-0.039461053907871246,0.04113365337252617,0.07757782936096191,-0.42003166675567627,0.7868046164512634,-0.4522297978401184,0.028384357690811157,-0.021194934844970703,0.019261687994003296,0.3773975977989048,0.016500999502364364,-0.5230801261055089,0.7639933659654755,-0.9056145697380558,-0.7485015313691743,1.846330001481762
1780771390572678144,2.51829195022583,-0.014417754486203194,0.0336013026535511,0.09113118797540665,-0.41919684410095215,0.7872881293296814,-0.4521631896495819,0.023002326488494873,0.018971145153045654,0.02114814519882202,0.3771781587220726,0.01608088928337158,-0.5231250372737039,0.7640800878149979,-0.9063983532350299,-0.7475829868994576,1.8470132750022694
1780771390582713088,2.528326988220215,0.005794573575258255,0.03167556971311569,0.0992056280374527,-0.4182952344417572,0.7877005338668823,-0.452279657125473,0.01030576229095459,0.0365944504737854,0.009164422750473022,0.3768909858227164,0.015705644321294263,-0.5230807857054274,0.7642597139242909,-0.9070674571012857,-0.7463812406876051,1.8481422259450586
1780771390592748288,2.5383620262145996,-0.0149325430393219,0.04533611983060837,0.09928631782531738,-0.4173470735549927,0.78813236951828,-0.4524034857749939,-0.012767672538757324,0.03948909044265747,-0.0033765435218811035,0.3766056335572176,0.015300235588688517,-0.5230336169963917,0.7644410011524683,-0.9077687799441109,-0.7451136900319215,1.8492916317302333
1780771390602783232,2.5483970642089844,-0.02793489396572113,0.058388009667396545,0.10684250295162201,-0.41630542278289795,0.7886570692062378,-0.4524487555027008,-0.02801525592803955,0.029290318489074707,-0.011220097541809082,0.3763503050960562,0.014794391635477903,-0.5230265212660435,0.7645814982318071,-0.9086216847124747,-0.7438184861492032,1.850279846274614
1780771390612817408,2.5584311485290527,-0.0417601615190506,0.0720248594880104,0.11816253513097763,-0.41510891914367676,0.7892894148826599,-0.45244523882865906,-0.029822111129760742,0.008943557739257812,-0.019066542387008667,0.3760921577638058,0.01417695630019985,-0.523045303457916,0.7647072485889684,-0.9096508229245266,-0.7423883901767793,1.851250709414794
1780771390622852096,2.5684659481048584,-0.045594047755002975,0.08037945628166199,0.12588170170783997,-0.41378819942474365,0.7900062799453735,-0.45240405201911926,-0.025512337684631348,-0.004209160804748535,-0.019702911376953125,0.3758260642761533,0.013474543291048744,-0.5230835667400477,0.7648247078549406,-0.910819278041509,-0.740846526852467,1.8522281295060485
1780771390632887040,2.578500986099243,-0.031633757054805756,0.07938383519649506,0.126495823264122,-0.4124157130718231,0.7907097935676575,-0.45242831110954285,-0.01716497540473938,-0.007155716419219971,-0.022745609283447266,0.3755509409602108,0.012759966205554937,-0.5230898794445588,0.7649677963439468,-0.9119675564203245,-0.7391654454229452,1.8533375219898576
1780771390642922240,2.588536024093628,-0.011912251822650433,0.08977069705724716,0.11484557390213013,-0.41108623147010803,0.7913154363632202,-0.45257920026779175,-0.01019364595413208,-0.0030617117881774902,-0.026470452547073364,0.37531212265418135,0.012079108747053808,-0.5230339333442565,0.7651342164109881,-0.9129575136109536,-0.7373922015235476,1.854519394911411
1780771390652955648,2.598569631576538,0.03981539234519005,0.09726430475711823,0.10688218474388123,-0.40979576110839844,0.7917056679725647,-0.4530668556690216,-0.00267985463142395,0.0005001425743103027,-0.02114582061767578,0.3751313269083304,0.011463180972883352,-0.5228146642771524,0.7653822049641019,-0.9135960400289705,-0.7352918321617747,1.8560057913658932
1780771390662990848,2.608604669570923,0.06243947520852089,0.1072133406996727,0.10161498934030533,-0.40849021077156067,0.7918878197669983,-0.4539267122745514,0.006085425615310669,-0.006273806095123291,-0.014579176902770996,0.3749880639236007,0.01089879684680823,-0.5224154052985949,0.7657332280376633,-0.9138942587401766,-0.7327617594104436,1.857910905725151
1780771390673025792,2.6186397075653076,0.05939415097236633,0.11192846298217773,0.08577264100313187,-0.40725529193878174,0.7919834852218628,-0.4548683166503906,0.008802562952041626,-0.010031700134277344,-0.009456634521484375,0.3749213875115776,0.010348548396955622,-0.5219758165626829,0.7660730888942533,-0.9140508840093603,-0.7302266008743641,1.8597097811183263
1780771390683059712,2.628673553466797,0.068794846534729,0.10624181479215622,0.08909919857978821,-0.4060664176940918,0.7920560836791992,-0.45580407977104187,0.014083385467529297,-0.014986991882324219,0.002496004104614258,0.374874208098961,0.00981490171904988,-0.5215377481130425,0.7664016610706228,-0.9141698331612078,-0.7277531100478882,1.8614401041392301
1780771390693094656,2.6387085914611816,0.08943727612495422,0.09070959687232971,0.09647402167320251,-0.40485861897468567,0.792077898979187,-0.45683926343917847,0.01966574788093567,-0.02813136577606201,0.010412871837615967,0.3747645395650097,0.00933524577197869,-0.5210501086905429,0.766792818714655,-0.9142056093230141,-0.7251476336869439,1.8634742380599414
1780771390703129856,2.6487436294555664,0.08144299685955048,0.08900836855173111,0.07862578332424164,-0.40374234318733215,0.7920377254486084,-0.45789551734924316,0.01882416009902954,-0.031265079975128174,0.008081704378128052,0.3746593051800567,0.008918445641652225,-0.5205503902207804,0.767188462846799,-0.9141397971500678,-0.7226316320005813,1.8654998034672037
1780771390713164800,2.658778667449951,0.07298745959997177,0.07392795383930206,0.06617417186498642,-0.4028034210205078,0.7919824123382568,-0.45881715416908264,0.0155201256275177,-0.01601201295852661,0.011612564325332642,0.37459755109782,0.008557995853201364,-0.5201136240967431,0.7675188341034702,-0.9140491284599316,-0.7204797728163012,1.8671787553805965
1780771390723198976,2.6688127517700195,0.06593381613492966,0.042285069823265076,0.06279328465461731,-0.4020272195339203,0.791908860206604,-0.4596242904663086,0.017490476369857788,-0.008049607276916504,0.011198997497558594,0.3745025867414031,0.008300670593779546,-0.5197296955427098,0.7678280825406735,-0.913928703876394,-0.7186524757622503,1.8687424787179605
1780771390733233664,2.678847551345825,0.021749570965766907,0.0128861702978611,0.04331865534186363,-0.40147659182548523,0.7919266819953918,-0.4600747525691986,0.01227065920829773,-0.011134445667266846,0.013480544090270996,0.3743611683572462,0.008139988466220369,-0.5195155045720127,0.7680437585066505,-0.9139578941075551,-0.7174880429719972,1.8698801226955095
1780771390743268608,2.68888258934021,-0.018146179616451263,-0.008116848766803741,0.03727620840072632,-0.4011610150337219,0.7920737862586975,-0.4600968360900879,0.00040417909622192383,-0.01975017786026001,0.01905679702758789,0.3742157541571242,0.00803648144906988,-0.5195064939498488,0.7681218000969782,-0.9141988038015223,-0.7170747473146942,1.8703818396708831
1780771390753302784,2.6989166736602783,-0.048557348549366,-0.021328259259462357,0.03772281855344772,-0.4009344279766083,0.7923843860626221,-0.4597591161727905,-0.009374380111694336,-0.031947433948516846,0.020382314920425415,0.37403462337591914,0.007931807563201332,-0.5196705937416224,0.7680999603973272,-0.9147078186871707,-0.7171585999402125,1.8704653864737697
1780771390763337728,2.708951711654663,-0.05543549358844757,-0.0248875729739666,0.034548599272966385,-0.4007541239261627,0.7927680015563965,-0.4592549204826355,-0.01732143759727478,-0.031766414642333984,0.020061194896697998,0.3738378574858326,0.00782947563968879,-0.5199146486143699,0.7680317654198685,-0.9153369684991893,-0.7174793374156132,1.8703526670744761
1780771390773372928,2.718986749649048,-0.05802435427904129,-0.027537818998098373,0.016504084691405296,-0.4006514251232147,0.793142557144165,-0.4586975574493408,-0.01858377456665039,-0.01633286476135254,0.01962590217590332,0.37366446601304726,0.0077500407848372,-0.5201837780279578,0.7679347194569578,-0.9159516540850074,-0.7179540023902844,1.870083280704253
1780771390783407616,2.7290215492248535,-0.01241319254040718,-0.03477256000041962,0.015550673007965088,-0.4006941020488739,0.7933778762817383,-0.4582529366016388,-0.013810932636260986,0.012545585632324219,0.02787882089614868,0.37353225224841874,0.007764378628392593,-0.5203971935253983,0.7678542032075703,-0.9163381250437396,-0.7184872471285321,1.8698144215477865
1780771390793441792,2.739055633544922,0.026435136795043945,-0.05304810404777527,0.003705997485667467,-0.4008044898509979,0.7933827042579651,-0.45814794301986694,-0.0057048797607421875,0.03353679180145264,0.02690407633781433,0.3733659181873417,0.007925158907746681,-0.5204452128078372,0.7679008794687618,-0.9163460952873959,-0.7187373138245876,1.8700728108147924
1780771390803476736,2.7490906715393066,0.08152981847524643,-0.04131262004375458,0.0049547539092600346,-0.40102726221084595,0.7931424379348755,-0.4583691954612732,-0.0028728842735290527,0.04226100444793701,0.021922051906585693,0.37323047486586824,0.008214374292009755,-0.5203344366804983,0.7680388501641554,-0.9159514532320838,-0.7187734155893825,1.8706584176456345
1780771390813511936,2.7591257095336914,0.094814732670784,-0.04879477247595787,0.007948946207761765,-0.4011671543121338,0.7927485108375549,-0.4589276611804962,0.0019667446613311768,0.030112147331237793,0.01768931746482849,0.373081633675443,0.008536354850512868,-0.520060861086159,0.7682927984375494,-0.9153049640447466,-0.7183428655717806,1.871757180425914
1780771390823546880,2.769160747528076,0.09596841037273407,-0.057559236884117126,0.03390464559197426,-0.4012824296951294,0.7923780679702759,-0.45946645736694336,0.0074988603591918945,0.008143782615661621,0.01229238510131836,0.37287151909823896,0.008878915538480983,-0.5197960500440659,0.7685701591396016,-0.9146974793273661,-0.7179038457483691,1.872996087572367
1780771390833580800,2.7791945934295654,0.0422697588801384,-0.07688233256340027,0.04388244450092316,-0.40123888850212097,0.79221510887146,-0.4597853720188141,0.014321774244308472,-0.013620138168334961,0.008232057094573975,0.37252973558482894,0.009155221269618428,-0.5196378475990403,0.7688395727465556,-0.9144303599071579,-0.7175063427842412,1.8743273049658415
1780771390843615744,2.78922963142395,-0.02190869301557541,-0.0819908082485199,0.03949888050556183,-0.40131518244743347,0.7923407554626465,-0.4595021605491638,0.012872189283370972,-0.012265682220458984,-0.004426062107086182,0.37216849109611577,0.009384010800003012,-0.5197700130290631,0.7689224255632942,-0.91463633015795,-0.7179058267207634,1.874863378930612
1780771390853650688,2.799264669418335,-0.019899871200323105,-0.09646135568618774,0.0772089809179306,-0.4012545943260193,0.7926819324493408,-0.45896631479263306,0.018655717372894287,-0.00871586799621582,0.013455450534820557,0.37171173919092093,0.0095294935484955,-0.5200250289300979,0.7689691344946208,-0.9151957588385505,-0.7184091219517839,1.8753480941474037
1780771390863684864,2.8092987537384033,-0.037228528410196304,-0.10613475739955902,0.06701146811246872,-0.40112629532814026,0.7931054830551147,-0.45834633708000183,0.01910725235939026,-0.009932875633239746,-0.0022554397583007812,0.37116102323930894,0.009675159871801862,-0.5203203126250026,0.7690335621094958,-0.9158908141969858,-0.7189205044000986,1.8759832921233972
1780771390873719808,2.819333553314209,-0.032059330493211746,-0.1046895906329155,0.054589685052633286,-0.4011351764202118,0.7935217022895813,-0.45761755108833313,0.008770674467086792,0.006618678569793701,-0.009591281414031982,0.37066614274391896,0.00984860346845978,-0.5206670987166822,0.7690353557825248,-0.9165745130728871,-0.7197201908927573,1.8762852337272427
1780771390883754752,2.8293685913085938,-0.012734103947877884,-0.11385352909564972,0.06322471797466278,-0.401173859834671,0.7938528060913086,-0.4570089876651764,0.011021912097930908,0.01644986867904663,-0.008033126592636108,0.370156108954294,0.01007995625213497,-0.5209547990884841,0.769083167544306,-0.9171187805006067,-0.7204276886039344,1.8767788175595443
1780771390893789696,2.8394036293029785,-0.019360048696398735,-0.11848236620426178,0.06777233630418777,-0.4012032747268677,0.7941783666610718,-0.45641735196113586,0.010471463203430176,0.007793068885803223,0.0028192996978759766,0.36959819552471834,0.010342031469533447,-0.5212335113121278,0.7691592578510448,-0.9176543147134012,-0.7211063621561483,1.8774222370542777
1780771390903823872,2.849437713623047,-0.03840431198477745,-0.12524786591529846,0.05708213523030281,-0.4012625217437744,0.794560432434082,-0.45569971203804016,0.0008413791656494141,-0.011784553527832031,0.0070607662200927734,0.3690415662514995,0.01059462245680975,-0.5215725283983808,0.7691932490264569,-0.9182832778825604,-0.7219599542822368,1.877881775821139
1780771390913858816,2.8594727516174316,-0.0487365797162056,-0.13189539313316345,0.053917236626148224,-0.4014057219028473,0.7949939966201782,-0.4548164904117584,-0.013373911380767822,-0.016109108924865723,-0.012163519859313965,0.3684953913069024,0.010858296629040132,-0.521990277399432,0.7691680368453625,-0.9189977038683692,-0.72309932904394,1.8780640310864278
1780771390923893760,2.8695075511932373,-0.03978196531534195,-0.1402992606163025,0.062458258122205734,-0.40157219767570496,0.7954294085502625,-0.45390740036964417,-0.018090248107910156,-0.008899867534637451,-0.017238199710845947,0.36791654924295664,0.011154410407218289,-0.522419261795116,0.7691496565364336,-0.9197157890500052,-0.7242978875160244,1.8782876831140014
1780771390933928704,2.879542589187622,-0.0323493517935276,-0.14455658197402954,0.05718440189957619,-0.40174180269241333,0.7958391308784485,-0.4530382454395294,-0.01764601469039917,0.0012494921684265137,-0.008479118347167969,0.36730664190471773,0.011483649215067166,-0.5228278969010015,0.7691586253871381,-0.920392150823437,-0.7254587996708797,1.878643621271831
1780771390943962880,2.8895766735076904,-0.03135066479444504,-0.13547015190124512,0.043277639895677567,-0.4019853174686432,0.7961803674697876,-0.4522218704223633,-0.02175125479698181,0.006355643272399902,-0.007067680358886719,0.3667500878327265,0.011837952250805018,-0.523210214105697,0.7691588537266801,-0.9209559612770665,-0.7266550891557099,1.8789093622530353
1780771390953997824,2.899611711502075,-0.024361198768019676,-0.1351483017206192,0.03705676272511482,-0.4022637903690338,0.796479344367981,-0.4514469802379608,-0.0221441388130188,0.009383022785186768,-0.01058909296989441,0.3662389309910569,0.012194486175471326,-0.5235721543706461,0.7691504614684306,-0.9214501894451429,-0.7278507117759598,1.8791015872864496
1780771390964032768,2.90964674949646,-0.010230199433863163,-0.14514581859111786,0.03409293293952942,-0.40261703729629517,0.796684205532074,-0.4507701098918915,-0.014878660440444946,0.00806427001953125,-0.011494845151901245,0.3657341830948114,0.01261851121367469,-0.5238852112163424,0.769170637713977,-0.9217890722543238,-0.7290321003673488,1.8793881538865809
1780771390974066688,2.919680595397949,-0.038436803966760635,-0.14115652441978455,0.03462476283311844,-0.40301114320755005,0.7969232201576233,-0.4499947726726532,-0.0060006678104400635,-0.004458069801330566,0.0005319416522979736,0.36522437629126114,0.013051514350927811,-0.5242444722512245,0.7691608825363878,-0.922184640231162,-0.7303736852527682,1.879540948361932
1780771390984101888,2.929715633392334,-0.04732031002640724,-0.14412595331668854,0.028588177636265755,-0.40339887142181396,0.7972497940063477,-0.44906821846961975,-0.0016609430313110352,-0.012093544006347656,0.0004750490188598633,0.3647319445678906,0.013435520305732133,-0.524676455137261,0.7690935131970442,-0.9227254397409405,-0.7318761887102387,1.8794434790744492
1780771390994136832,2.9397506713867188,-0.05105699226260185,-0.15952327847480774,0.019098268821835518,-0.4039018452167511,0.7975656986236572,-0.4480537474155426,0.005159199237823486,-0.017124474048614502,-0.018361598253250122,0.3642457921698412,0.013872522110633454,-0.5251482395646861,0.768993997744048,-0.9232489098368533,-0.7336202889804974,1.879173238034601
1780771391004171776,2.9497857093811035,-0.07993683964014053,-0.19072780013084412,0.017452169209718704,-0.40453535318374634,0.7979232668876648,-0.4468441605567932,0.017450392246246338,-0.014079272747039795,-0.013788163661956787,0.36372152188282514,0.014379401779147616,-0.525710147318962,0.7688490287429531,-0.9238419553709496,-0.7357446271630682,1.8786965848911938
1780771391014205696,2.9598195552825928,-0.13789121806621552,-0.21274641156196594,0.009308756329119205,-0.40534213185310364,0.7984595894813538,-0.4451516270637512,0.026130706071853638,-0.014356255531311035,0.005317032337188721,0.36314306113356326,0.014932375798441512,-0.526499006726945,0.7685720069589927,-0.9247322929320311,-0.7386247806980694,1.8776441057167845
1780771391024240640,2.9698545932769775,-0.18188956379890442,-0.22530215978622437,0.01424412615597248,-0.40622788667678833,0.7992317080497742,-0.44295334815979004,0.020104199647903442,-0.02179640531539917,0.011770486831665039,0.36253387805546766,0.015449650910610943,-0.5275269035397642,0.7681444551963238,-0.9260157891502923,-0.7421769986033672,1.8759464233009249
1780771391034275840,2.9798896312713623,-0.19147907197475433,-0.23170813918113708,0.021021604537963867,-0.4071024954319,0.8001263737678528,-0.44052842259407043,0.009900987148284912,-0.03285348415374756,0.0035472214221954346,0.3618711575959994,0.015950193052370616,-0.5286599854666831,0.7676674955545139,-0.927505821636941,-0.7459840507250473,1.8740670543069853
1780771391044309760,2.9899237155914307,-0.2191578447818756,-0.22458204627037048,0.014975164085626602,-0.40796637535095215,0.8011056184768677,-0.4379419684410095,0.003272801637649536,-0.03656405210494995,0.0035243332386016846,0.36120811034154143,0.01641261446486058,-0.5298675685609949,0.7671372841251782,-0.9291401483438219,-0.7499770083370934,1.8719549396176165
1780771391054344960,2.9999587535858154,-0.22172540426254272,-0.22558671236038208,0.013317612931132317,-0.4088344871997833,0.8021370768547058,-0.43523600697517395,0.0001278519630432129,-0.028943777084350586,0.006189435720443726,0.3605757411823482,0.016834880139326013,-0.5311295353915421,0.7665527175013712,-0.9308655213405966,-0.7541295623898688,1.8695801641389398
1780771391064379648,3.009993553161621,-0.1853247731924057,-0.24196356534957886,0.018842073157429695,-0.4097185432910919,0.8030935525894165,-0.43263307213783264,-0.0027264952659606934,-0.01627415418624878,-0.006667464971542358,0.35990858697286143,0.01731858453189647,-0.5323377976389855,0.7660171723003247,-0.9324690439233004,-0.7582018408950273,1.867421517234372
1780771391074414848,3.020028591156006,-0.1437554955482483,-0.2561434209346771,0.02259606495499611,-0.4106271266937256,0.8038910627365112,-0.4302841126918793,-0.0014211833477020264,-0.0014008879661560059,-0.018965095281600952,0.3591768391226787,0.017922715367640882,-0.5334198287839742,0.765593858221918,-0.9338086152401932,-0.7620266032120768,1.8657702533988263
1780771391084448768,3.030062675476074,-0.1552896499633789,-0.271697074174881,0.045668359845876694,-0.41148173809051514,0.8046702742576599,-0.4280052185058594,0.009488970041275024,0.010347366333007812,-0.025699585676193237,0.35835917827044034,0.01857021583218187,-0.5344647165721347,0.7652328150915547,-0.9351198891021375,-0.7657178772210583,1.8644475270547227
1780771391094483968,3.040097713470459,-0.16238324344158173,-0.33448657393455505,0.05563097819685936,-0.4123634994029999,0.8055626153945923,-0.4254705309867859,0.02080768346786499,0.005518317222595215,-0.06828862428665161,0.35736933893789724,0.019305955903150318,-0.5356230198994966,0.7648675503301247,-0.9366244102321267,-0.7697554889062213,1.8631933486862313
1780771391104518912,3.0501327514648438,-0.23297218978405,-0.37079665064811707,0.058069635182619095,-0.4134243130683899,0.8066149353981018,-0.4224364757537842,0.02585110068321228,-0.011143803596496582,-0.08917543292045593,0.3562142970119522,0.020176489462235353,-0.5370052794293764,0.7644144764218432,-0.9384025456999352,-0.7746166891812936,1.861596855867437
1780771391114553600,3.0601675510406494,-0.35973042249679565,-0.36666515469551086,0.056198231875896454,-0.41452595591545105,0.8080909252166748,-0.4185180366039276,0.01466938853263855,-0.016983747482299805,-0.053268492221832275,0.3550233991313588,0.0209209812518989,-0.5387980141057478,0.7636867623955819,-0.9409040126783909,-0.7806060552980636,1.8587913028124396
1780771391124587776,3.0702016353607178,-0.48569101095199585,-0.3488137125968933,0.0572536438703537,-0.4155576825141907,0.8100925087928772,-0.4135962128639221,-0.0068666040897369385,-0.016070961952209473,-0.04450312256813049,0.353886059801805,0.021381582257750557,-0.5410588856629728,0.7626025614548576,-0.9443098603439462,-0.7877637906591946,1.8543686193517595
1780771391134622720,3.0802366733551025,-0.599175751209259,-0.3319418132305145,0.07569364458322525,-0.4164258539676666,0.8126051425933838,-0.4077529013156891,-0.01838862895965576,-0.015104532241821289,-0.0567704439163208,0.3527624328494944,0.021544578698503705,-0.5437456911468344,0.7612063718100703,-0.9486082048167104,-0.7959209022267156,1.8485376949295653
1780771391144657920,3.0902717113494873,-0.6805810928344727,-0.3096601963043213,0.11028996855020523,-0.4169594347476959,0.8156071901321411,-0.4011605381965637,-0.021135658025741577,-0.011163830757141113,-0.05710667371749878,0.3516071968098944,0.02136671691489716,-0.5467752701028425,0.7595740335677811,-0.953777859369061,-0.8047070040981298,1.8416680632539792
1780771391154691584,3.1003055572509766,-0.6965246796607971,-0.3424322307109833,0.15201343595981598,-0.4171712100505829,0.8189072608947754,-0.39415624737739563,-0.009601861238479614,-0.01603555679321289,-0.08944058418273926,0.35028951188100044,0.021022934208711156,-0.5499817417968708,0.7578756142249776,-0.9595044746197706,-0.8137576129991689,1.834565761352825
1780771391164726784,3.1103405952453613,-0.7822211980819702,-0.38836216926574707,0.16478808224201202,-0.41728052496910095,0.8224458694458008,-0.3866002857685089,0.00897061824798584,-0.01878070831298828,-0.1266900897026062,0.34875394891364675,0.02067650967426823,-0.5534187680384878,0.7560892133786202,-0.9656975149605864,-0.8235448026234893,1.8270839964301953
1780771391174761728,3.120375633239746,-0.8725090026855469,-0.4159657061100006,0.15603694319725037,-0.417497456073761,0.8263028264045715,-0.37804678082466125,0.019822895526885986,-0.010705351829528809,-0.14317813515663147,0.5550814220867769,-0.14585526783044217,-0.5382405066584223,0.6171773907375699,-0.9725114678066116,-0.8349471079370769,1.2160525109525777
1780771391184796928,3.130410671234131,-0.9618346095085144,-0.45290136337280273,0.1500493586063385,-0.4178560674190521,0.8303686380386353,-0.36862489581108093,0.024255603551864624,-0.010101914405822754,-0.16074824333190918,0.5527676092961371,-0.14747468756579965,-0.5421611951178685,0.6154351988814926,-0.9797689115502835,-0.8479133524029371,1.2056346912001614
1780771391194830848,3.140444755554199,-1.1014326810836792,-0.5147058963775635,0.15891902148723602,-0.4183521866798401,0.8347353935241699,-0.35804784297943115,0.0285663902759552,-0.011477947235107422,-0.17918360233306885,0.550211918539194,-0.14922412709863658,-0.5465420761455074,0.6134254338831313,-0.9876521007403756,-0.8629142720294237,1.1934642582532988
1780771391204865792,3.150479555130005,-1.280832052230835,-0.5886048674583435,0.16795697808265686,-0.4189191460609436,0.8396432399749756,-0.34569650888442993,0.029758960008621216,-0.029233694076538086,-0.18447011709213257,0.5472910503710602,-0.15127458016222278,-0.5516047019192764,0.6109998460869639,-0.9966260092045925,-0.8808709971630262,1.1786147206653517
1780771391214900736,3.1605145931243896,-1.3513832092285156,-0.6415886282920837,0.17277304828166962,-0.4195837676525116,0.8448582887649536,-0.3319094777107239,0.016690701246261597,-0.06070911884307861,-0.18327301740646362,0.5440406637941312,-0.1534813220080587,-0.557215168943211,0.6082552761717378,-1.0063002349092864,-0.9015398975289258,1.1614363089863242
1780771391224935680,3.1705496311187744,-1.2854523658752441,-0.6563279032707214,0.18687261641025543,-0.4201873242855072,0.8499341011047363,-0.31789088249206543,-9.208917617797852e-06,-0.0799756646156311,-0.20742341876029968,0.5406465195084582,-0.15561591412056655,-0.5628838707968379,0.605513590361665,-1.0158601539389889,-0.9231191633359656,1.1436564154737854
1780771391234969856,3.1805837154388428,-1.087909460067749,-0.7096675038337708,0.22577154636383057,-0.42055028676986694,0.8545173406600952,-0.30485665798187256,-0.014889746904373169,-0.07668530941009521,-0.25858938694000244,0.5371592589121794,-0.15735268787473716,-0.5681652909189759,0.6032315132341459,-1.0246208714244414,-0.9435540584865147,1.1276851097726965
1780771391245004800,3.1906187534332275,-0.8981994390487671,-0.7602680921554565,0.2306709587574005,-0.4207715392112732,0.8584575057029724,-0.29326131939888,-0.020512670278549194,-0.06760972738265991,-0.24451947212219238,0.6451074061090577,-0.27202347949750655,-0.5285570676327743,0.4800700041304628,-1.0322545804015197,-0.9621129400956463,0.7036358873750923
1780771391255039744,3.200653553009033,-0.7268593907356262,-0.7965136170387268,0.2068905383348465,-0.42112213373184204,0.8617406487464905,-0.28294751048088074,-0.03316250443458557,-0.05563408136367798,-0.16762924194335938,0.6413831084256941,-0.2733534862922879,-0.5327326829348509,0.4796890403466828,-1.0386906651054344,-0.97918667124491,0.6929006528265891
1780771391265073664,3.2106876373291016,-0.610687255859375,-0.8016364574432373,0.210624560713768,-0.42156654596328735,0.8644477725028992,-0.2738826870918274,-0.05420246720314026,-0.06291884183883667,-0.12148779630661011,0.6378647563905065,-0.2741176940599258,-0.5365800416843868,0.47965608707631807,-1.0440509106117626,-0.9946471986070318,0.6841788305828338
1780771391275108864,3.2207226753234863,-0.5391566157341003,-0.7537930011749268,0.22025561332702637,-0.4217948913574219,0.8669053316116333,-0.2656397223472595,-0.06941607594490051,-0.09563446044921875,-0.08708247542381287,0.6344813215293289,-0.2746737203496578,-0.540124504049317,0.4798473555588174,-1.0489600749083237,-1.0087641332420318,0.6767946132721018
1780771391285143808,3.230757713317871,-0.4898889660835266,-0.7475410103797913,0.2506124675273895,-0.4217585623264313,0.8692286014556885,-0.2579948902130127,-0.08259022235870361,-0.13181710243225098,-0.040268659591674805,0.6824093247003926,-0.3360328242889071,-0.5080201701833392,0.40412249400469036,-1.0536399758275485,-1.021809324063679,0.4389766218222407
1780771391295179008,3.240792751312256,-0.4206579625606537,-0.6555743217468262,0.2679022252559662,-0.4212443232536316,0.8715453743934631,-0.2509222626686096,-0.09616592526435852,-0.13556820154190063,0.01029115915298462,0.7059339269816665,-0.37177716263450294,-0.48612818553990267,0.3565367512696589,-1.0583453018263234,-1.0335673351644963,0.2936487921345662
1780771391305212672,3.250826597213745,-0.2421901971101761,-0.5642468333244324,0.24845315515995026,-0.42051270604133606,0.8734529614448547,-0.24545669555664062,-0.10579344630241394,-0.10646998882293701,0.015338897705078125,0.7188342669927279,-0.3941969608289346,-0.4710418328453227,0.32558511556475134,-1.0622494875622333,-1.042442253466088,0.19996472867938267
1780771391315247872,3.26086163520813,-0.08072593063116074,-0.4583965539932251,0.2752474844455719,-0.41947200894355774,0.874923586845398,-0.24197490513324738,-0.10778015851974487,-0.07443231344223022,0.031556203961372375,0.7168979916273116,-0.39452447883688757,-0.4726129317420242,0.32717681768033147,-1.065278034158479,-1.0475683917114613,0.19996265104447666
1780771391325282816,3.2708966732025146,0.007886486127972603,-0.40845268964767456,0.2954486310482025,-0.41797634959220886,0.8762157559394836,-0.2398783266544342,-0.09171295166015625,-0.04857909679412842,0.05968727171421051,0.7238086683684678,-0.40704019851474066,-0.46301091844492887,0.3099034046456609,-1.0679528242630434,-1.0497860461958688,0.14932084751607833
1780771391335317760,3.2809317111968994,0.06112973392009735,-0.3811430335044861,0.2614738941192627,-0.4164614677429199,0.8772963881492615,-0.23855972290039062,-0.07702299952507019,-0.043373167514801025,0.08885575830936432,0.7225350815345971,-0.40694235663723505,-0.46380821460589783,0.3118057725991973,-1.0701997988864655,-1.0505978266512106,0.15289203172807703
1780771391345351680,3.2909655570983887,0.17757458984851837,-0.38032010197639465,0.2480611354112625,-0.41516968607902527,0.8780764937400818,-0.2379404902458191,-0.07092949748039246,-0.024316847324371338,0.10993453860282898,0.7257968426280859,-0.41298322876941984,-0.4587751160153819,0.30362658031587375,-1.0718275422565646,-1.050378896038867,0.12953005422270217
1780771391355386624,3.3010005950927734,0.45437341928482056,-0.4040251672267914,0.2909894287586212,-0.41373926401138306,0.878446638584137,-0.23906315863132477,-0.059740930795669556,0.02647578716278076,0.09932316839694977,0.728288735070652,-0.4166410219342458,-0.45483918163080356,0.2985414566591976,-1.072601608103065,-1.0468519733678292,0.11712554245610902
1780771391365421824,3.311035633087158,0.7201403975486755,-0.35802412033081055,0.27062156796455383,-0.4121668338775635,0.8781881928443909,-0.24270100891590118,-0.05601853132247925,0.0908820629119873,0.08530662953853607,0.7303735018319398,-0.41780213853856585,-0.45176417620648024,0.2964876234762052,-1.072061040528789,-1.038621895266724,0.11649912230038768
1780771391375455744,3.3210697174072266,0.8524063229560852,-0.25973203778266907,0.18431545794010162,-0.4109261631965637,0.8771634101867676,-0.2484433948993683,-0.07500523328781128,0.13386869430541992,0.0957944393157959,0.7322946045631475,-0.41689106230803985,-0.4494220107514056,0.29659122716275965,-1.0699227303043992,-1.0270059020277562,0.12457279573887013
1780771391385490944,3.3311047554016113,0.8089041113853455,-0.13216714560985565,0.09433364123106003,-0.41020795702934265,0.8756085634231567,-0.2550279200077057,-0.08611470460891724,0.1434192657470703,0.11875167489051819,0.7341922622490886,-0.41500993059326236,-0.4474961367100027,0.2974488371256795,-1.066694306059399,-1.0145706786419975,0.13568652834367342
1780771391395525632,3.341139554977417,0.7301914691925049,-0.01725601777434349,0.048799704760313034,-0.4098062515258789,0.8738846778869629,-0.26150429248809814,-0.0733327567577362,0.11500692367553711,0.13420021533966064,0.7356774318993177,-0.4124251633150053,-0.44626600073548106,0.29921717488298566,-1.0631367834742695,-1.0028202266586408,0.14897054425683467
1780771391405560832,3.3511745929718018,0.6825749278068542,0.03723704814910889,0.04497327655553818,-0.40936970710754395,0.8721929788589478,-0.26776084303855896,-0.04439613223075867,0.045394301414489746,0.12176471948623657,0.7373756900645928,-0.41034198888010104,-0.44467856349887674,0.3002624833688952,-1.059667724509394,-0.991557729762409,0.1598747891647481
1780771391415594752,3.36120867729187,0.5874529480934143,0.02070947363972664,0.03000844083726406,-0.4089593291282654,0.870639443397522,-0.27338486909866333,-0.01731017231941223,-0.03465616703033447,0.11014634370803833,0.7385258505716567,-0.4079190398346396,-0.44374500520477234,0.30211263089061274,-1.0565007384716836,-0.9815330950828948,0.17203700399906716
1780771391425629952,3.371243715286255,0.43332406878471375,-0.006860369350761175,0.006588869262486696,-0.40879198908805847,0.8692816495895386,-0.27791792154312134,-0.001638859510421753,-0.07046884298324585,0.14649400115013123,0.7393919384407305,-0.4057953719885896,-0.443137859524588,0.30374068888162137,-1.0537472431898687,-0.9737211218979447,0.18210367719073237
