time,seconds_elapsed,rotationRateX,rotationRateY,rotationRateZ,gravityX,gravityY,gravityZ,accelerationX,accelerationY,accelerationZ,quaternionW,quaternionX,quaternionY,quaternionZ,pitch,roll,yaw
1780420622839923968,0.5126409530639648,-3.202822208404541,-0.8532472252845764,0.4893549680709839,0.0308668352663517,0.055015284568071365,-0.9980083107948303,0.0875413715839386,0.23917417228221893,-0.15729564428329468,-0.41688159392117696,-0.002555029315378397,-0.03145352680607646,0.9084127948782493,-0.05504307315802205,0.030918579680486422,-2.280260505388742
1780420622849958912,0.5226759910583496,-3.2201216220855713,-0.7885462045669556,0.47276878356933594,0.022939547896385193,0.08683928102254868,-0.9959582090377808,-0.003820285201072693,0.2527145445346832,-0.11666691303253174,-0.4191721598244331,0.007815385895603757,-0.044269907157359734,0.9067931813915445,-0.08694879971468812,0.023028569811723375,-2.2745897386673475
1780420622859993600,0.5327107906341553,-3.4349522590637207,-0.776111364364624,0.3844256103038788,0.015646886080503464,0.11988888680934906,-0.9926639795303345,-0.061819981783628464,0.20216310024261475,-0.012935936450958252,-0.42114329122876476,0.018232094063798835,-0.05775454299976671,0.904969865746091,-0.120177964665952,0.01576121369711101,-2.2695254205013855
1780420622870027264,0.5427443981170654,-3.9497034549713135,-0.6982696056365967,0.21367385983467102,0.008672288618981838,0.15623322129249573,-0.9876821041107178,-0.10811381787061691,0.15391692519187927,0.21537375450134277,-0.4222759413874235,0.029251107227880525,-0.07282384362913412,0.9030636962797313,-0.15687587882970458,0.008780219039663044,-2.2661097730513684
1780420622880062464,0.5527794361114502,-4.607922554016113,-0.6194853186607361,0.22902005910873413,0.002510672202333808,0.19851568341255188,-0.9800944924354553,-0.133003830909729,0.22236749529838562,0.4457011818885803,-0.42274709824097134,0.04124068776906202,-0.09084028180045549,0.9007398127892999,-0.1998432256086561,0.002561657903666037,-2.2637067041543144
1780420622890097408,0.562814474105835,-5.1392645835876465,-0.6021468043327332,0.24992720782756805,-0.002794588916003704,0.24634459614753723,-0.9691782593727112,-0.09879842400550842,0.3326806426048279,0.5653239488601685,-0.4230066529781303,0.054192034103845536,-0.11168744642338882,0.8975826092192938,-0.24890680465610462,-0.0028834542444940076,-2.2611469273462954
1780420622900132352,0.5728495121002197,-5.38108491897583,-0.6172354817390442,0.142877995967865,-0.008226164616644382,0.2971852123737335,-0.9547843933105469,-0.0797407478094101,0.3898112177848816,0.5387993454933167,-0.42264484306351185,0.06801559040792104,-0.13409575510016897,0.8937357079317075,-0.30174331197652954,-0.008615517047816197,-2.259440438370494
1780420622910167552,0.5828845500946045,-5.824742794036865,-0.5784525275230408,0.17072133719921112,-0.01342939306050539,0.35013601183891296,-0.9366025924682617,-0.11034990102052689,0.35834482312202454,0.4502897262573242,-0.4216642624624099,0.08240200090829665,-0.15782462012159493,0.8891009666470471,-0.35771629311072484,-0.014337428754711102,-2.2584973650571882
1780420622920202496,0.5929195880889893,-6.440280914306641,-0.555806577205658,0.10674048960208893,-0.018115080893039703,0.4071269631385803,-0.9131919145584106,-0.1572084128856659,0.22441905736923218,0.32626259326934814,-0.4200091733263971,0.09774126864257106,-0.18398556178679887,0.8832826263630478,-0.41930631548047564,-0.019834500970887573,-2.2580853991184635
1780420622930237184,0.6029543876647949,-7.510712146759033,-0.5984589457511902,0.03792973607778549,-0.02295546978712082,0.4695993661880493,-0.8825811743736267,-0.22280259430408478,-0.004191070795059204,0.2324041724205017,-0.4171879459583958,0.11474589841043173,-0.21340760124095157,0.8759251070893053,-0.48883693913138576,-0.026003608622310364,-2.2590897098161027
1780420622940272384,0.6129894256591797,-8.868938446044922,-0.6942752599716187,-0.08118786662817001,-0.028625572100281715,0.5404406785964966,-0.8408950567245483,-0.25236502289772034,-0.14145386219024658,0.20596158504486084,-0.41274158816089296,0.134637951262892,-0.24784088533265855,0.8660784376214098,-0.5709607514700521,-0.034028648838381824,-2.2621339302474706
1780420622950307328,0.6230244636535645,-10.015170097351074,-0.8310868740081787,-0.1401265561580658,-0.035571902990341187,0.6178185939788818,-0.7855156064033508,-0.2677423059940338,-0.1542871594429016,0.1795281171798706,-0.4063189581601584,0.1575877411324032,-0.2870684462179945,0.8530314798161824,-0.6659655043307298,-0.04525386514861454,-2.268191229042029
1780420622960342528,0.6330595016479492,-10.667082786560059,-0.6761881113052368,-0.20561768114566803,-0.042497798800468445,0.6958768367767334,-0.7169026136398315,-0.28385716676712036,-0.1367642879486084,0.12756240367889404,-0.39800229632387507,0.18202427271269125,-0.329265629920621,0.8366871875565806,-0.769640110121535,-0.05921044682961238,-2.2775599181663626
1780420622970377472,0.643094539642334,-11.486294746398926,-0.26953592896461487,-0.4006505608558655,-0.04796817898750305,0.77091383934021,-0.6351307034492493,-0.37407466769218445,-0.15770882368087769,0.26260262727737427,-0.38678934625625394,0.2063352151708682,-0.37397919578822997,0.8172878218117854,-0.8802745985656648,-0.07538178918998127,-2.2930518940469997
1780420622980412416,0.6531295776367188,-11.879551887512207,0.024147871881723404,-0.6966640949249268,-0.0529608391225338,0.8398594260215759,-0.5402141213417053,-0.4335961639881134,-0.17294353246688843,0.5029826760292053,-0.3720052209226025,0.2301795307771237,-0.4206070820618632,0.7948076416819855,-0.9970241825481595,-0.09772446742253416,-2.3193052064324573
1780420622990448384,0.6631655693054199,-11.91801643371582,0.15063869953155518,-1.1133912801742554,-0.060587912797927856,0.8977227807044983,-0.43637481331825256,-0.39304062724113464,-0.05017334222793579,0.48575228452682495,-0.3537408134688071,0.2535688741385115,-0.46638548940730407,0.7701005888091034,-1.1145731122957556,-0.13796173812350962,-2.3664568941909137
1780420623000483584,0.6732006072998047,-11.667206764221191,0.3797339200973511,-1.104010820388794,-0.07004345208406448,0.9424307942390442,-0.3269832730293274,-0.3298131227493286,0.29771196842193604,0.5009793043136597,-0.33305133445965207,0.275771836473585,-0.510351109533967,0.7433494567920549,-1.2298264966435861,-0.2110220105141029,-2.4484580564646716
1780420623010518272,0.6832354068756104,-10.925398826599121,0.41526809334754944,-1.0413559675216675,-0.07922538369894028,0.9725268483161926,-0.218894824385643,-0.2866498529911041,0.4598156809806824,0.2837904095649719,-0.311882605310265,0.2953602079543404,-0.5507403522340342,0.7156652171355833,-1.3358500536800457,-0.347266245766364,-2.5946301662546483
1780420623020553472,0.6932704448699951,-10.918574333190918,0.5272308588027954,-1.0610833168029785,-0.0887298732995987,0.9897599220275879,-0.1118147224187851,-0.2799529731273651,0.44841158390045166,-0.0805223137140274,-0.29025123591560853,0.31319654270834735,-0.5882181271197588,0.6867763352767995,-1.427565200675747,-0.6707917752079113,-2.9282723350467115
1780420623030588416,0.7033054828643799,-10.286775588989258,0.4172496199607849,-1.1469467878341675,-0.09946873784065247,0.9950219988822937,-0.006109070964157581,-0.29446741938591003,0.4424932599067688,-0.3622533679008484,-0.26778023061370565,0.3297608361686598,-0.6230595922629376,0.6567711696225454,-1.4709753298487227,-1.509456381281057,2.5057598505656364
1780420623040623360,0.7133405208587646,-9.492868423461914,0.10668136924505234,-1.124183177947998,-0.11092455685138702,0.9895172715187073,0.0924743041396141,-0.18569104373455048,0.3549347519874573,-0.710256814956665,-0.24649887426166553,0.3453932246937573,-0.6534069728863922,0.6268981166312114,-1.4258750902188568,-2.265732342838192,1.7419413492209963
1780420623050658560,0.7233755588531494,-8.015997886657715,0.019696131348609924,-1.1361900568008423,-0.12202387303113937,0.9762802720069885,0.17884978652000427,-0.05366583168506622,0.388526976108551,-0.6989151239395142,-0.22742191911880463,0.35940465646032427,-0.6784196243233728,0.5990446258620474,-1.3525573968830622,-2.542865293109634,1.459962456128399
1780420623060693504,0.7334105968475342,-6.16094970703125,0.053277261555194855,-1.2314060926437378,-0.13367679715156555,0.9594489336013794,0.2481696456670761,-0.07269831001758575,0.45476609468460083,-0.6513831615447998,-0.21068412508458925,0.3712402156651548,-0.6973274163044104,0.5757841080690063,-1.285040701139135,-2.647504509326081,1.3515536992267254
1780420623070728192,0.7434453964233398,-4.216406345367432,0.13669145107269287,-1.2332212924957275,-0.1457318812608719,0.9435408115386963,0.2974779009819031,-0.1660814732313156,0.5077837705612183,-0.5362780094146729,-0.19713363015817628,0.38070983692509475,-0.7097879725252879,0.5589270357334744,-1.233161550482099,-2.686064520613492,1.3102915373021906
1780420623080763392,0.7534804344177246,-2.3109323978424072,0.4473364055156708,-1.0640714168548584,-0.1575184166431427,0.9315547943115234,0.32770952582359314,-0.2236918956041336,0.4747256636619568,-0.18673363327980042,-0.1865928071457986,0.38716692945572234,-0.7169076219036702,0.5489338063515502,-1.1986657696154976,-2.693532553176498,1.2991890850562888
1780420623090798336,0.7635154724121094,-0.9303106665611267,0.769598126411438,-1.0242151021957397,-0.16916143894195557,0.9245979189872742,0.3413252532482147,-0.25529229640960693,0.4324423670768738,0.1345352828502655,-0.1785284426884165,0.3906758333164227,-0.7197464962176936,0.545403426070151,-1.179978719988935,-2.681469732441528,1.3056816990484847
1780420623100833536,0.7735505104064941,-0.29058825969696045,1.224217176437378,-1.045789361000061,-0.1821879744529724,0.9208563566207886,0.34471872448921204,-0.2979603409767151,0.49064260721206665,0.43355581164360046,-0.17101446217244284,0.39219936132479505,-0.7200965372945161,0.5462551252568935,-1.170271202629213,-2.6553964812565454,1.3231601437594407
1780420623110868480,0.7835855484008789,-0.2862795293331146,1.5531187057495117,-1.0166175365447998,-0.19658619165420532,0.9179990291595459,0.34442993998527527,-0.30364274978637695,0.4135441184043884,0.5665503740310669,-0.16257743119463408,0.3922741334759441,-0.7199555379322463,0.5489569670770907,-1.163005191837183,-2.6229520904316073,1.3430681708680574
1780420623120903424,0.7936205863952637,-0.7342269420623779,1.6760311126708984,-1.067381739616394,-0.211748868227005,0.9141852259635925,0.34558340907096863,-0.23566934466362,0.16218501329421997,0.371366024017334,-0.15288179850305822,0.39192302373015525,-0.7205470437770229,0.5512127387339174,-1.1534929916166567,-2.591866338816615,1.359197632017243
1780420623130938368,0.8036553859710693,-1.1822047233581543,1.5714831352233887,-1.0850850343704224,-0.22733594477176666,0.908430278301239,0.3508177697658539,-0.14124013483524323,-0.018156111240386963,0.08321848511695862,-0.14206779774783965,0.39201176069380933,-0.7223127179226623,0.5517317910504109,-1.1395136083947404,-2.5666125781061684,1.3688761284672752
1780420623140973312,0.8136904239654541,-1.4759767055511475,1.386614441871643,-1.1154520511627197,-0.24262134730815887,0.9010893702507019,0.3594065308570862,-0.04634962975978851,-0.041424334049224854,-0.17036530375480652,-0.13103349239364967,0.3928432147789229,-0.7248292716128941,0.5505697298470914,-1.1222751376945925,-2.5478010571033085,1.3732789101380831
1780420623151008256,0.8237254619598389,-1.7605866193771362,1.2554070949554443,-1.1636734008789062,-0.2576603293418884,0.8922703266143799,0.3707626760005951,-0.024245798587799072,0.003527402877807617,-0.22086036205291748,-0.11988752314771976,0.39437613522260817,-0.7279071350176822,0.5479468060208844,-1.1023488624297424,-2.534266170914609,1.3736339411191472
1780420623161043456,0.8337604999542236,-1.7371457815170288,1.1330945491790771,-1.2283340692520142,-0.27282699942588806,0.882472038269043,0.38315606117248535,-0.07771313190460205,0.05031299591064453,-0.17888665199279785,-0.10876139669573703,0.3964720994185965,-0.731018401892104,0.5446034874748007,-1.0810921896820678,-2.5228238584659857,1.3729938168322502
1780420623171078400,0.8437955379486084,-1.7637211084365845,1.1517255306243896,-1.2804415225982666,-0.2883470356464386,0.8720836043357849,0.39538079500198364,-0.1300336718559265,0.14093202352523804,-0.14853936433792114,-0.09767768166727515,0.39893249831247013,-0.7338550659567222,0.5410809707252812,-1.059444186836237,-2.511478580737744,1.372988682676521
1780420623181113600,0.8538305759429932,-1.675365686416626,1.1407448053359985,-1.2806867361068726,-0.3041278123855591,0.8612912893295288,0.40704235434532166,-0.13332638144493103,0.16800546646118164,-0.07150155305862427,-0.08646672897514758,0.4013253673793976,-0.7365182474542616,0.5375893171207987,-1.0378055309987764,-2.499908400860311,1.3729541898669348
1780420623191148544,0.8638656139373779,-1.5312013626098633,1.0702697038650513,-1.2734941244125366,-0.3196345865726471,0.8507441282272339,0.41721516847610474,-0.06421554088592529,0.018381357192993164,-0.11069661378860474,-0.07575070036019846,0.4037138636280933,-0.7386627818642023,0.5344664355040737,-1.0173995282717587,-2.487857819247998,1.3740862071189077
1780420623201184512,0.8739016056060791,-1.4666506052017212,1.0167901515960693,-1.3217737674713135,-0.33507588505744934,0.8401210904121399,0.42652180790901184,0.02352192997932434,-0.04884606599807739,-0.17089128494262695,-0.06534174036603917,0.40625890733376285,-0.7404151582889537,0.5314787100799461,-0.9975064781082337,-2.4756935696173885,1.3760417656021482
1780420623211219200,0.8839364051818848,-1.3697712421417236,0.8979673385620117,-1.3719948530197144,-0.35050392150878906,0.8294032216072083,0.43501394987106323,0.09063151478767395,-0.04421651363372803,-0.2668164074420929,-0.05530882698527496,0.40913405307828554,-0.7416982582405792,0.5286150649970207,-0.9780385380941997,-2.463367381336813,1.379256187330957
1780420623221254400,0.8939714431762695,-1.3194403648376465,0.6976100206375122,-1.4422999620437622,-0.36568528413772583,0.8184259533882141,0.44323036074638367,0.18029099702835083,-0.03735905885696411,-0.32090067863464355,-0.045824164257255724,0.4125910808735283,-0.7425522023618978,0.5256281386774688,-0.9586663183900102,-2.451765411724161,1.3835482868513995
1780420623231289344,0.9040064811706543,-1.2878893613815308,0.5399779677391052,-1.5091124773025513,-0.3804190456867218,0.8070722818374634,0.4515703618526459,0.2406027615070343,0.011973738670349121,-0.28338801860809326,-0.036989151840141676,0.41676037112787906,-0.74303160600767,0.5223472505487897,-0.9391767066844096,-2.441506393304776,1.388696147139444
1780420623241324544,0.9140415191650391,-1.7693172693252563,0.5698509216308594,-1.599224328994751,-0.3955996036529541,0.7936595678329468,0.4621749818325043,0.21147173643112183,0.13599753379821777,-0.12252956628799438,-0.025242686516601824,0.41823279446178435,-0.7457672722747756,0.5179530902351108,-0.9168010517052696,-2.4336532907818538,1.3829430969326675
1780420623251359488,0.9240765571594238,-1.5359596014022827,0.6453256607055664,-1.3191838264465332,-0.40988782048225403,0.7801733613014221,0.4725692868232727,0.19132086634635925,0.24912363290786743,0.09040385484695435,-0.015771929411410687,0.4222282014041149,-0.7469993267656515,0.5132900547367811,-0.8949428914474085,-2.4271059984804553,1.383448887764857
1780420623261394432,0.9341115951538086,-1.700146198272705,0.6047707796096802,-1.3006575107574463,-0.4231013059616089,0.7669007778167725,0.4825438857078552,0.2659815549850464,-0.06807875633239746,0.0074310302734375,-0.006547675776919513,0.42557307356287627,-0.7484380389932705,0.5086110924048464,-0.873997950209688,-2.4217360800655516,1.3820632524198864
1780420623271429376,0.9441463947296143,-1.7441887855529785,0.4114632308483124,-1.1807801723480225,-0.43503910303115845,0.7531704306602478,0.4934326112270355,0.3345293700695038,-0.24305367469787598,-0.14571523666381836,0.0021616886820058534,0.4289917321889116,-0.750121590548786,0.5032684814170477,-0.8528684103716507,-2.4190038482149645,1.3790349499165315
1780420623281464320,0.954181432723999,-1.4414366483688354,0.2406534105539322,-1.107893466949463,-0.4452386796474457,0.7400432825088501,0.504082202911377,0.3788628876209259,-0.13974720239639282,-0.22576183080673218,0.009763471079848332,0.43241164614893995,-0.7517055708757038,0.49785911198426563,-0.833134675714395,-2.4181001542906406,1.3758062743551194
1780420623291499264,0.9642164707183838,-1.0021567344665527,0.08631338179111481,-1.0948114395141602,-0.45411741733551025,0.7288638353347778,0.5123817920684814,0.312897264957428,-0.03817468881607056,-0.24547499418258667,0.015749214968126115,0.4360717839277139,-0.7523511805148609,0.4935191242525551,-0.8166609902639981,-2.4164055701953475,1.3759502862358992
1780420623301534464,0.9742515087127686,-0.7693686485290527,0.03978848457336426,-1.136224389076233,-0.46254095435142517,0.7192546725273132,0.5183900594711304,0.20318740606307983,0.10317867994308472,-0.15269804000854492,0.0206211044192244,0.4400766316883304,-0.7520156874153718,0.4902852617752839,-0.8027289338761631,-2.4130678885482957,1.3797748803109888
1780420623311569408,0.9842865467071533,-1.0285390615463257,0.056061193346977234,-1.186274528503418,-0.4710712730884552,0.7092705368995667,0.5244300961494446,0.08511552214622498,0.11897647380828857,-0.06675809621810913,0.025570434957756745,0.4442187222503081,-0.7515881724428949,0.4869610060738001,-0.7884628720281659,-2.409743218171214,1.3837656201609758
1780420623321604608,0.9943215847015381,-1.3281211853027344,-0.02873651497066021,-1.1757968664169312,-0.47958284616470337,0.697291910648346,0.5327142477035522,0.059065818786621094,-0.04647397994995117,-0.05294734239578247,0.031210826419448206,0.44847783736243535,-0.7518143053767576,0.48235756981724554,-0.7716124311797672,-2.4086323389510196,1.3850198073115438
1780420623331639296,1.0043563842773438,-1.4597735404968262,-0.13436107337474823,-1.165736198425293,-0.48721033334732056,0.6840564608573914,0.5428565740585327,0.0878266990184784,-0.16122913360595703,-0.11040711402893066,0.03687053857740797,0.45284680569613617,-0.7525676381113656,0.4766680356721027,-0.7533093866305528,-2.4101639733446434,1.3840404395416173
1780420623341674240,1.0143914222717285,-1.132983922958374,-0.15776653587818146,-1.1384553909301758,-0.4942134618759155,0.6711517572402954,0.5525475740432739,0.04049324989318848,-0.09331649541854858,-0.10447311401367188,0.04204302926448548,0.4572975719646207,-0.7530954149345874,0.47112498412315995,-0.7357613855230449,-2.4118651001540505,1.3837688342544308
1780420623351709440,1.0244264602661133,-0.6473985314369202,-0.06777286529541016,-1.0844624042510986,-0.500978410243988,0.6605998873710632,0.5591320395469666,-0.03501713275909424,0.04087722301483154,-0.069691002368927,0.04627856216198762,0.46157648674544854,-0.7526706936074071,0.46721765047543445,-0.7216175255708921,-2.4109957865773315,1.3868614611242616
1780420623361744384,1.034461498260498,-0.0975080132484436,0.08051034808158875,-1.0078126192092896,-0.5078843832015991,0.6531899571418762,0.5616018176078796,-0.06338948011398315,0.09029459953308105,0.02802830934524536,0.049606161050821274,0.4654310564537577,-0.7511157289547021,0.465551720365209,-0.711789669758109,-2.4063796304091936,1.3938682497037338
1780420623371779328,1.0444965362548828,0.419638454914093,0.17760053277015686,-0.9514899849891663,-0.5150430202484131,0.6491143703460693,0.5598050951957703,-0.042086005210876465,0.06246417760848999,0.10524940490722656,0.05201677096803781,0.4688272309531542,-0.7484006724777584,0.46625302104378513,-0.7064196415990213,-2.3978154695511176,1.4048993210833982
1780420623381814528,1.0545315742492676,0.7203442454338074,0.16743604838848114,-0.9423649311065674,-0.5221804976463318,0.6475284099578857,0.5550088286399841,-0.012121319770812988,0.05208712816238403,0.08526533842086792,0.053482856759365247,0.47212058403797746,-0.7447191184377372,0.4686526130777522,-0.7043365642034848,-2.3866609655510467,1.4193950650186213
1780420623391849472,1.0645666122436523,0.6600803732872009,0.10724835097789764,-1.0244568586349487,-0.5292227864265442,0.646506130695343,0.5495030283927917,-0.005414783954620361,0.07131326198577881,0.04262971878051758,0.054521638552039814,0.47560695306855116,-0.7406413031688321,0.47146160290704864,-0.7029958314548339,-2.3749924559713214,1.4353150618723887
1780420623401884416,1.074601411819458,0.25436320900917053,0.1249847337603569,-1.1944512128829956,-0.5371310710906982,0.6430246233940125,0.5459024310112,-0.04032254219055176,0.09994107484817505,0.03355002403259277,0.05656172699775952,0.4795464133230714,-0.7368761500441307,0.4731273909652267,-0.6984411543026939,-2.364293216786719,1.4498883029705831
1780420623411919360,1.0846364498138428,-0.01996075175702572,0.09444613754749298,-1.289237380027771,-0.545687198638916,0.636796236038208,0.5447166562080383,-0.11002880334854126,0.10444527864456177,-0.00560837984085083,0.05965412724003399,0.4839330246726942,-0.7335987605148678,0.473374185031174,-0.690335923986786,-2.3553043960213214,1.462350514155407
1780420623421955328,1.094672441482544,-0.17621906101703644,0.0608636736869812,-1.3498120307922363,-0.5545358657836914,0.6289227604866028,0.5449278354644775,-0.10972505807876587,0.09611392021179199,-0.08705729246139526,0.06334785563809432,0.4885682656203367,-0.7305922037002078,0.47278240257327386,-0.6801668725605508,-2.347455889068339,1.4734609388256612
1780420623431990272,1.1047074794769287,-0.08145953714847565,0.0009047342464327812,-1.3145164251327515,-0.5630857944488525,0.6206405162811279,0.5456553101539612,-0.02375197410583496,0.07949376106262207,-0.17836105823516846,0.06697345226684809,0.49335260214862714,-0.7276200006078476,0.4718971272808286,-0.669559332699668,-2.3404748135470346,1.4841773592644765
1780420623442025472,1.1147425174713135,0.26148077845573425,-0.01916404813528061,-1.2064615488052368,-0.5708498954772949,0.6138936281204224,0.5452200174331665,0.0741916298866272,0.05177098512649536,-0.23635166883468628,0.06973953549633297,0.497982972651369,-0.72430861624213,0.47172699041571425,-0.6609836675551266,-2.3332341175639586,1.4960192171498354
1780420623452060416,1.1247775554656982,0.6877306699752808,-0.062215376645326614,-1.087504267692566,-0.5776961445808411,0.6098524332046509,0.5425378680229187,0.12177878618240356,0.07473313808441162,-0.20229732990264893,0.07112564133811454,0.5024228413098164,-0.7203056393566966,0.4729400187196079,-0.6558743747953161,-2.324820018916858,1.5104478449922096
1780420623462095616,1.134812593460083,0.9611608386039734,-0.14754199981689453,-1.0492609739303589,-0.5835627913475037,0.6083104014396667,0.5379713773727417,0.12061107158660889,0.08245503902435303,-0.14856702089309692,0.07109989466633614,0.5067795287985793,-0.7156536837679913,0.4753516806585595,-0.6539301095740607,-2.315565907226335,1.5274028347746753
1780420623472130304,1.1448473930358887,0.7662105560302734,-0.17058151960372925,-1.1922945976257324,-0.589444637298584,0.606453537940979,0.5336377024650574,0.053815364837646484,0.1171945333480835,-0.06468939781188965,0.07091131102088616,0.5115031438760487,-0.7107625324723221,0.4776533767007454,-0.6515926622804802,-2.306544467571569,1.545107317809549
1780420623482165248,1.1548824310302734,0.6260805726051331,-0.06238023191690445,-1.306559681892395,-0.5965944528579712,0.6022303700447083,0.5304656624794006,-0.057229459285736084,0.3198583126068115,-0.014504969120025635,0.07198375561654025,0.5164859504185092,-0.706027689839124,0.4791508852380987,-0.6462920187432258,-2.297587989485844,1.5616352579554604
1780420623492200448,1.1649174690246582,0.6449189782142639,0.06271350383758545,-1.1677032709121704,-0.6039880514144897,0.5983985662460327,0.5264198780059814,-0.07595890760421753,0.28897637128829956,-0.11264723539352417,0.07312803885032372,0.5211569437883307,-0.701145754587636,0.4810846650726923,-0.641500821091619,-2.287682237653363,1.578402540950532
1780420623502235392,1.174952507019043,0.7503466010093689,0.1349480152130127,-1.0881959199905396,-0.6113922595977783,0.5949797034263611,0.5217261910438538,-0.002956986427307129,0.014151036739349365,0.09427094459533691,0.07451515895201993,0.5251268371061036,-0.6964947296140165,0.48330553601970133,-0.637240388811191,-2.277226947715544,1.5940458144234986
1780420623512270336,1.1849875450134277,1.0946283340454102,0.04119343310594559,-0.8726462721824646,-0.6176552176475525,0.5939123034477234,0.5155288577079773,0.014231204986572266,0.15353941917419434,0.0908706784248352,0.07468930401960665,0.5286474198096065,-0.6915897123852556,0.4864740813101075,-0.6359130332519655,-2.2663139163115087,1.6108929144209665
1780420623522305536,1.1950225830078125,0.9558504819869995,0.11591693758964539,-0.7609426975250244,-0.6228687167167664,0.5941894054412842,0.5088948607444763,-0.03203856945037842,0.02667558193206787,0.022874116897583008,0.07415087691917746,0.531692357655814,-0.6868410712510693,0.4899534499285284,-0.636257466346454,-2.255828170502569,1.6273985434959513
1780420623532340224,1.2050573825836182,0.6226882338523865,0.2006697803735733,-0.7520133852958679,-0.6281067132949829,0.5936360955238342,0.5030691027641296,-0.11423343420028687,-0.07624095678329468,-0.03442579507827759,0.0743887390371068,0.5341225966460252,-0.6828232566646131,0.49288119364589067,-0.6355697040515339,-2.2461037033316713,1.6409860075013294
1780420623542375424,1.215092420578003,0.29480117559432983,0.16691181063652039,-0.8180136680603027,-0.6337369084358215,0.5908821225166321,0.49923500418663025,-0.08356344699859619,0.09527504444122314,-0.030973374843597412,0.07930627150979551,0.5316704990836946,-0.683332996516043,0.49405761506181795,-0.6321518309184766,-2.2380315275917675,1.637200713365956
1780420623552410368,1.2251274585723877,0.06821677088737488,0.14677178859710693,-0.9156816601753235,-0.6395872831344604,0.5862253904342651,0.4972604811191559,-0.05374157428741455,0.27658283710479736,0.055245041847229004,0.08502069356386169,0.5294649075097797,-0.6843223992447339,0.4941065445880022,-0.6263918006094704,-2.2316482286545196,1.6312526380637118
1780420623562445312,1.2351624965667725,-0.13043665885925293,0.23428219556808472,-0.9407811164855957,-0.6460062265396118,0.580008864402771,0.4962514340877533,-0.1252034306526184,0.21389061212539673,0.11381015181541443,0.09153162602214811,0.5274155616688632,-0.6855352235411497,0.4934533332886509,-0.6187395846612,-2.2258337668813795,1.6240085173373273
1780420623572480512,1.2451975345611572,-0.4107740521430969,0.5963015556335449,-0.8193963766098022,-0.653093159198761,0.57275390625,0.4954010248184204,-0.17260563373565674,0.06733697652816772,0.2281249463558197,0.09921922839671955,0.5246801690273447,-0.6873217807709809,0.49239719792458636,-0.6098614773589349,-2.2197442958668083,1.6141029910984452
1780420623582515456,1.255232572555542,0.0592682920396328,0.706814169883728,-0.6039474606513977,-0.6607785224914551,0.5669904947280884,0.491827130317688,-0.0424228310585022,0.0028185248374938965,0.1830233931541443,0.10383697431222753,0.5255302909824734,-0.6853695890248418,0.4932590240949729,-0.602847735943317,-2.2106488548329755,1.6181272711629837
1780420623592550400,1.2652676105499268,0.9987055659294128,0.486356258392334,-0.44560179114341736,-0.6663575172424316,0.5664507746696472,0.48487240076065063,0.25124216079711914,-0.11280697584152222,0.20117807388305664,0.10563486222526851,0.525962151388368,-0.6824954350374449,0.49639207396554486,-0.6021926298366805,-2.199836741042574,1.6267444490214376
1780420623602585344,1.2753024101257324,1.3818126916885376,0.3585143983364105,-0.3283414840698242,-0.6706079244613647,0.5695274472236633,0.4753139317035675,0.21311897039413452,-0.1667259931564331,-0.13594332337379456,0.10491138358514454,0.526885022255905,-0.6782692271356829,0.5013347929453735,-0.6059308450476417,-2.187391097185883,1.641281388057501
1780420623612620288,1.2853374481201172,1.6554181575775146,0.39400407671928406,-0.4517078995704651,-0.6745701432228088,0.5742098093032837,0.46393758058547974,0.05814564228057861,0.08455783128738403,-0.14075642824172974,0.10305484284680169,0.5280591380725561,-0.6731436201721152,0.5073567438114294,-0.6116386511243268,-2.1732553798269376,1.6594845717166982
1780420623622656256,1.2953734397888184,1.9178545475006104,0.3692907392978668,-0.5300474166870117,-0.6791638731956482,0.5790635943412781,0.45102325081825256,-0.05379205942153931,0.1923292875289917,-0.038044095039367676,0.10087069667325443,0.5296349409095441,-0.6670820408449911,0.5141143194012038,-0.6175796230449051,-2.157010205513588,1.6809852392802256
1780420623632691456,1.3054084777832031,2.1620616912841797,0.4252558648586273,-0.6308251619338989,-0.6843222975730896,0.5842267870903015,0.43632787466049194,-0.0262337327003479,0.252122700214386,0.11404132843017578,0.09823949438964026,0.5315609693601824,-0.6600052119588247,0.5217135505453339,-0.6239269882009396,-2.1384092109410044,1.70610965822343
1780420623642726400,1.315443515777588,2.326625108718872,0.44046491384506226,-0.7473682761192322,-0.6902471780776978,0.5891456007957458,0.4200788736343384,-0.027572035789489746,0.28850942850112915,0.17460191249847412,0.0954831547703208,0.5337635333682561,-0.6520244881815888,0.5299466997540806,-0.6300010411337301,-2.1175095214110704,1.7342580196388495
1780420623652761344,1.3254785537719727,2.328962564468384,0.4808465838432312,-0.8448024392127991,-0.6968675851821899,0.5933035016059875,0.4029473066329956,-0.08039987087249756,0.26242464780807495,0.0639563798904419,0.09279666155902667,0.5362394029855743,-0.6433668871842639,0.538437665685324,-0.6351564704723329,-2.095052019692483,1.7644766307052069
1780420623662796544,1.3355135917663574,1.9620182514190674,0.49783915281295776,-0.9271553754806519,-0.7041100263595581,0.5956798791885376,0.386515736579895,-0.11824709177017212,0.06526976823806763,0.03563389182090759,0.09090960263853666,0.5387654884030503,-0.6348146264794468,0.546330972007186,-0.6381118130265828,-2.0728270557323025,1.793609903169448
1780420623672831232,1.345548391342163,1.5659314393997192,0.6153414249420166,-0.8761797547340393,-0.7116678357124329,0.5959092974662781,0.3720496892929077,-0.09334009885787964,-0.11016100645065308,0.12576830387115479,0.09039420698150613,0.5409383036547659,-0.6272245221356717,0.5529955154599634,-0.6383975015262208,-2.052505814351515,1.8184302057860366
1780420623682866432,1.3555834293365479,1.5021132230758667,0.7286602258682251,-0.7282867431640625,-0.7189188599586487,0.595766007900238,0.3580758571624756,-0.06545913219451904,-0.2493000030517578,0.19934293627738953,0.09014672901398939,0.5427390518666221,-0.6200582586592106,0.5593170662268485,-0.6382190863409152,-2.03290311352557,1.8415392992517585
1780420623692901376,1.3656184673309326,1.4214493036270142,0.8204182982444763,-0.6932826638221741,-0.7258803248405457,0.5957658886909485,0.34374505281448364,-0.033427536487579346,-0.2591570019721985,0.16032898426055908,0.09061082230808855,0.5433619143683969,-0.6137021681940857,0.5656121558740299,-0.638218888760731,-2.0130658969713173,1.861645839615657
1780420623702936320,1.3756535053253174,1.5191912651062012,0.8130727410316467,-0.7522607445716858,-0.7329260110855103,0.5954859852790833,0.32896143198013306,-0.01953059434890747,-0.022427022457122803,0.14117702841758728,0.09115488250256842,0.5438867119820849,-0.6071803389281243,0.572022693863774,-0.6378704775361644,-1.9926794287252303,1.8820668542055663
1780420623712971520,1.3856885433197021,1.6463381052017212,0.8866706490516663,-0.8229343891143799,-0.7403792142868042,0.5947846174240112,0.313161164522171,-0.0391618013381958,0.18411552906036377,0.15598559379577637,0.09165000563245566,0.5445615510907569,-0.6000277496573523,0.5788088624037742,-0.636997698188576,-1.970949701653186,1.904270545646405
1780420623723006464,1.395723581314087,1.6460951566696167,0.9914700388908386,-0.8785486817359924,-0.7483251094818115,0.5934923887252808,0.29627084732055664,-0.07566475868225098,0.16645634174346924,0.22709035873413086,0.09243398260317626,0.5451123457276832,-0.5924423619140831,0.5859356456318451,-0.6353911658140224,-1.9477735450786557,1.927362509933539
1780420623733041408,1.4057583808898926,1.517682671546936,1.0948680639266968,-0.9112120866775513,-0.756721019744873,0.5912660956382751,0.27888602018356323,-0.0561908483505249,0.011608541011810303,0.34783822298049927,0.09386202298949244,0.5454070657603567,-0.5847855477499143,0.5930824558070935,-0.6326278253004645,-1.9238961414912712,1.9498521678847183
1780420623743076352,1.4157934188842773,1.4482667446136475,1.0955575704574585,-0.8368555307388306,-0.7649223208427429,0.5886087417602539,0.26159873604774475,-0.01367276906967163,-0.12611478567123413,0.3298472464084625,0.0956707034924294,0.5453283695080979,-0.577422148090553,0.6000398672334435,-0.6293367704241459,-1.9003210096712397,1.9708619496639725
1780420623753111296,1.425828456878662,1.5298449993133545,0.9734510779380798,-0.8641995787620544,-0.7725598812103271,0.5858889222145081,0.24471516907215118,0.01912665367126465,-0.18568140268325806,0.08521032333374023,0.09717064771361619,0.5452966727074278,-0.5700957118318956,0.6067951164193032,-0.6259765327691337,-1.877556417089658,1.9916776005033783
1780420623763146496,1.4358634948730469,1.7080714702606201,0.8955507278442383,-0.9172353148460388,-0.7799838185310364,0.5828402638435364,0.22786477208137512,0.03962743282318115,-0.009537100791931152,-0.08795692026615143,0.09807601028641019,0.5457589309212716,-0.5622095498712004,0.6135541087004824,-0.6222196358070291,-1.855026967849988,2.014186169420188
1780420623773181440,1.4458985328674316,1.625744342803955,0.7736621499061584,-1.0829873085021973,-0.7875823378562927,0.5788533687591553,0.211287721991539,0.06687933206558228,0.19580471515655518,-0.14053277671337128,0.09881675662397763,0.5467421539596663,-0.5538202584593853,0.6201542020669152,-0.6173217977542509,-1.8328985745723092,2.0376884204078993
1780420623783216384,1.4559335708618164,1.2701988220214844,0.7883076667785645,-1.2669049501419067,-0.7960183620452881,0.5723885297775269,0.19678941369056702,0.055433034896850586,0.23808205127716064,0.0009340047836303711,0.10068764519485457,0.548318377573592,-0.5456570931257981,0.6256734490796039,-0.6094158176013625,-1.813154154653238,2.0584972808508764
1780420623793251584,1.4659686088562012,1.03329336643219,0.9094594120979309,-1.3396835327148438,-0.8050919771194458,0.5640929937362671,0.18337351083755493,0.017570674419403076,0.26995235681533813,0.2275456041097641,0.10398238069362012,0.54974464888007,-0.5380219136016466,0.6304766709537454,-0.5993344124399279,-1.7947430373816247,2.0757338301127426
1780420623803287552,1.4760046005249023,0.9375287890434265,1.0197499990463257,-1.389896035194397,-0.8144765496253967,0.5547916293144226,0.16980595886707306,-0.044455885887145996,0.21150469779968262,0.21242664754390717,0.10815508481767536,0.5508362951069246,-0.5305491096080215,0.6351373335421868,-0.5881124626105019,-1.7763368551279828,2.0911304002180913
1780420623813322240,1.486039400100708,0.5491189956665039,1.0629874467849731,-1.4067573547363281,-0.8239924311637878,0.5443925857543945,0.15707659721374512,-0.06767010688781738,0.04467290639877319,0.009213671088218689,0.11343256224555945,0.55159913337565,-0.5237143236271719,0.6392141351601327,-0.5756648301912246,-1.7591649810695102,2.103085748704237
1780420623823357440,1.4960744380950928,0.8705611824989319,0.8635778427124023,-1.4071975946426392,-0.8330269455909729,0.5338118076324463,0.1452968269586563,0.0585671067237854,0.004762411117553711,-0.016344785690307617,0.11859057521215985,0.5525039384671513,-0.5170955526589688,0.642874727387185,-0.5631019784055051,-1.7434794796465085,2.1140284069436133
1780420623833392384,1.5061094760894775,1.855260968208313,0.5732686519622803,-1.4503378868103027,-0.8416565656661987,0.5236193537712097,0.13204915821552277,0.17667853832244873,0.3046277165412903,-0.31440699100494385,0.12150846312459934,0.5545465191644076,-0.5084316419355537,0.6474651560437342,-0.551093737580234,-1.7264196685506703,2.132072238703446
1780420623843427328,1.5161445140838623,2.450709819793701,0.20696015655994415,-1.505183219909668,-0.8498926758766174,0.5137572288513184,0.11720111966133118,0.2692651152610779,0.5589662194252014,-0.6593000888824463,0.12114628077358126,0.5583881450704763,-0.4967929544272516,0.653240450794605,-0.5395584415134039,-1.7078331070676884,2.160401944968337
1780420623853462528,1.526179552078247,2.3917651176452637,-0.06254760921001434,-1.3906415700912476,-0.8573917150497437,0.5040441155433655,0.10401470214128494,0.39419591426849365,0.3446192145347595,-0.3875077962875366,0.119213202400997,0.5631866480658391,-0.48459070498425155,0.6586204597968919,-0.5282748732415534,-1.6915216448631987,2.1909285606037443
1780420623863497472,1.5362145900726318,1.9843733310699463,-0.16749559342861176,-1.1938642263412476,-0.8637394905090332,0.49509599804878235,0.09398910403251648,0.2877355217933655,-0.25779134035110474,-0.11558032780885696,0.11690944049946164,0.5680143259139272,-0.47366050726546155,0.6628254514653379,-0.5179453263507645,-1.6791863467761063,2.218119512165483
1780420623873532416,1.5462496280670166,1.396121621131897,-0.015588222071528435,-1.1189402341842651,-0.869342029094696,0.48655813932418823,0.0866350457072258,0.08081358671188354,-0.41275137662887573,-0.021647930145263672,0.11580828531122159,0.5720038023075268,-0.46489694934534054,0.6657859393173177,-0.5081457764026703,-1.670124258499493,2.2384550529722644
1780420623883567616,1.5562846660614014,1.6013532876968384,0.010602900758385658,-1.0454857349395752,-0.8745757937431335,0.4783455729484558,0.07939061522483826,0.004641711711883545,-0.1878029704093933,0.053864359855651855,0.11519796795806166,0.5753169966275415,-0.4568431478529501,0.6686061557440043,-0.49876981117312436,-1.6613243554173704,2.256461249964445
1780420623893602560,1.5663197040557861,1.7615842819213867,0.034651510417461395,-1.0767672061920166,-0.8795949220657349,0.4703744947910309,0.07113750278949738,-0.005948841571807861,-0.10312598943710327,0.028014056384563446,0.11382954244140023,0.578636082638303,-0.44805026155604577,0.6719182021408571,-0.4897150987875989,-1.6514959865552954,2.276866867071953
1780420623903637760,1.576354742050171,1.6975629329681396,0.15626609325408936,-1.184343695640564,-0.8849338293075562,0.46154478192329407,0.062197424471378326,-0.11871302127838135,0.021197527647018433,0.08619427680969238,0.11280886122506804,0.5818119152875738,-0.43885488160025166,0.6754076167457626,-0.47973576028377624,-1.6409657633185386,2.2974276727154535
1780420623913672704,1.5863897800445557,1.6722426414489746,0.19236484169960022,-1.2800287008285522,-0.8907066583633423,0.45149362087249756,0.05286813899874687,-0.16518616676330566,0.10821396112442017,0.14288687705993652,0.11252456637509094,0.5848139978156505,-0.4294492495801878,0.6788991843000303,-0.46843856446144616,-1.630082045453623,2.3171483369429726
1780420623923707392,1.5964245796203613,1.6211730241775513,0.2135513424873352,-1.3312463760375977,-0.896641194820404,0.44060489535331726,0.04361366108059883,-0.0707356333732605,0.020363181829452515,0.18806052207946777,0.11251726144086445,0.5878402638648114,-0.4198221700704188,0.6822999022496681,-0.45627239198895153,-1.6193991722941559,2.3365490321529188
1780420623933742592,1.606459617614746,1.1865204572677612,0.18132629990577698,-1.3171387910842896,-0.9025522470474243,0.4291093647480011,0.035563599318265915,-0.030614376068115234,-0.21785137057304382,0.14496314525604248,0.11333462833665996,0.5907212674186291,-0.4108895027753891,0.685108415104445,-0.44350651082307196,-1.6101793213922428,2.35299653312616
1780420623943777536,1.6164946556091309,0.8462986946105957,0.08519870787858963,-1.3830310106277466,-0.9082752466201782,0.41729480028152466,0.030017808079719543,-0.026737511157989502,-0.33384451270103455,-0.014896394684910774,0.11524766718005094,0.5935377007466368,-0.4033880287914428,0.6868107691628681,-0.4304665267238799,-1.6038335441267701,2.3646239518340053
1780420623953812480,1.6265296936035156,0.9359340667724609,-0.037494853138923645,-1.4569470882415771,-0.9141779541969299,0.40446028113365173,0.026279112324118614,0.05021005868911743,-0.08805403113365173,-0.19870340824127197,0.11761977778680807,0.5968554412147872,-0.396110008591833,0.6877688843042988,-0.4163885965298398,-1.5995345811681478,2.374669380535008
1780420623963847680,1.6365647315979004,1.1369174718856812,-0.25483837723731995,-1.4864407777786255,-0.9200080037117004,0.3912067115306854,0.023292455822229385,0.19707715511322021,-0.028352737426757812,-0.2036818265914917,0.11926493135111085,0.6008281139235957,-0.3881388993908225,0.6885706983204146,-0.4019424250340855,-1.5961085859956754,2.386620787902652
1780420623973882624,1.6465997695922852,1.2460691928863525,-0.2941548824310303,-1.4294687509536743,-0.9255821108818054,0.37794312834739685,0.021371860057115555,0.20506209135055542,-0.20081910490989685,-0.04082679748535156,0.12023127146176107,0.6053145440311338,-0.37984237853739056,0.6890997957020119,-0.3875736405612189,-1.593882406390889,2.399725133036465
1780420623983917568,1.6566345691680908,1.31013822555542,-0.26168107986450195,-1.4425004720687866,-0.9308502078056335,0.36489567160606384,0.019214661791920662,0.032260000705718994,-0.22048646211624146,0.041927337646484375,0.12077868780887173,0.6097318688284996,-0.37126052654578495,0.6897863876951158,-0.3735207601839089,-1.5914354504479427,2.41379039015413
1780420623993953536,1.666670560836792,1.5958932638168335,-0.20239220559597015,-1.4797104597091675,-0.9360756874084473,0.35142624378204346,0.016182785853743553,-0.09703588485717773,-0.07658493518829346,0.0071784257888793945,0.12096535063919142,0.6141171624687427,-0.36187221977490236,0.6908516453365695,-0.35909407988956954,-1.5880825071677653,2.429696472073905
1780420624003988480,1.6767055988311768,1.9118821620941162,-0.21561239659786224,-1.4602986574172974,-0.9411328434944153,0.33782464265823364,0.011983998119831085,-0.08346432447433472,-0.003901273012161255,-0.07932102680206299,0.12030265250003508,0.6184909999216559,-0.3513700072085668,0.6924849033371615,-0.3446046910449768,-1.5835292265885947,2.4486420193420884
1780420624014023424,1.6867406368255615,2.1512722969055176,-0.2703099846839905,-1.4858522415161133,-0.9459971785545349,0.3240876793861389,0.007532591465860605,-0.017091810703277588,-0.11473706364631653,-0.11196374893188477,0.1185762601129364,0.6231529809895991,-0.33977442218905646,0.6943871247071737,-0.3300471862428282,-1.5787587524738425,2.4706902836741067
1780420624024058624,1.6967756748199463,2.1255996227264404,-0.21101604402065277,-1.5319608449935913,-0.9507884383201599,0.3098260462284088,0.0030310519505292177,-0.07348829507827759,-0.1276513636112213,-0.08858704566955566,0.11675484560228677,0.627776146958407,-0.32773866912427707,0.6963137109275865,-0.3150100677613462,-1.573984251139618,2.4933329526511177
1780420624034093568,1.706810712814331,2.6034834384918213,-0.15695519745349884,-1.470961332321167,-0.9553627967834473,0.2954263687133789,-0.002343191299587488,-0.16066515445709229,-0.01681610941886902,-0.07053279876708984,0.1143954849432854,0.6321692334621246,-0.3149451772142289,0.6986310971791576,-0.29990178552103924,-1.5683436600486247,2.517810703671507
1780420624044128768,1.7168457508087158,3.2533557415008545,-0.1203780248761177,-1.4662036895751953,-0.9596053957939148,0.28118953108787537,-0.009494328871369362,-0.14964765310287476,0.03678840398788452,-0.09336519241333008,0.10994066419190497,0.6365865146778079,-0.30001740733743204,0.7018976429061502,-0.2850334310171488,-1.5609026562111534,2.548586091286315
1780420624054163456,1.7268805503845215,3.731182098388672,-0.06659933924674988,-1.4528743028640747,-0.9636536836624146,0.2665310502052307,-0.018244784325361252,-0.19630420207977295,0.1255587935447693,-0.18280500173568726,0.10379329591983064,0.6409226962561033,-0.2830118460829924,0.7059386457061237,-0.2697920767387679,-1.5518656611935215,2.584835044890119
1780420624064198400,1.7369155883789062,4.1588521003723145,-0.12130758911371231,-1.3910013437271118,-0.9673542380332947,0.2519022822380066,-0.02777010202407837,-0.19295459985733032,0.1017201840877533,-0.21753019094467163,0.09592629329475882,0.6451390118060771,-0.26440613604470486,0.710410625441211,-0.2546454097681169,-1.5420969361809123,2.625643050902783
1780420624074233600,1.746950626373291,4.297694683074951,-0.18471825122833252,-1.4270378351211548,-0.9708598852157593,0.23682692646980286,-0.03666093945503235,-0.12913089990615845,0.08858196437358856,-0.18320298194885254,0.08698543500379949,0.6494421309352727,-0.2447334223020973,0.7146775096026695,-0.23909856610631486,-1.5330529484178788,2.669038476462025
1780420624084268544,1.7569856643676758,4.321522235870361,-0.18136534094810486,-1.4936898946762085,-0.9742730855941772,0.22084148228168488,-0.04495718330144882,-0.17234861850738525,0.15806476771831512,-0.13767528533935547,0.07789746423175148,0.6535447531584531,-0.2245009200224682,0.718617190953914,-0.22267717171977386,-1.5246847006770805,2.712921604928144
1780420624094303488,1.7670207023620605,4.580122470855713,-0.11594385653734207,-1.6087263822555542,-0.9776792526245117,0.20334377884864807,-0.05286422744393349,-0.2780885696411133,0.19446812570095062,-0.09062939882278442,0.06880814220535517,0.6574187145608945,-0.20339252801031962,0.7222863506192944,-0.20477184076164812,-1.5167777955055555,2.7575691401058773
1780420624104338688,1.7770557403564453,4.870355606079102,0.11893070489168167,-1.6562092304229736,-0.9808633923530579,0.18452619016170502,-0.06210572272539139,-0.38072413206100464,0.24635149538516998,-0.004804074764251709,0.059163747512750234,0.6604910987147834,-0.18082767015812598,0.7263281333445792,-0.18558975293943764,-1.5075633359008567,2.804769952312528
1780420624114373632,1.78709077835083,4.979920387268066,0.05383705720305443,-1.685897946357727,-0.9837299585342407,0.16476497054100037,-0.07161099463701248,-0.38628053665161133,0.264342725276947,-0.04130405932664871,0.048932013261775986,0.6629316298265189,-0.15721373198642308,0.7303501098819988,-0.1655197241829752,-1.498129126439906,2.8538404746948296
1780420624124408576,1.7971255779266357,5.393487930297852,0.0944361463189125,-1.7337621450424194,-0.9863105416297913,0.14395880699157715,-0.08042043447494507,-0.30360645055770874,0.29186272621154785,-0.02259165048599243,0.03794916723891848,0.6650172757602757,-0.1324454757239481,0.7340096263846606,-0.1444607368708687,-1.4894396716565461,2.9050862012883893
1780420624134443520,1.8071606159210205,5.594051361083984,0.06460967659950256,-1.77049720287323,-0.9885911345481873,0.12167911976575851,-0.08877885341644287,-0.29490184783935547,0.2443792223930359,-0.13749372959136963,0.02604545974292889,0.6666054949040014,-0.1060551148543979,0.737367618317844,-0.1219813996939827,-1.481233166623662,2.9594369210938454
1780420624144478464,1.8171956539154053,5.619700908660889,0.027989348396658897,-1.788889765739441,-0.990498423576355,0.09892573952674866,-0.09553226828575134,-0.25989824533462524,0.25985413789749146,-0.14920341968536377,0.013963628676881107,0.6677742335678016,-0.07944455944240499,0.7399804606613001,-0.09908780811418558,-1.4746450520143644,3.0138529537508822
1780420624154514432,1.8272316455841064,5.510433673858643,-0.09510035812854767,-1.8908257484436035,-0.992119312286377,0.07521882653236389,-0.10020668059587479,-0.21153968572616577,0.2314065396785736,-0.1667000651359558,0.002035685840627385,0.6686821842321369,-0.052543262104531155,0.7416867282142061,-0.07528993755934145,-1.4701350472535046,3.0680289392232334
1780420624164549632,1.8372666835784912,5.3461785316467285,-0.16489088535308838,-2.068049192428589,-0.9935212731361389,0.0498788021504879,-0.10211578756570816,-0.22295516729354858,0.1846030056476593,-0.22405606508255005,-0.008769775284978703,0.6695388216724585,-0.025687976249877544,0.7422809545079491,-0.04989950647232673,-1.468374298509997,3.12018545554593
1780420624174584576,1.847301721572876,5.1744208335876465,-0.0948747843503952,-2.119311809539795,-0.9944243431091309,0.023479511961340904,-0.10280556231737137,-0.28516244888305664,0.18338389694690704,-0.12200218439102173,-0.018777560984549326,0.6697730556229659,0.0011274654583561096,0.7423275784368188,-0.02348166925063484,-1.4677803067010262,-3.1121918220310283
1780420624184619776,1.8573367595672607,5.168971538543701,-0.10930512845516205,-2.227638006210327,-0.9947245121002197,-0.0035497217904776335,-0.10252147912979126,-0.2977406978607178,0.2403813898563385,-0.04472583532333374,-0.028018157553557365,0.6693084268304093,0.027667513560317582,0.7419405344832513,0.003549729142581059,-1.4680937543809738,-3.0628991550447027
1780420624194654464,1.8673715591430664,5.056423664093018,-0.155728280544281,-2.30245041847229,-0.9944721460342407,-0.03134961426258087,-0.10021085292100906,-0.271320641040802,0.27294203639030457,-0.10128145664930344,-0.03675399577574859,0.6685378608798742,0.054329576554125285,0.7407796631317367,0.03135475273722373,-1.470367455019945,-3.0140889597767395
1780420624204689408,1.8774065971374512,4.714653491973877,-0.1339377611875534,-2.3681178092956543,-0.9935188293457031,-0.05946006253361702,-0.09687528014183044,-0.2805595397949219,0.21561850607395172,0.029629766941070557,-0.04440252840948103,0.6671698862788621,0.08029136572977293,0.7392334190069919,0.05949515464299525,-1.4735963580695375,-2.967626608986762
1780420624214724608,1.887441635131836,4.604118347167969,-0.3281959295272827,-2.5033681392669678,-0.991947591304779,-0.08828762173652649,-0.09080343693494797,-0.27379947900772095,0.140060693025589,0.037870705127716064,-0.05092150476490092,0.6658643706196693,0.10593829767137916,0.736755537436831,0.08840272360417153,-1.4795101869166956,-2.922891697712173
1780420624224759552,1.8974766731262207,4.515827178955078,-0.3047982156276703,-2.603043556213379,-0.9895963072776794,-0.11753042042255402,-0.082982137799263,-0.2341892123222351,0.2642589211463928,-0.00525946170091629,-0.056492312222615734,0.664291982821805,0.13124440187201342,0.7336891990096049,0.11780269831918401,-1.4871375110327423,-2.8795435944385357
1780420624234794496,1.9075117111206055,4.349605083465576,-0.2748054265975952,-2.675395965576172,-0.9863064885139465,-0.14723768830299377,-0.07430014759302139,-0.2212892770767212,0.29460710287094116,-0.05776464194059372,-0.06138026800341603,0.6620981832525256,0.15644782717083341,0.7303304102106188,0.14777493427237479,-1.4956066413715519,-2.8368013576843922
1780420624244829696,1.9175467491149902,3.7996790409088135,-0.4198514223098755,-2.6970150470733643,-0.9821664690971375,-0.17668642103672028,-0.06427160650491714,-0.13811850547790527,0.19055667519569397,-0.13139182329177856,-0.0648588072397095,0.6597658559469655,0.18048050215100048,0.7265872822683457,0.17761888401428716,-1.5054508854991708,-2.797105350943742
1780420624254864384,1.927581548690796,3.3790814876556396,-0.4991616904735565,-2.722572088241577,-0.9772551655769348,-0.2054007649421692,-0.052751123905181885,-0.06530147790908813,0.13362343609333038,-0.04247897490859032,-0.06635942162952446,0.6577181053127302,0.2025619204466653,0.7224762427800111,0.20687318526504006,-1.5168697983334265,-2.762327681854742
1780420624264899584,1.9376165866851807,3.0712368488311768,-0.415146142244339,-2.767591714859009,-0.9714204668998718,-0.2337736040353775,-0.0411355085670948,-0.1073453426361084,0.0965818464756012,0.007291499525308609,-0.06651687105710126,0.6553890469344772,0.22337735400020703,0.7184310775175435,0.2359570347940143,-1.5284758785140533,-2.7306847009961364
1780420624274934528,1.9476516246795654,3.210679054260254,-0.45505279302597046,-2.759178638458252,-0.9646843671798706,-0.2617669999599457,-0.029363134875893593,-0.1657477617263794,0.15254458785057068,-0.11463403701782227,-0.06633267713563992,0.6525868374760727,0.24382135263158258,0.7143399509128503,0.26485259117629906,-1.540367645939584,-2.699404255951356
1780420624284969472,1.9576866626739502,3.089385509490967,-0.5109144449234009,-2.77138090133667,-0.9571820497512817,-0.28905728459358215,-0.015755590051412582,-0.1354539394378662,0.22117093205451965,-0.11691957712173462,-0.0661982534470456,0.6498184110491498,0.2643070894129579,0.7095741604584838,0.29324192777646163,-1.5543374225671232,-2.6670237457272767
1780420624295004672,1.967721700668335,2.963609457015991,-0.41325557231903076,-2.8718135356903076,-0.9486391544342041,-0.3163537383079529,-0.002031764481216669,-0.1287534236907959,0.2876824736595154,0.10635608434677124,-0.06544636994622438,0.6465759712603396,0.28447079145869925,0.7047926363440745,0.32188334317349543,-1.568654562635677,-2.635199156432685
1780420624305039616,1.9777567386627197,2.7205703258514404,-0.3299731910228729,-2.929746627807617,-0.9390082955360413,-0.3437231183052063,0.010846125893294811,-0.1836417317390442,0.2804449498653412,0.06102275848388672,-0.0638810135558522,0.6426514651772207,0.30401012704211744,0.7003542459602035,0.35087871159270584,-1.582346430871895,-2.604800644442626
1780420624315074560,1.9877917766571045,2.2669529914855957,-0.2715916335582733,-2.992142915725708,-0.9283378720283508,-0.37103989720344543,0.022765284404158592,-0.16614454984664917,0.28819993138313293,0.035889506340026855,-0.061123195957769515,0.6382849802286089,0.3224514328151012,0.6963342078758975,0.3801285974489158,-1.5953140421239482,-2.577153628369318
1780420624325110784,1.9978277683258057,1.822184443473816,-0.11836959421634674,-3.058476686477661,-0.9165688753128052,-0.39856016635894775,0.03242456167936325,-0.14838778972625732,0.34423890709877014,0.07843053340911865,-0.056674538615388764,0.6333459811768042,0.3392420217574879,0.6932357008292989,0.4099464099631656,-1.606157605034105,-2.5541746531461755
1780420624335145472,2.0078625679016113,1.494592547416687,-0.08436781913042068,-3.0425899028778076,-0.9039093852043152,-0.42583930492401123,0.04010610282421112,-0.09175699949264526,0.3908204436302185,0.0061128102242946625,-0.05115531685216563,0.6279014661454883,0.3546728082497256,0.6908907251221474,0.4398893044131896,-1.6151368512601603,-2.5346167385032468
1780420624345180416,2.017897605895996,1.1948579549789429,-0.1645851582288742,-3.0346834659576416,-0.8904745578765869,-0.4525846242904663,0.047142282128334045,0.025682568550109863,0.40963107347488403,0.013877637684345245,-0.04465054377322318,0.6224896285979863,0.36888725033508585,0.6887926048598145,0.4696616746314964,-1.623687579925118,-2.5179429741018184
1780420624355215616,2.027932643890381,0.9485989809036255,-0.23166711628437042,-3.0567357540130615,-0.8761075139045715,-0.4791035056114197,0.05380823463201523,0.07447189092636108,0.33487749099731445,0.050561897456645966,-0.03707779573758993,0.6171726911410691,0.3821020635923747,0.686819521617152,0.4996330838185533,-1.6321366656356249,-2.503885749414148
1780420624365250560,2.0379676818847656,0.8164268136024475,-0.16221614181995392,-2.959702968597412,-0.861080527305603,-0.5049130916595459,0.06002349779009819,0.015575945377349854,0.22798144817352295,0.0038344748318195343,-0.02891319406655272,0.6119258135289899,0.3944091109683007,0.684946833371486,0.5292812679834176,-1.640390929398563,-2.4916981509851532
1780420624375285504,2.0480027198791504,1.0089941024780273,0.14395803213119507,-2.808056592941284,-0.8461265563964844,-0.5290477275848389,0.06463827192783356,-0.053394198417663574,0.22764092683792114,0.06089579313993454,-0.021699112879383333,0.6060447593041901,0.4062374750634077,0.6835275278684789,0.5574779921455134,-1.6470413886162512,-2.478943482393742
1780420624385320704,2.058037757873535,1.279041051864624,0.2142324596643448,-2.6502819061279297,-0.8314733505249023,-0.5512298941612244,0.06926700472831726,-0.014443516731262207,0.24973148107528687,-0.01578497141599655,-0.016314840540274607,0.599588813862451,0.4184814895709739,0.6819827436144883,0.583837617357117,-1.6539107546772607,-2.462438957331977
1780420624395355392,2.068072557449341,1.1737923622131348,0.08835828304290771,-2.590540647506714,-0.8168660998344421,-0.571927547454834,0.07502368092536926,0.13168549537658691,0.27100902795791626,-0.08477402478456497,-0.011479100058809555,0.5933963505770914,0.43057242259026635,0.6799678834753761,0.6088537050823475,-1.6623826905818706,-2.4445270329087947
1780420624405390592,2.0781075954437256,0.9886438846588135,0.013962078839540482,-2.4659762382507324,-0.8020546436309814,-0.5917462706565857,0.08090031147003174,0.22701191902160645,0.3650006651878357,-0.0027753114700317383,-0.006057766418125232,0.5876482025562465,0.44172360893198215,0.6778740569069007,0.6332233875145211,-1.6713226621663784,-2.428464400425939
1780420624415425536,2.0881426334381104,0.8406437635421753,-0.041430871933698654,-2.4683408737182617,-0.7872450351715088,-0.610508382320404,0.08674601465463638,0.2286360263824463,0.35911983251571655,0.0495913028717041,-0.0004262847185708164,0.5822192022218521,0.45209933494314525,0.6757416893984927,0.6567022859802354,-1.6805429347965366,-2.413538449812164
1780420624425460480,2.098177671432495,0.7780637145042419,-0.09622620791196823,-2.4112751483917236,-0.7719356417655945,-0.6290000677108765,0.09205564111471176,0.17464566230773926,0.32182544469833374,-0.11318910866975784,0.005747726968983204,0.5768051840897351,0.4618696769540914,0.6737500663605634,0.680266324549625,-1.689488784867886,-2.400062854404266
1780420624435495680,2.10821270942688,0.8185842633247375,0.006547173485159874,-2.3385095596313477,-0.7567273378372192,-0.6463910341262817,0.09768377244472504,0.1651747226715088,0.150587260723114,-0.049252405762672424,0.011516347582460413,0.5714740811194663,0.47144380312550765,0.67158422775316,0.7028449738368481,-1.6991735399043422,-2.3857140568592836
1780420624445530624,2.1182477474212646,1.0316981077194214,-0.08508528023958206,-2.2279677391052246,-0.7416201233863831,-0.6627763509750366,0.10357129573822021,0.12045013904571533,-0.035191118717193604,-0.09871900826692581,0.01678511349781704,0.566107035620021,0.4809453938665928,0.6692776431633187,0.7245203398995802,-1.7095543307644776,-2.3701272464554095
1780420624455565568,2.1282825469970703,1.3365956544876099,-0.18382395803928375,-1.9539644718170166,-0.7274250388145447,-0.6768495440483093,0.11281619966030121,0.21192210912704468,-0.009536564350128174,-0.0599902868270874,0.020736460062503483,0.5616482835268503,0.49087605731261713,0.6657040692017102,0.743474400328757,-1.7246603099274331,-2.3498840862665293
1780420624465600512,2.138317584991455,1.7382197380065918,0.006734526716172695,-1.842809796333313,-0.7143111228942871,-0.6887498497962952,0.1240292638540268,0.2461714744567871,0.18199020624160767,0.1625155210494995,0.022974922888332815,0.5574083849062103,0.5013088120164081,0.6614057185636262,0.7597633031168218,-1.7427170482942782,-2.3248301309015647
1780420624475635456,2.14835262298584,1.9464294910430908,0.21495604515075684,-1.7251126766204834,-0.7020449042320251,-0.6989597082138062,0.1363385170698166,0.14046049118041992,0.18942302465438843,0.2023608535528183,0.02336890846329386,0.5527428739639048,0.5124886109663157,0.6567226293165604,0.7739418671807466,-1.7626107173023238,-2.2946200206234493
1780420624485671424,2.158388614654541,1.5711852312088013,0.261491596698761,-1.6827516555786133,-0.6903635263442993,-0.7083555459976196,0.1470744013786316,0.08664947748184204,0.057858049869537354,0.21602369844913483,0.02339187874051135,0.5476634897351641,0.5230696906494146,0.6526221936462413,0.7871657292987063,-1.7806974342308952,-2.265210124402604
1780420624495706624,2.168423652648926,1.4266514778137207,0.2460152804851532,-1.5703800916671753,-0.6791556477546692,-0.7172607183456421,0.15583550930023193,0.07026892900466919,0.04793393611907959,0.17265570163726807,0.023995917052406605,0.5427178303292025,0.5323298872402169,0.6492353059207581,0.7998631479848899,-1.7963468130299243,-2.239683867381884
1780420624505741568,2.1784586906433105,1.0130423307418823,0.18661373853683472,-1.7232410907745361,-0.6676263213157654,-0.7263505458831787,0.16337014734745026,0.06740665435791016,0.1436174511909485,0.020025238394737244,0.02535016296570598,0.5377334087538569,0.540858441630843,0.6462756340837335,0.8129972595736211,-1.8107833799366333,-2.216598694353592
1780420624515776512,2.1884937286376953,0.6777240633964539,0.11304432153701782,-1.781785011291504,-0.6549222469329834,-0.7367244958877563,0.16826780140399933,0.05947846174240112,0.38630640506744385,0.10782468318939209,0.028519877189825123,0.532553835469215,0.5481973320089969,0.6442459105352364,0.828213485172053,-1.822284683411025,-2.198888915844268
1780420624525811712,2.19852876663208,0.9575371146202087,0.25630083680152893,-1.7194193601608276,-0.6422047019004822,-0.7467244267463684,0.17313498258590698,0.05138438940048218,0.4170125126838684,0.14379000663757324,0.03153257285699179,0.5272670842566556,0.5554789928670754,0.6422135127636539,0.8431236530410203,-1.8341303441771615,-2.180547226172903
1780420624535846400,2.2085635662078857,1.5098220109939575,0.25336775183677673,-1.6085411310195923,-0.63008052110672,-0.7552434206008911,0.1805715560913086,0.042662858963012695,0.18853187561035156,-0.0011434406042099,0.03295164982938312,0.5218996926678269,0.563831967084116,0.6392405644562403,0.8560254546968278,-1.8499006926676658,-2.15594180294757
1780420624545881600,2.2185986042022705,2.02651047706604,0.16873514652252197,-1.484554409980774,-0.6187439560890198,-0.7615869641304016,0.1927211731672287,0.1938018798828125,0.15804070234298706,-0.04913601279258728,0.03265503002543956,0.5171128378587421,0.5735458992003087,0.6344865406038537,0.8657584062458987,-1.872744018324806,-2.1230123505719507
1780420624555916544,2.2286336421966553,2.2506866455078125,0.030069809406995773,-1.4196600914001465,-0.6078505516052246,-0.766133725643158,0.2087031900882721,0.31752151250839233,0.15199798345565796,-0.009194493293762207,0.031314142879438796,0.5129026680680302,0.58419384222839,0.6282259991870145,0.8728035515774527,-1.901531256083747,-2.083886385784207
1780420624565951488,2.23866868019104,2.237990617752075,-0.07017344236373901,-1.3453869819641113,-0.5970172882080078,-0.7696842551231384,0.22617828845977783,0.3184223175048828,0.16059917211532593,0.08276641368865967,0.030071212735511808,0.5092500231295923,0.5947718518134859,0.6212943094933092,0.878346451726355,-1.9329355611218944,-2.043522345776296
1780420624575986688,2.248703718185425,2.3619167804718018,-0.09266157448291779,-1.1920701265335083,-0.5871462225914001,-0.7716629505157471,0.24453097581863403,0.2636752128601074,0.2500108480453491,0.030111998319625854,0.02827632062007188,0.5060411740720714,0.6051345471115707,0.6139502400830467,0.8814516169591504,-1.9654230304476563,-2.0023227435738007
1780420624586021632,2.2587387561798096,1.5423527956008911,-0.1067478284239769,-1.2735098600387573,-0.5772992968559265,-0.7738896012306213,0.260423868894577,0.201154887676239,0.12752729654312134,-4.780292510986328e-05,0.02737812584367452,0.5028400548332816,0.6142994478954462,0.6074854619059463,0.8849599200668534,-1.9945706042443487,-1.9659099742886557
1780420624596056576,2.2687735557556152,0.8737279176712036,-0.07356031239032745,-1.0904673337936401,-0.5678026080131531,-0.7775111794471741,0.27032721042633057,0.1248246431350708,0.0012964606285095215,0.3088659346103668,0.028226623023669264,0.49958575346978984,0.6209490110006458,0.603357081295177,0.8906985016843125,-2.0151365740654215,-1.9405277834899317
1780420624606091520,2.27880859375,0.32583126425743103,-0.00281716650351882,-1.1117485761642456,-0.5590692162513733,-0.7822020649909973,0.2749579846858978,0.10090875625610352,-0.06847554445266724,0.2986809313297272,0.030334928744564713,0.49640497444916193,0.6253487799333731,0.6013326375045986,0.8981925173613124,-2.027873614341247,-1.9249066116846998
1780420624616126464,2.2888436317443848,0.732780396938324,-0.10796275734901428,-0.8773020505905151,-0.550990641117096,-0.7863746881484985,0.2793281078338623,0.12850528955459595,0.040998101234436035,0.1599876880645752,0.03233306540380688,0.4935593685197734,0.6293355204433215,0.5994084878916917,0.9049182880870034,-2.0399933478216656,-1.910403432064309
1780420624626162432,2.298879623413086,0.8630982041358948,-0.13646231591701508,-0.8774762153625488,-0.5437408089637756,-0.7889147996902466,0.2862854301929474,0.1915374994277954,0.06773871183395386,0.09034726023674011,0.03332461111086625,0.4912353411811707,0.633901059071194,0.5964450798493411,0.9090409909609998,-2.0554269910782015,-1.8921952789678296
1780420624636197632,2.3089146614074707,0.9283986687660217,-0.17577655613422394,-0.7445200085639954,-0.5368148684501648,-0.7906513810157776,0.2944486439228058,0.15244603157043457,-0.0018594861030578613,0.11828634142875671,0.03402544851633126,0.4892903293057649,0.6386073100077877,0.5929737505361475,0.9118721659222955,-2.0724953451526296,-1.8726923286459185
1780420624646232576,2.3189496994018555,0.7672667503356934,-0.2572652995586395,-0.7909791469573975,-0.5303160548210144,-0.7920894026756287,0.30225691199302673,0.08254694938659668,-0.10561561584472656,0.23248741030693054,0.03478144310555188,0.48762861690596115,0.6429205109381956,0.5896285058032997,0.9142243663401068,-2.088831762679956,-1.8545451499773935
1780420624656267520,2.3289847373962402,0.7934980988502502,-0.3291095197200775,-1.03192138671875,-0.5220678448677063,-0.7946244478225708,0.3098662197589874,-0.08265316486358643,0.0009385943412780762,0.22054454684257507,0.036675194279396285,0.4857317462884617,0.6473003750806102,0.5862779132314684,0.9183887147632225,-2.106449532031574,-1.836323406579221
1780420624666302720,2.339019775390625,1.2268720865249634,-0.30872806906700134,-1.1857826709747314,-0.5121857523918152,-0.7972000241279602,0.31959009170532227,-0.24367356300354004,0.3048142194747925,-0.015329867601394653,0.03850428570144838,0.48321905295188955,0.6529122397715047,0.5819985924068768,0.9226429932690134,-2.128656777668694,-1.8124018788510072
1780420624676337408,2.3490545749664307,1.2815744876861572,-0.24908046424388885,-1.3159528970718384,-0.5011692643165588,-0.7993063926696777,0.3315703570842743,-0.29007530212402344,0.47395843267440796,-0.2512938678264618,0.03993880923808471,0.48017559240314917,0.6597094606309697,0.5767320169085106,0.9261401378484286,-2.155278540650711,-1.782682482644347
1780420624686372608,2.3590896129608154,0.8038748502731323,-0.16437730193138123,-1.284458041191101,-0.48999345302581787,-0.8023672699928284,0.3407536447048187,-0.14989909529685974,0.39567482471466064,-0.0617009699344635,0.04190530147356264,0.47659294620565634,0.6657597090061355,0.5725967934115749,0.9312511467221859,-2.178445147398166,-1.7561900104907138
1780420624696407552,2.3691246509552,0.6682645082473755,-0.34936875104904175,-1.2377656698226929,-0.47904011607170105,-0.8059503436088562,0.3478001058101654,0.13283339142799377,0.07215505838394165,0.11097076535224915,0.044572585134646195,0.4732372575426417,0.6707805508271316,0.5693095300713108,0.9372790618106951,-2.1987828812283743,-1.7339112340237026
1780420624706442496,2.379159688949585,0.5860072374343872,-0.6419033408164978,-1.2597497701644897,-0.4671807885169983,-0.8096804022789001,0.3551900088787079,0.3289056122303009,-0.06844764947891235,-0.014140725135803223,0.048341595164098805,0.47059858961888235,0.6753754249658284,0.5657456672683884,0.9436073511143012,-2.220846671107188,-1.712807446326061
1780420624716477696,2.3891947269439697,0.5586693286895752,-0.8208458423614502,-1.313288927078247,-0.4539869427680969,-0.8135939240455627,0.3632641136646271,0.2836225628852844,0.07914263010025024,-0.11430168151855469,0.053182663208764136,0.468462289898158,0.6798346453282744,0.5617290877075539,0.950306813289998,-2.2456374031379975,-1.6914689843076103
1780420624726512640,2.3992297649383545,0.6392821669578552,-0.8241888880729675,-1.2918368577957153,-0.4402712881565094,-0.8172442317008972,0.37185096740722656,0.0803011953830719,0.23144406080245972,-0.07987403869628906,0.05827114342502281,0.46648600222034964,0.6843363855701908,0.557385886972922,0.9566127760882952,-2.27214415310219,-1.6691280011481655
1780420624736547584,2.40926456451416,0.6851071715354919,-0.8558043241500854,-1.2794142961502075,-0.4265446364879608,-0.8202873468399048,0.3810361921787262,-0.04580652713775635,0.24689245223999023,-0.004967987537384033,0.06317022150588288,0.464606106737594,0.6889551987864483,0.5527128467678548,0.961913187713637,-2.2999024861284254,-1.645523634937673
1780420624746582528,2.419299602508545,0.4257522523403168,-0.7391586899757385,-1.258806824684143,-0.41283804178237915,-0.8234615921974182,0.3891988694667816,-0.02644723653793335,0.1937618851661682,0.11313581466674805,0.0681794683256086,0.4625845222568372,0.6932640177511895,0.5484087224972699,0.9674853956818751,-2.3267291244291943,-1.6227664718210562
1780420624756617472,2.4293346405029297,0.5090346932411194,-0.8519706130027771,-1.2771271467208862,-0.3993227481842041,-0.8266468048095703,0.39647936820983887,0.022430777549743652,0.05136317014694214,0.21378055214881897,0.07326822681412762,0.4605740576912477,0.6972167693878378,0.5444188795302451,0.9731224944340616,-2.3526215320315047,-1.601083752081033
1780420624766653440,2.439370632171631,0.4733535945415497,-0.9181192517280579,-1.2179375886917114,-0.3851565420627594,-0.829750657081604,0.40394100546836853,0.0523318350315094,-0.052893996238708496,-0.09212768077850342,0.07876993302938484,0.45871982902361136,0.7011038538830977,0.5402081293567168,0.9786608032517468,-2.3799949566755645,-1.578854347824076
1780420624776688640,2.4494056701660156,0.443925142288208,-0.8623489141464233,-1.0965856313705444,-0.37189844250679016,-0.8322470784187317,0.411164790391922,0.03812769055366516,-0.11506432294845581,0.02491617202758789,0.08398466330963898,0.45727086006178885,0.7046174529099712,0.5360636265456374,0.9831485288802322,-2.4062970794393377,-1.55802860283888
1780420624786723584,2.4594407081604004,0.3230130970478058,-0.724143922328949,-0.9345738291740417,-0.3600074350833893,-0.834415853023529,0.4173065721988678,-0.01899033784866333,-0.23466062545776367,0.1599791944026947,0.08866521057213908,0.45592347012228396,0.707663112293911,0.5324332526834453,0.9870720236733727,-2.4297756934988293,-1.539406427549955
1780420624796758528,2.469475746154785,0.5061113238334656,-0.8515992164611816,-0.8195971846580505,-0.34961119294166565,-0.8356456756591797,0.4236370325088501,-0.03597840666770935,-0.3933429718017578,0.1120227575302124,0.09272299764672834,0.4551696460197812,0.7103795545550189,0.5287569626907227,0.989307224797774,-2.451637229307734,-1.5225802424615138
1780420624806793472,2.479510545730591,0.5163085460662842,-1.0106180906295776,-0.9431598782539368,-0.33821073174476624,-0.8364723920822144,0.43119317293167114,-0.047943443059921265,-0.33558571338653564,-0.08823657035827637,0.09719597539730614,0.45471827045636304,0.7133217278963158,0.5243628495730677,0.9908141173998122,-2.476461250626129,-1.5040511905039242
1780420624816828416,2.4895455837249756,0.3982236981391907,-1.114234447479248,-1.1486027240753174,-0.3248398005962372,-0.8377900719642639,0.43884748220443726,-0.0821884274482727,0.31593936681747437,-0.15767377614974976,0.10265556186519803,0.45407865661548763,0.7164051357620032,0.5196519717076504,0.9932230387816905,-2.5043859160210546,-1.4835989701363916
1780420624826863616,2.4995806217193604,0.15467150509357452,-1.0724012851715088,-1.305732250213623,-0.3094935715198517,-0.8405945301055908,0.44453898072242737,-0.1745000183582306,0.6204864382743835,-0.1291854977607727,0.10924135990698096,0.4525763618293695,0.7193358927441513,0.5155550090927483,0.9983799420815861,-2.5334132157647398,-1.4621107608208714
1780420624836898560,2.509615659713745,0.020207174122333527,-1.0603511333465576,-1.3475958108901978,-0.29349979758262634,-0.844211757183075,0.4485139548778534,-0.12449952960014343,0.5412178039550781,-0.16042792797088623,0.1163056102381656,0.4505626739564086,0.7219766346197322,0.512070454254241,1.0050928520970128,-2.5621425872180934,-1.4406664079867975
1780420624846933504,2.51965069770813,-0.01612473465502262,-1.1226640939712524,-1.3478002548217773,-0.2770867943763733,-0.8481156826019287,0.4515783488750458,0.0627160370349884,0.25372469425201416,-0.09044855833053589,0.12374060914614941,0.44843952859712055,0.7243556867866138,0.5088213605943223,1.0124184644735585,-2.5912358212023747,-1.4192086659619239
1780420624856968704,2.5296857357025146,-0.025166697800159454,-1.2128058671951294,-1.3275965452194214,-0.2603939473628998,-0.8518223166465759,0.45452603697776794,0.1955593228340149,-0.07952851057052612,-0.012265264987945557,0.1314326244777543,0.4465270601672884,0.7265511682667679,0.5054329892373707,1.0194543194112966,-2.6213446430006,-1.3975429029358106
1780420624867005184,2.539722204208374,-0.04329963028430939,-1.3065694570541382,-1.2962760925292969,-0.24335162341594696,-0.8553066253662109,0.45741724967956543,0.17012469470500946,-0.12372779846191406,-0.06016993522644043,0.13944265784762064,0.4448919853035987,0.7285463269832234,0.5018437167831824,1.026142370579189,-2.6526643522073288,-1.3756915114441772
1780420624877040128,2.549757242202759,0.32627442479133606,-1.2695631980895996,-1.1968941688537598,-0.22661170363426208,-0.8577882647514343,0.4613533616065979,0.032779231667518616,0.019256591796875,-0.038471102714538574,0.14711088338192385,0.4436473511139981,0.7306529309092411,0.49767646790408876,1.030951103378436,-2.6850186503015876,-1.3531490468726568
1780420624887075072,2.5597922801971436,0.5471950769424438,-1.1279703378677368,-1.1830174922943115,-0.21082544326782227,-0.8582261800765991,0.4679749310016632,-0.11130285263061523,-0.009709000587463379,0.03594660758972168,0.15342068029213102,0.4426176578481598,0.7335373708711204,0.49241715070352,1.0318036915332358,-2.718318136723364,-1.3283407655981245
1780420624897110272,2.5698273181915283,0.6936846971511841,-1.0722200870513916,-1.1609822511672974,-0.195528045296669,-0.8576856851577759,0.4755457937717438,-0.1208171397447586,0.029148876667022705,0.04660990834236145,0.15897177501626153,0.44146291542638344,0.7368062076413777,0.4867802215208275,1.0307515603922035,-2.7514980044539605,-1.3024817694548154
1780420624907146240,2.5798633098602295,0.7503525018692017,-1.0929198265075684,-1.0943403244018555,-0.18064169585704803,-0.8563459515571594,0.48377755284309387,0.012703433632850647,0.09065985679626465,-0.006024450063705444,0.1640986788671134,0.44046963370145337,0.7401859767946485,0.4808149620130299,1.0281516397204005,-2.7842269863906304,-1.276872750240246
1780420624917181184,2.5898983478546143,0.35357874631881714,-1.1045726537704468,-1.0989772081375122,-0.16582977771759033,-0.8552891612052917,0.4908984899520874,0.07427701354026794,-0.025371968746185303,-0.03385192155838013,0.16950756852369106,0.4395600818019538,0.7431259509881241,0.47520320284741013,1.0261086931521695,-2.815819708111596,-1.252941221995193
1780420624927216128,2.59993314743042,0.130219966173172,-1.1262191534042358,-1.0918657779693604,-0.15094202756881714,-0.856111466884613,0.4942568242549896,0.061556026339530945,-0.04723936319351196,-0.013711690902709961,0.17584725826712577,0.4382775148599414,0.7450108972747216,0.47111505332569276,1.0276977874151436,-2.8451965532676375,-1.231650795042668
1780420624937251072,2.6099681854248047,0.3368399739265442,-1.130301833152771,-1.09490168094635,-0.1358795017004013,-0.8565929532051086,0.49778059124946594,0.06903073191642761,0.012995421886444092,-0.06559056043624878,0.18217092579077612,0.43701599423664067,0.7469319388680656,0.46682281157006633,1.028630133643645,-2.8751140708683804,-1.2099348145964528
1780420624947286016,2.6200032234191895,0.6388033032417297,-1.1202508211135864,-1.0807946920394897,-0.12090709060430527,-0.8554885983467102,0.5035086274147034,0.06386972963809967,0.1440933346748352,-0.1349782943725586,0.18782834932157713,0.4360226434078261,0.7494254927937068,0.461482680443968,1.0264936680804757,-2.9059255778442727,-1.1871226831642032
1780420624957321216,2.630038261413574,0.7084798812866211,-1.1082767248153687,-1.1140996217727661,-0.10586750507354736,-0.8532492518424988,0.5106448531150818,0.02589615434408188,0.15609031915664673,-0.11873799562454224,0.1930395606911728,0.4351147352971624,0.7523281182850519,0.455426638718221,1.0221844350667308,-2.9371674943072943,-1.16362280225535
1780420624967356160,2.640073299407959,0.639824390411377,-1.147745132446289,-1.1379597187042236,-0.0903988927602768,-0.8508557677268982,0.5175639390945435,0.008627049624919891,0.15551280975341797,-0.14479178190231323,0.19838265213722503,0.4340688049614097,0.7552259599066095,0.4492909241106345,1.0176119708775813,-2.9686747080997873,-1.1399161763881294
1780420624977391360,2.6501083374023438,0.6180408000946045,-1.1925145387649536,-1.184617519378662,-0.07438377290964127,-0.8485022783279419,0.5239381790161133,0.044384993612766266,0.20043087005615234,-0.148129403591156,0.20405638848331986,0.43294008163312425,0.7579788676585348,0.4431613663061569,1.013148636489385,-3.0005645911129672,-1.1162550820510129
1780420624987426048,2.6601431369781494,0.5282562971115112,-1.1887831687927246,-1.2182191610336304,-0.05783908814191818,-0.8463076949119568,0.5295447111129761,0.054512687027454376,0.2088109254837036,-0.12034988403320312,0.21002274623425202,0.43155958147121104,0.7606107210474289,0.4371704486479937,1.009015311958637,-3.0327997303965946,-1.0922992983618953
1780420624997460992,2.670178174972534,0.6536142230033875,-1.1614453792572021,-1.1508930921554565,-0.041453395038843155,-0.8437685370445251,0.5351036787033081,0.07181839644908905,0.22182047367095947,-0.10013675689697266,0.215851891870467,0.4302036723415899,0.7632015797572456,0.4311102265629511,1.0042665858893396,-3.0642791007887937,-1.0690407964647703
1780420625007496192,2.680213212966919,0.7564079761505127,-1.1072660684585571,-1.105281949043274,-0.025824062526226044,-0.8403366804122925,0.5414494872093201,0.08522652834653854,0.01042628288269043,-0.04195302724838257,0.22109916318737993,0.42910386244866344,0.7658946572732006,0.4247239774754808,0.9979039935829733,-3.093934454029887,-1.0473543663208844
1780420625017531136,2.6902482509613037,0.9100958108901978,-1.0434727668762207,-1.078901767730713,-0.01070200651884079,-0.8359634280204773,0.5486806035041809,0.051549796015024185,-0.20167994499206543,-0.02567046880722046,0.22576456243283965,0.42808704549810733,0.7688184382176069,0.41795929939539866,0.9898859600853525,-3.1220901426354803,-1.026642321344051
1780420625027566080,2.7002832889556885,0.9240156412124634,-1.0040109157562256,-1.017182469367981,0.0036332395393401384,-0.8308935761451721,0.5564196705818176,0.038984548300504684,-0.14922434091567993,-0.08091002702713013,0.2298844703406006,0.42724192022060237,0.7717993072265656,0.41102721164792105,0.9807117115056783,3.135063071322893,-1.0076682346569057
1780420625037601280,2.7103183269500732,0.9539218544960022,-1.00258469581604,-1.0774716138839722,0.018007634207606316,-0.8254459500312805,0.5641940236091614,0.05047380179166794,-0.005410373210906982,-0.0731966495513916,0.2338971038988479,0.4263244593298378,0.774818985383739,0.40397424054863185,0.9709917352822569,3.1096860353292834,-0.9891958342899996
1780420625047637248,2.7203543186187744,0.7818909883499146,-1.0239474773406982,-1.1081243753433228,0.032784029841423035,-0.8201465010643005,0.5712138414382935,0.058829739689826965,0.1541460156440735,-0.16838175058364868,0.23814882121206196,0.4251506438272041,0.777723504623776,0.39708730027150047,0.9616670270791915,3.084261929880326,-0.9706376370700809
1780420625057672192,2.730389356613159,0.6387940049171448,-1.0432820320129395,-1.175453543663025,0.04811139777302742,-0.8156022429466248,0.57660973072052,0.07040362060070038,0.30072474479675293,-0.16247081756591797,0.2429387620228957,0.4235863122110783,0.7803073208093845,0.39073782827564174,0.9537692742742717,3.058347077113319,-0.9516400104783758
1780420625067707136,2.740424156188965,0.5954995155334473,-1.050477147102356,-1.183882474899292,0.06388561427593231,-0.8113856315612793,0.5810096859931946,0.05789478123188019,0.254912793636322,-0.08097904920578003,0.24806545137039124,0.421734817010645,0.7827161684882844,0.38465411170010116,0.9465188608452383,3.0320764096996577,-0.932300417701755
1780420625077742080,2.7504591941833496,0.6317105293273926,-1.0440402030944824,-1.1882116794586182,0.07964527606964111,-0.8069689273834229,0.5851989984512329,0.061635859310626984,0.14644646644592285,-0.07720339298248291,0.25316924226561416,0.41983834538681236,0.7850702304204032,0.378557602208173,0.9390017115595506,3.006324290133162,-0.9134583414914953
1780420625087777024,2.7604942321777344,0.6822133660316467,-1.0773494243621826,-1.1567821502685547,0.09537316113710403,-0.8020818829536438,0.5895490646362305,0.09862706810235977,0.0753822922706604,-0.1113387942314148,0.25819176965534635,0.4180509586332425,0.7874058228282411,0.3722396056957807,0.930773121639894,2.981209066949456,-0.8954857592055127
1780420625097812224,2.770529270172119,0.7066356539726257,-1.0727547407150269,-1.1490908861160278,0.11098431795835495,-0.7967239022254944,0.5940655469894409,0.12882281839847565,0.032350003719329834,-0.06493645906448364,0.2631092859284668,0.41641633561299607,0.7897026065951648,0.365705942609194,0.9218547265387693,2.9569000699575714,-0.8785930080062119
1780420625107847168,2.780564308166504,0.6791073083877563,-1.064782738685608,-1.1310110092163086,0.126481831073761,-0.7912207841873169,0.5983074903488159,0.11230294406414032,0.042975664138793945,-0.0995282530784607,0.2679815281731516,0.41474263755226837,0.7919231501231475,0.3592103819339818,0.9128026742121527,2.933260558748862,-0.8623120087324282
1780420625117882368,2.7905993461608887,0.6687628030776978,-1.1220747232437134,-1.106390357017517,0.14187684655189514,-0.7856811881065369,0.6021427512168884,0.10484249889850616,0.06745010614395142,-0.10504192113876343,0.27292019049341226,0.41316102029949064,0.7939580261206673,0.35276500834525826,0.903796479223224,2.9101932617252295,-0.8469336126212123
1780420625127917056,2.8006341457366943,0.6602875590324402,-1.1153563261032104,-1.0778015851974487,0.157316192984581,-0.7800081968307495,0.6056724786758423,0.1023273766040802,0.04596877098083496,-0.03378826379776001,0.27795213216455766,0.41166330620136626,0.7958451958153703,0.3462751475277975,0.8946789410784393,2.8874699770803023,-0.8322993592731732
1780420625137952000,2.810669183731079,0.7434887290000916,-1.0699015855789185,-1.0152705907821655,0.17211972177028656,-0.7739953398704529,0.6093485951423645,0.08802732825279236,-0.013693690299987793,0.012096047401428223,0.28267395644110255,0.41037357440276356,0.7976639751147799,0.3397367189382093,0.8851268714080559,2.866299509179841,-0.819203709651472
1780420625147987200,2.820704221725464,0.7223703861236572,-1.004729986190796,-0.9943402409553528,0.18625587224960327,-0.7677013278007507,0.6131425499916077,0.06401880085468292,-0.07755941152572632,0.044679224491119385,0.28702314977993887,0.40914480984364765,0.7994822029447926,0.33323645844732924,0.875246211669732,2.8466784175047897,-0.8072560048088661
1780420625158022144,2.8307392597198486,0.5890941023826599,-0.9806192517280579,-0.9987350106239319,0.19998855888843536,-0.7616593837738037,0.6163438558578491,0.035210445523262024,-0.04392850399017334,0.033283889293670654,0.2912781415937699,0.4077642081265705,0.8011867903548646,0.32708589414728495,0.8658701612450864,2.827835102151079,-0.7956106187432538
1780420625168057088,2.8407742977142334,0.47641170024871826,-0.979857325553894,-1.008198857307434,0.21369950473308563,-0.7563539743423462,0.6182724833488464,0.030380040407180786,0.05377846956253052,-0.04150557518005371,0.2957819566910771,0.4060664713117787,0.8026495225920558,0.3215224670867104,0.857721442008665,2.8088075657465947,-0.7834420833650955
1780420625178093312,2.8508102893829346,0.40943828225135803,-0.9826722741127014,-1.0239684581756592,0.22742898762226105,-0.7512869238853455,0.6195513010025024,0.048419371247291565,0.04234844446182251,-0.09969967603683472,0.3004185838721987,0.404235760548179,0.8039708412685994,0.3161850089034737,0.8500098783953272,2.7897777464522613,-0.7712237935823064
1780420625188128256,2.8608453273773193,0.3100978434085846,-0.9839963912963867,-1.055221676826477,0.2414124459028244,-0.7466440200805664,0.6198728084564209,0.05114425718784332,0.0027629733085632324,-0.11065667867660522,0.30533638095090876,0.402115181272261,0.8051334024101828,0.31118023517174226,0.8430027611868606,2.7702098948954386,-0.7583350122457954
1780420625198163200,2.870880365371704,0.2179090678691864,-0.9494127631187439,-1.0473384857177734,0.25529518723487854,-0.7423390746116638,0.6194815635681152,0.04006922245025635,-0.009400546550750732,-0.10999053716659546,0.31033228846707905,0.39976820740093305,0.8061799813219827,0.30651783547266415,0.8365546338995089,2.7506895280244943,-0.7451375983649962
1780420625208198144,2.8809151649475098,0.3379715383052826,-0.9269812107086182,-1.0187726020812988,0.26880139112472534,-0.7380026578903198,0.6189489960670471,0.027570098638534546,-0.048023343086242676,0.0039604902267456055,0.31519569979231704,0.3974512534404587,0.8071598373246343,0.3019555629201421,0.8301056357724242,2.7318823677620703,-0.7325106208644174
1780420625218233088,2.8909502029418945,0.4165947139263153,-0.8622256517410278,-1.0307656526565552,0.28191131353378296,-0.7327962517738342,0.61930251121521,0.005808413028717041,-0.103385329246521,0.10686320066452026,0.31959581345364924,0.3952529120162345,0.8083479328679752,0.29699706102975776,0.8224223661982194,2.714416367555297,-0.720955649970218
1780420625228268032,2.9009852409362793,0.46670103073120117,-0.8246598839759827,-1.0041406154632568,0.2946414351463318,-0.72702956199646,0.6201731562614441,-0.013055741786956787,-0.07037955522537231,0.010243833065032959,0.3236315976168855,0.39307046326152295,0.8096802937252157,0.29184946028988734,0.8139857136921166,2.698066422194783,-0.7101272961268892
1780420625238303232,2.911020278930664,0.38432466983795166,-0.792607307434082,-0.9879111051559448,0.30687466263771057,-0.7213647961616516,0.6208549737930298,-0.002217710018157959,-0.04029291868209839,-0.015432000160217285,0.32751704989344044,0.39093313856112566,0.8109246353043127,0.2868887335285539,0.805771003249764,2.6825334869626656,-0.6999175972220623
1780420625248338176,2.921055316925049,0.15086212754249573,-0.7493953704833984,-0.971990704536438,0.3187747001647949,-0.7165634036064148,0.6204189658164978,0.0045896172523498535,-0.07326209545135498,-0.025371968746185303,0.3315229513633943,0.38848094797898197,0.8119680084931109,0.2826359571002838,0.7988629131518916,2.666961735610365,-0.6890131763428573
1780420625258373376,2.9310903549194336,-0.013072752393782139,-0.7451586723327637,-0.9545550346374512,0.33029863238334656,-0.7130914330482483,0.6183879971504211,0.026497632265090942,-0.08001470565795898,-0.012186706066131592,0.3358083271668175,0.38571009677809487,0.8126633437171684,0.2793543714108211,0.793897974362894,2.6510164703659758,-0.6771731937863348
1780420625268408064,2.9411251544952393,0.009079155512154102,-0.7047787308692932,-1.0260143280029297,0.3419038951396942,-0.7097728252410889,0.6158933639526367,0.03584277629852295,-0.02466338872909546,-0.05404949188232422,0.34018636787834605,0.3826963399394843,0.8133204814616163,0.2762727983179504,0.7891756361136792,2.6348156646023786,-0.664757642054102
1780420625278443008,2.951160192489624,-0.04854259639978409,-0.626154363155365,-1.0397915840148926,0.35334762930870056,-0.7062657475471497,0.6134611964225769,0.0197603702545166,0.05489838123321533,-0.12842988967895508,0.34435332790816736,0.3793579602789145,0.8141364279366997,0.27329535866011007,0.7842094949582116,2.619014512672203,-0.6518432544772914
1780420625288478208,2.961195230484009,-0.12029348313808441,-0.5759066343307495,-1.0152149200439453,0.36433303356170654,-0.703066885471344,0.610703706741333,0.03296014666557312,0.06379967927932739,-0.019959449768066406,0.3483741208038433,0.37581049126931376,0.8149345626111566,0.27070982507036445,0.7797010845526038,2.603692371722055,-0.6386426663942273
1780420625298514176,2.97123122215271,-0.11315727978944778,-0.5070878863334656,-0.9548311829566956,0.37461164593696594,-0.7001673579216003,0.6078086495399475,0.050772786140441895,-0.0017520785331726074,0.10491394996643066,0.35217464638509144,0.3723044679446848,0.8156553855122824,0.2684558730329445,0.7756318546834653,2.5892511230929767,-0.6258821288872961
1780420625308549120,2.9812662601470947,-0.03423928841948509,-0.4523357152938843,-0.8955550789833069,0.384001761674881,-0.6970604062080383,0.6055155396461487,0.06181424856185913,-0.06110292673110962,0.1643054485321045,0.35550818942373397,0.36907443141712837,0.8164201402999679,0.26618795580500526,0.7712894676315567,2.5764240434093226,-0.6144694110985002
1780420625318584320,2.9913012981414795,0.15659697353839874,-0.5389953851699829,-0.8823961019515991,0.39310961961746216,-0.6933560967445374,0.6039221286773682,0.060671448707580566,-0.08250749111175537,0.14478081464767456,0.35859137593756024,0.3661732511508375,0.8172381556802035,0.2635357422379196,0.7661360359715895,2.564565544268828,-0.6044113683288627
1780420625328619264,3.0013363361358643,0.28553682565689087,-0.5698800683021545,-0.9146379828453064,0.4028087258338928,-0.6882430911064148,0.6033791899681091,0.06798595190048218,0.05108189582824707,-0.06256204843521118,0.36167144171402266,0.3637275985977483,0.8181637010951235,0.2598155492470997,0.7590645179702972,2.552952480469583,-0.596005219576129
1780420625338653952,3.01137113571167,0.2567693591117859,-0.5817081928253174,-0.8827841281890869,0.4125594198703766,-0.6830031275749207,0.6027448177337646,0.05786904692649841,0.26385951042175293,-0.24738293886184692,0.36476688984235955,0.36120918561254683,0.8190850598480275,0.25607158121929324,0.751866289357135,2.5413672434456354,-0.5875874228782426
1780420625348689152,3.0214061737060547,0.29145705699920654,-0.5851455330848694,-0.8557189702987671,0.42190036177635193,-0.67779940366745,0.6021528244018555,0.09026086330413818,0.11043184995651245,-0.19112694263458252,0.36775050120327435,0.35891249496382444,0.8199135598058694,0.2523551999307795,0.7447654819657801,2.530428372521236,-0.5800228462849287
1780420625358724096,3.0314412117004395,-0.17004717886447906,-0.6145311594009399,-0.882690966129303,0.4315163195133209,-0.673503041267395,0.6001564264297485,0.10602036118507385,-0.1978197693824768,-0.011060237884521484,0.37118108845223396,0.35618407752309955,0.8204944311971328,0.24929203719533854,0.7389376831229472,2.5182242618339106,-0.5708703261767244
1780420625368759040,3.041476249694824,-0.09164905548095703,-0.5939712524414062,-0.7883045077323914,0.4407520890235901,-0.6707426309585571,0.5965253114700317,0.07760438323020935,-0.1209445595741272,0.2154254913330078,0.37497184199590394,0.35326278284750035,0.820650996865605,0.24725213550686648,0.735209582627604,2.505255674045188,-0.560652738681946
1780420625378794240,3.051511287689209,0.06970921158790588,-0.6184965968132019,-0.8455542325973511,0.4498371183872223,-0.6671731472015381,0.5937396287918091,0.0444561243057251,0.017347097396850586,0.10105407238006592,0.3784962071011377,0.35064692861700375,0.8209241986711009,0.24468525724143125,0.7304073983574425,2.4932238725621167,-0.5517852397711043
1780420625388829184,3.0615463256835938,-0.04958469048142433,-0.6090418100357056,-0.8190160989761353,0.45909279584884644,-0.6632220149040222,0.5910755395889282,0.009428292512893677,0.12025332450866699,-0.111644446849823,0.3820098072707005,0.3479577770793496,0.8212570605768418,0.24193122874663528,0.7251156821992409,2.481216710581759,-0.5429535894696209
1780420625398864384,3.0715813636779785,0.03729827702045441,-0.5586426854133606,-0.7800151705741882,0.4678865075111389,-0.6596211194992065,0.5882024168968201,-0.002584993839263916,0.13783156871795654,-0.010230064392089844,0.3854494509871409,0.3453731345294164,0.8214734424232332,0.23943155594179055,0.7203145224710605,2.4696313371020633,-0.5344688868979499
1780420625408899072,3.081616163253784,-0.10149475932121277,-0.507801353931427,-0.8130631446838379,0.4762207865715027,-0.655894935131073,0.5856752395629883,0.00020435452461242676,-0.08508706092834473,0.09089940786361694,0.3885683987613544,0.34269677605025245,0.821825127593266,0.23701675093180782,0.7153675649520156,2.458906306764503,-0.5261293953076202
1780420625418934016,3.091651201248169,0.03968233987689018,-0.5482129454612732,-0.8284277319908142,0.48471739888191223,-0.6523306965827942,0.5826780796051025,0.02727597951889038,-0.09478539228439331,0.18668532371520996,0.3918441094776044,0.33981572309039026,0.8221096763508122,0.23477470698256486,0.7106554451029912,2.447713563937099,-0.5171726812501052
1780420625428969984,3.10168719291687,0.2429521083831787,-0.5632787346839905,-0.8813665509223938,0.4935036301612854,-0.6471663117408752,0.5810596942901611,0.06058889627456665,0.023524165153503418,0.007456660270690918,0.3948347536945395,0.33726787899718685,0.8226665291113466,0.23146446334770523,0.703861471442609,2.4374954888863565,-0.509964179409128
1780420625439005184,3.111722230911255,0.1477843075990677,-0.6178420782089233,-0.9152544736862183,0.5028269290924072,-0.6414977312088013,0.5793493986129761,0.0434834361076355,0.11461174488067627,-0.17561709880828857,0.39800589893934485,0.33459996037412343,0.8232360280617016,0.22785217391728388,0.6964490998931923,2.426788614236053,-0.5026120137502972
1780420625449040128,3.1217572689056396,-0.01308367121964693,-0.6040181517601013,-0.8755382299423218,0.5121228694915771,-0.6365086436271667,0.5767037868499756,0.08045226335525513,-0.023464560508728027,-0.1259285807609558,0.40142731960337674,0.33173383783994137,0.8235924652755056,0.22473164217717068,0.6899629733169371,2.415437487696146,-0.49444409605364287
1780420625459075328,3.1317923069000244,-0.04127589240670204,-0.5757638812065125,-0.824039101600647,0.5209030508995056,-0.6323686838150024,0.5733849406242371,0.12419283390045166,-0.21266311407089233,0.1402992606163025,0.40487107935860844,0.32878907529645895,0.8237658778480825,0.22223203208791445,0.6846071156755029,2.404117651965265,-0.4858512857732584
1780420625469110272,3.141827344894409,0.10250470787286758,-0.5495418906211853,-0.7611528038978577,0.529194176197052,-0.6280203461647034,0.5705648064613342,0.1294819712638855,-0.17976468801498413,0.21546125411987305,0.4080638967648671,0.32621603720016945,0.823932952474243,0.21954842378613293,0.6790066816631026,2.393794709913935,-0.4785888216112109
1780420625479144960,3.151862144470215,0.10290711373090744,-0.44618460536003113,-0.6801045536994934,0.5365626215934753,-0.6234789490699768,0.5686600208282471,0.04972571134567261,0.03189581632614136,0.07114088535308838,0.4107116573565097,0.32402214561888404,0.8242206329952093,0.21676209494284474,0.673184516509179,2.3852278990533082,-0.47286175911904976
1780420625489180160,3.1618971824645996,-0.001974294660612941,-0.38251909613609314,-0.6302914619445801,0.543012797832489,-0.6196801662445068,0.5666863322257996,-0.011594951152801514,0.10648137331008911,0.07602900266647339,0.41306922659673795,0.3218658620705007,0.8244668094791655,0.21454737781641978,0.6683351092660398,2.3775245379871084,-0.4672007036767823
1780420625499215104,3.1719322204589844,0.0014460028614848852,-0.2886452078819275,-0.6173911094665527,0.5487830638885498,-0.6163095235824585,0.5648007988929749,0.026488542556762695,0.031852126121520996,0.12959623336791992,0.4151402960688688,0.31963962213667074,0.8247611204347619,0.2127397461739661,0.6640477576252998,2.3705774538359723,-0.461429065451452
1780420625509250048,3.181967258453369,0.04527604207396507,-0.23998630046844482,-0.5722699761390686,0.5539841055870056,-0.6128837466239929,0.5634494423866272,0.09309536218643188,-0.07298356294631958,0.12969636917114258,0.41684206719821937,0.31746375311123387,0.8251917894800489,0.2109929241080734,0.6597049669050314,2.3646649089072396,-0.45610516136314727
1780420625519285248,3.192002296447754,0.2350534349679947,-0.27316516637802124,-0.5081072449684143,0.5586628913879395,-0.6092012524604797,0.5628231763839722,0.13399463891983032,-0.0065825581550598145,0.05651587247848511,0.41823993945916504,0.3157866614769013,0.8256454356721968,0.20895897181827788,0.6550529457655532,2.359904122557534,-0.45242577548021234
1780420625529320192,3.2020373344421387,0.3046782910823822,-0.25151392817497253,-0.5900745391845703,0.5634682178497314,-0.6043360829353333,0.5632773637771606,0.14817112684249878,0.15810811519622803,-0.10517805814743042,0.41938510986666844,0.31442955043875376,0.8263006283767333,0.20610049110301254,0.6489322892709545,2.3560251096117715,-0.45028694942055925
1780420625539355136,3.2120721340179443,0.1636737883090973,-0.29042473435401917,-0.5582385659217834,0.5684123635292053,-0.5997730493545532,0.5631874203681946,0.14229637384414673,0.13199949264526367,-0.1755683422088623,0.4207013234311858,0.31282744518350003,0.8268813113976118,0.20351118882323216,0.6432174361971239,2.351577231263209,-0.4473106242292933
1780420625549391360,3.2221083641052246,0.10077551752328873,-0.2903035581111908,-0.5119168758392334,0.5733291506767273,-0.5960205793380737,0.5621863603591919,0.14961707592010498,-0.053607165813446045,-0.11376100778579712,0.4223071862288147,0.31116644277655997,0.8272053049937803,0.20140399195146322,0.6385360216257567,2.3463818007504686,-0.4436812796524188
1780420625559426048,3.2321431636810303,0.16047373414039612,-0.2421940714120865,-0.44735363125801086,0.5777113437652588,-0.5925394892692566,0.5613792538642883,0.13363808393478394,-0.1254323124885559,-0.040550947189331055,0.4237104470104365,0.30970092231479185,0.8275113163393975,0.19944889446115596,0.6342076961839846,2.341857643949499,-0.44059418074233725
1780420625569460992,3.242178201675415,0.28373199701309204,-0.17351408302783966,-0.4085487127304077,0.5813910961151123,-0.5887567400932312,0.561560332775116,0.11556941270828247,-0.0420415997505188,0.010400056838989258,0.42462661977016414,0.3086300947355858,0.8279659543922376,0.1972615247700893,0.6295199061405006,2.3388457391530504,-0.4389804292320448
1780420625579496192,3.2522132396698,0.2557629644870758,-0.16539862751960754,-0.38852518796920776,0.5846723318099976,-0.5848680138587952,0.5622164607048035,0.09020853042602539,0.026167571544647217,-0.011542201042175293,0.4252809840713945,0.30772759608628264,0.8284998319619092,0.19500705171080296,0.6247173229769027,2.33661719060127,-0.43802144499002893
1780420625589531136,3.2622482776641846,0.23027892410755157,-0.1953762322664261,-0.4288068413734436,0.5880477428436279,-0.581140398979187,0.5625615119934082,0.057017505168914795,0.1528262495994568,-0.06417900323867798,0.42604816311683097,0.30672209015461555,0.8289766637851599,0.1928785510283927,0.6201293141624886,2.334047893546925,-0.43667356697853443
1780420625599566336,3.2722833156585693,0.18481796979904175,-0.21365803480148315,-0.5009398460388184,0.5919238924980164,-0.5771368145942688,0.5626180171966553,0.025751829147338867,0.21466434001922607,-0.15473538637161255,0.4270182662101227,0.3054524422130064,0.8294623577160259,0.19064713263784588,0.6152182689536481,2.3308168010779466,-0.4346749483489843
1780420625609601280,3.282318353652954,0.0975767970085144,-0.20174731314182281,-0.48064738512039185,0.5959667563438416,-0.5734940767288208,0.5620745420455933,0.032435834407806396,0.10694146156311035,-0.1313648223876953,0.4281778906504919,0.3038627536136452,0.8298823375353405,0.18874930719571634,0.6107646767149725,2.3269359803274807,-0.4316114653231946
1780420625619635968,3.2923531532287598,0.17105688154697418,-0.1462642103433609,-0.47993579506874084,0.5997189879417419,-0.5698636174201965,0.5617762804031372,0.06690698862075806,-0.08420437574386597,0.022223353385925293,0.42917311924506973,0.3023514949871596,0.8303443354177257,0.18687510544493657,0.6063399036097041,2.3235389723148563,-0.4288610336820403
1780420625629671168,3.3023881912231445,0.1733783483505249,-0.09867431968450546,-0.44745108485221863,0.6030628681182861,-0.5660980939865112,0.5620038509368896,0.04496270418167114,-0.19797056913375854,0.054863154888153076,0.4298565386049987,0.30087017039427333,0.8309507080650239,0.18499057641869876,0.6017647700532905,2.3209672948535545,-0.42644667090019295
1780420625639706112,3.3124232292175293,0.19545969367027283,-0.08243835717439651,-0.44436556100845337,0.6060625910758972,-0.5623458027839661,0.5625433325767517,0.009171664714813232,-0.16467434167861938,-0.006909966468811035,0.4303506426465721,0.299536618839417,0.8315945383779864,0.18310261566025235,0.5972199536439708,2.318971347719067,-0.42452276918683546
1780420625649741056,3.322458267211914,0.12041446566581726,-0.0932859405875206,-0.44949135184288025,0.6090441942214966,-0.5587424039840698,0.5629141330718994,-0.011540532112121582,-0.07150661945343018,-0.05583393573760986,0.4308737040586695,0.2980926763061033,0.832224616018397,0.18135839343230475,0.5928686758315045,2.31685326419099,-0.4222492709121135
1780420625659777280,3.3324942588806152,-0.06785450875759125,-0.11726304888725281,-0.46517497301101685,0.6122311949729919,-0.5557217001914978,0.5624468326568604,-0.017931878566741943,-0.0529971718788147,-0.09757256507873535,0.4316894463373152,0.29633458177822875,0.8327119799423471,0.18005784578880163,0.5892307696933498,2.3138385554751886,-0.418769176167676
1780420625669812224,3.342529296875,-0.24717845022678375,-0.13010534644126892,-0.44718557596206665,0.615476667881012,-0.5538361072540283,0.5607618093490601,-0.04206669330596924,-0.1024290919303894,-0.08453506231307983,0.4328680677264195,0.29418847780705654,0.8329670065769478,0.17956683097057013,0.5869644328513379,2.309711185572751,-0.41360243957616954
1780420625679847168,3.3525643348693848,-0.29658782482147217,-0.1440667062997818,-0.4726738929748535,0.6187964677810669,-0.552590012550354,0.5583326816558838,-0.03528505563735962,-0.10777992010116577,-0.029035747051239014,0.4342748089472471,0.29177942850692073,0.8330852970701774,0.17955248874703436,0.585468586588838,2.3048741365232797,-0.40736121202344705
1780420625689882112,3.3625991344451904,-0.3178046941757202,-0.12486425042152405,-0.4815307557582855,0.62221360206604,-0.5513094067573547,0.555795431137085,-0.018041789531707764,-0.02570176124572754,-0.0007569193840026855,0.4357206348483537,0.28923170184536384,0.8332123059841752,0.17958264933908688,0.5839328691920903,2.299872421912011,-0.4007744409335984
1780420625699917056,3.372634172439575,-0.33361563086509705,-0.11752071231603622,-0.46515923738479614,0.6255270838737488,-0.5501664280891418,0.553202748298645,-0.006081104278564453,0.014460742473602295,0.006520271301269531,0.43714445909335053,0.2866513340970259,0.8333261003693814,0.17973178057636782,0.5825635558715968,2.294913479805204,-0.39405895940469177
1780420625709952000,3.38266921043396,-0.3497282862663269,-0.07712242752313614,-0.4081715941429138,0.6284977793693542,-0.5493215918540955,0.5506693720817566,0.009365499019622803,-0.044428467750549316,0.03517669439315796,0.438447416332662,0.28412890754935716,0.8334299297234284,0.1800813626339591,0.5815521189071402,2.290287236130131,-0.3874148928376421
1780420625719987200,3.3927042484283447,-0.2735791802406311,-0.021294310688972473,-0.36781057715415955,0.630882740020752,-0.5486099123954773,0.548647940158844,0.023292064666748047,-0.13594520092010498,0.14149212837219238,0.43943864040552344,0.2818733964949478,0.8335894459625719,0.18047120079292153,0.5807006871048154,2.286588874134246,-0.3815494955472554
1780420625730022144,3.4027392864227295,-0.135024756193161,-0.0032796249724924564,-0.34956419467926025,0.6329306960105896,-0.5474749803543091,0.5474209785461426,0.026248931884765625,-0.13756829500198364,0.18658775091171265,0.4401104404323371,0.27991668301103045,0.8338807735479715,0.18053328325848028,0.5793438538070074,2.283876549034111,-0.3768245223769365
1780420625740057344,3.4127743244171143,-0.0028605947736650705,-0.006824691779911518,-0.35672199726104736,0.6348993182182312,-0.5455595850944519,0.5470535755157471,0.0071446895599365234,-0.039508163928985596,0.06865382194519043,0.4405392728114045,0.27831412170435504,0.8343069227411299,0.17999551699981337,0.5770567087190523,2.282008334611393,-0.37352043024852466
1780420625750092288,3.422809362411499,-0.13599734008312225,-0.05279218405485153,-0.3403366208076477,0.636960506439209,-0.5436113476753235,0.5465970039367676,-0.01958984136581421,-0.005018472671508789,-0.0575832724571228,0.4410392673337678,0.27675240000610846,0.8346895364545878,0.17940443562826663,0.5747337802956092,2.279993284861321,-0.3703049534041476
1780420625760126976,3.4328441619873047,-0.2871549129486084,-0.09657920897006989,-0.3308677673339844,0.639237642288208,-0.542630136013031,0.544910728931427,-0.023881196975708008,-0.05246251821517944,-0.055469810962677,0.44197770720508955,0.27494119408438983,0.834783024111819,0.17944447837167563,0.5735652090330688,2.276704328020519,-0.3657447194866668
1780420625770162176,3.4428791999816895,-0.3802158832550049,-0.11762963235378265,-0.29784640669822693,0.6415380835533142,-0.5424914956092834,0.5423393845558167,-0.013654112815856934,-0.07301759719848633,-0.0029411911964416504,0.4431874670748595,0.2729565066262371,0.8346642736509083,0.18004226575329715,0.5734001334011807,2.2725984396272167,-0.36017449490457015
1780420625780198144,3.4529151916503906,-0.29440030455589294,-0.13317769765853882,-0.2578537166118622,0.6437417268753052,-0.5425861477851868,0.5396271347999573,0.006450653076171875,-0.05336123704910278,0.04524242877960205,0.444444378846996,0.2711262708024711,0.8344483806381737,0.18070924990998685,0.5735128392912707,2.268438906165196,-0.3548417573720778
1780420625790233088,3.4629502296447754,-0.18492014706134796,-0.12789052724838257,-0.24394242465496063,0.6458229422569275,-0.5422263741493225,0.5374977588653564,0.006169915199279785,0.017491817474365234,0.03281509876251221,0.4455439647672096,0.269676097190513,0.8342803450045945,0.18094712796881993,0.5730845698385829,2.264905586307564,-0.3507821503111126
1780420625800268288,3.47298526763916,-0.06626540422439575,-0.13239793479442596,-0.24739840626716614,0.647860586643219,-0.5412810444831848,0.535995602607727,-0.004519522190093994,0.1291259527206421,0.031493961811065674,0.44647250127450705,0.2684831183623441,0.8342149696425947,0.1807330185010683,0.5719598820600108,2.2619822059110857,-0.34776994363572866
1780420625810303232,3.483020305633545,-0.012616020627319813,-0.13854263722896576,-0.2346961945295334,0.6499018669128418,-0.5398969054222107,0.534919261932373,-0.000762641429901123,0.10811907052993774,0.0013508796691894531,0.44730732523661565,0.26751419167371066,0.8342036799418134,0.18015671423694388,0.5703146225420339,2.259451034012877,-0.34560746341674675
1780420625820338176,3.4930553436279297,-0.011457545682787895,-0.16875526309013367,-0.22299666702747345,0.6519439816474915,-0.5385173559188843,0.5338237285614014,0.01100456714630127,0.03807497024536133,-0.004587948322296143,0.4481738161613235,0.2666607615097105,0.8341486121636151,0.1795223514535555,0.568676573998715,2.256907033106228,-0.3437210298118117
1780420625830373120,3.5030901432037354,0.028322625905275345,-0.21618004143238068,-0.25686171650886536,0.6542451977729797,-0.5368790626525879,0.5326575636863708,0.034490764141082764,0.024962007999420166,-0.02833932638168335,0.449161446270853,0.265859240983794,0.8340549433815203,0.17867623823801432,0.5667334250351789,2.2541094977535066,-0.3420425867470726
1780420625840408064,3.51312518119812,0.010373185388743877,-0.2669537663459778,-0.26573243737220764,0.6569623351097107,-0.5350263118743896,0.5311754941940308,0.04251575469970703,0.058708012104034424,-0.08392506837844849,0.45038376800240476,0.26501277821570607,0.8338800631661015,0.17767026375993367,0.5645388638672834,2.25071848090999,-0.3402466420069476
1780420625850443008,3.523160219192505,-0.05642608553171158,-0.30133622884750366,-0.2663007378578186,0.6598937511444092,-0.5333920121192932,0.5291815996170044,0.018466174602508545,0.06021702289581299,-0.08077150583267212,0.4518391941304449,0.2641201222231959,0.8335654439418633,0.17677816599873136,0.5626055846411067,2.2467065288069965,-0.33810218400345193
1780420625860478208,3.5331952571868896,-0.1112629696726799,-0.320518434047699,-0.26971811056137085,0.6629800200462341,-0.5320796966552734,0.526638925075531,0.010039329528808594,0.021123945713043213,-0.074307382106781,0.4534977046291347,0.26307404133391454,0.8331335415451292,0.17612586568178237,0.5610549101986988,2.2420833116662244,-0.3352992691540769
1780420625870512128,3.543229341506958,-0.1767708659172058,-0.32846370339393616,-0.27400073409080505,0.6661629676818848,-0.5310268402099609,0.5236769914627075,0.03690105676651001,-0.005624830722808838,-0.039500296115875244,0.45530293731332927,0.2619053802267706,0.8326127908442519,0.17567245999762848,0.5598119382114899,2.2370098148230455,-0.331976238724085
1780420625880547328,3.5532643795013428,-0.15943555533885956,-0.27953049540519714,-0.26679661870002747,0.6691984534263611,-0.530142605304718,0.5206941366195679,0.03745138645172119,0.0011661052703857422,0.0638701319694519,0.45704419171435856,0.2606356840837455,0.832115448881763,0.1753954556192023,0.5587687205163673,2.232031723110794,-0.328345140397127
1780420625890583296,3.563300371170044,-0.015008604153990746,-0.21239915490150452,-0.2744353711605072,0.6719280481338501,-0.5287692546844482,0.5185710787773132,0.007835805416107178,-0.04638034105300903,0.15400582551956177,0.45843017371637307,0.2595362908568395,0.8318211607707501,0.17480363316302158,0.5571498692816333,2.2280826045457918,-0.32560517648105536
1780420625900617984,3.5733351707458496,0.035660699009895325,-0.18626703321933746,-0.24867166578769684,0.6743553876876831,-0.526948094367981,0.5172720551490784,-0.008324503898620605,-0.10674935579299927,0.05983048677444458,0.45947792470159354,0.258624617685131,0.8317146932749556,0.17390787416851708,0.5550056165058086,2.225127681720401,-0.3237715604264952
1780420625910653184,3.5833702087402344,0.05938813462853432,-0.18480175733566284,-0.2361910343170166,0.6765758395195007,-0.525010347366333,0.5163421630859375,-0.004365146160125732,-0.03253048658370972,-0.0198974609375,0.46037759458524347,0.2579273287041841,0.8316517158734917,0.17286229376147452,0.5527273005932349,2.222672907050886,-0.3226268377776053
1780420625920688128,3.593405246734619,-0.013566236011683941,-0.16436652839183807,-0.21228356659412384,0.6786855459213257,-0.5232999920845032,0.5153088569641113,0.005427002906799316,0.012267827987670898,-0.012852132320404053,0.46126723477208176,0.2571920235210445,0.8315688117791548,0.17198304004319243,0.5507188974298385,2.2202069376137725,-0.3212711559798685
1780420625930723072,3.603440284729004,-0.07037679105997086,-0.13407813012599945,-0.15930983424186707,0.6804466247558594,-0.5223504900932312,0.5139480233192444,0.004016876220703125,-0.08177554607391357,0.061796724796295166,0.46214594436330625,0.25642570533952463,0.8313963377662151,0.17160184755140395,0.5496050630275795,2.217687063623515,-0.3194218324329121
1780420625940758272,3.6134753227233887,-0.07423198223114014,-0.08341121673583984,-0.15217256546020508,0.6818059086799622,-0.521617591381073,0.5128892660140991,-0.004605710506439209,-0.18385714292526245,0.08791017532348633,0.4628032351998181,0.25571972492110545,0.831295408597796,0.17137215232403158,0.5487458198263319,2.2157365906060265,-0.317719492597252
1780420625950793216,3.6235103607177734,-0.0973556786775589,-0.05142718181014061,-0.12257099151611328,0.6828833818435669,-0.5211260914802551,0.5119544863700867,0.0019156932830810547,-0.08431202173233032,0.055473923683166504,0.46332219660630836,0.2549938831893067,0.8312372493908519,0.1713334215735138,0.5481698378440324,2.214102421886801,-0.3159041750118185
1780420625960828416,3.633545398712158,-0.10396857559680939,-0.007359321694821119,-0.09644298255443573,0.6836108565330505,-0.5208844542503357,0.5112297534942627,0.02004826068878174,0.002863764762878418,0.05891495943069458,0.46366775594030735,0.25432718641567476,0.8312235330829858,0.17145678855777244,0.547886751172937,2.2129119293526447,-0.31418661319073526
1780420625970863104,3.643580198287964,-0.15905338525772095,0.01398698054254055,-0.07182206213474274,0.6840189099311829,-0.5209843516349792,0.5105819702148438,0.049867868423461914,-0.0742916464805603,0.06763464212417603,0.46388494301008243,0.25367460066079983,0.8312281165396106,0.1718136487439708,0.548003738398788,2.212017865648888,-0.31237718366906014
1780420625980898048,3.6536152362823486,-0.10910634696483612,0.05550646036863327,-0.03693944588303566,0.6841164827346802,-0.5213375091552734,0.5100904107093811,0.0600394606590271,-0.07361799478530884,0.10044437646865845,0.4639625366777145,0.25309784682180175,0.8312560935876038,0.1723185446813175,0.5484175746866731,2.2114878737114885,-0.31068618955464933
1780420625990933248,3.6636502742767334,0.01201555598527193,0.08133113384246826,-0.03195666894316673,0.6839359998703003,-0.5213122367858887,0.5103580951690674,0.020455539226531982,0.009578168392181396,0.08082848787307739,0.46374820185131616,0.2527844154977639,0.8314319417160468,0.17250697232920953,0.5483879640589873,2.2118657250366733,-0.31002436730155153
1780420626000969216,3.6736862659454346,0.026989979669451714,0.06914650648832321,-0.006771689280867577,0.683649480342865,-0.5210404396057129,0.5110189914703369,0.01071697473526001,0.06930392980575562,-0.01680201292037964,0.463416045365701,0.25270672399788635,0.8316542623386646,0.17244170193771263,0.5480694962597802,2.2126870661002767,-0.31015678319489987
1780420626011004160,3.6837213039398193,-0.0857970267534256,0.052972860634326935,0.006730270572006702,0.6833126544952393,-0.5212036371231079,0.511302649974823,0.04791897535324097,0.06080019474029541,-0.07892966270446777,0.463186359800697,0.25259499581009226,0.831773470633319,0.1726470739716525,0.5482606787688389,2.2131895963492942,-0.3099030301926508
1780420626021039360,3.693756341934204,-0.16239379346370697,0.07707327604293823,0.04060887545347214,0.6827801465988159,-0.5221430063247681,0.5110558867454529,0.05328857898712158,-0.06341308355331421,0.0018377900123596191,0.4630454850689626,0.25236993666197755,0.831767617271864,0.17338104676108493,0.5493617512152202,2.213332017233276,-0.30887729781169565
1780420626031074304,3.703791379928589,-0.12273853272199631,0.11737754940986633,0.06072719395160675,0.6819782257080078,-0.523271918296814,0.5109718441963196,0.025602340698242188,-0.14472734928131104,0.060179948806762695,0.4627640463534638,0.2521651509056344,0.8318044568461711,0.17425126795434798,0.5506859484093631,2.2138169535573344,-0.3078680288793503
1780420626041108992,3.7138261795043945,-0.017667770385742188,0.1695648431777954,0.11683786660432816,0.6807786226272583,-0.524268388748169,0.5115501880645752,0.013313353061676025,-0.037072062492370605,0.040741801261901855,0.46218177556213064,0.25221460355729863,0.8319632740176301,0.17496590412478,0.5518557489154075,2.2152051703144107,-0.3077329468405637
1780420626051144192,3.7238612174987793,0.1135600209236145,0.24335891008377075,0.14521171152591705,0.6790292859077454,-0.5248764157295227,0.5132482051849365,0.018007397651672363,0.0015152692794799805,0.1136743426322937,0.4611339995459955,0.2527002857222495,0.8323260615969196,0.17530331973234684,0.5525699317245676,2.21803461128172,-0.3091638195704189
1780420626061179136,3.733896255493164,0.23717305064201355,0.28894224762916565,0.19869385659694672,0.6767199635505676,-0.5251445174217224,0.5160167813301086,0.004356086254119873,-0.12034803628921509,0.17946350574493408,0.45962409078137695,0.25357512403984117,0.8328913725961367,0.17532060366878846,0.552884911383972,2.222266159084487,-0.31201068856281355
1780420626071214080,3.743931293487549,0.39613205194473267,0.32977569103240967,0.21804730594158173,0.673973798751831,-0.5248611569404602,0.5198846459388733,-0.0005577206611633301,-0.09484398365020752,0.1297582983970642,0.4577032766294404,0.25493897748514216,0.8336356757430617,0.17482957647352526,0.5525519856918245,2.2278359033745536,-0.31660710091024463
1780420626081249280,3.7539663314819336,0.3440440893173218,0.35795459151268005,0.25921630859375,0.6709969639778137,-0.524360179901123,0.5242228507995605,0.0002219080924987793,0.0058359503746032715,0.06131798028945923,0.45558562472585357,0.2564912505435965,0.8344600987011237,0.17415616061745112,0.5519635411038013,2.234005278584434,-0.3218873279433845
1780420626091284224,3.7640013694763184,0.16737452149391174,0.4069535732269287,0.3447551727294922,0.6674264669418335,-0.525046706199646,0.5280795097351074,-0.013709425926208496,-0.1392446756362915,0.09962129592895508,0.45342135945282463,0.2580016653751099,0.8351496242791394,0.17426804866476214,0.5527700104206152,2.2401591074533966,-0.326427535026476
1780420626101320192,3.7740373611450195,0.03834596276283264,0.49692782759666443,0.4010019302368164,0.6630935072898865,-0.5270335674285889,0.531547486782074,-0.032875001430511475,-0.29546093940734863,0.1880875825881958,0.451106046901812,0.2593828805763799,0.8357596885575712,0.17529871988907017,0.5551062261240182,2.246522861566724,-0.3300257592973151
1780420626111355392,3.7840723991394043,0.03016713075339794,0.5867695808410645,0.45804551243782043,0.6579006910324097,-0.5297110080718994,0.5353253483772278,-0.019762754440307617,-0.22454631328582764,0.176771879196167,0.44840507662618806,0.2607970012405809,0.8364494078538673,0.17683411724748488,0.5582597798908353,2.2538275720483845,-0.3335590997304983
1780420626121390080,3.79410719871521,0.012818233110010624,0.6735266447067261,0.5328486561775208,0.6518593430519104,-0.5328530669212341,0.5395801663398743,0.02923184633255005,-0.1673116683959961,0.15684622526168823,0.4452853499074087,0.26234686834145304,0.8372360507947075,0.1786919082458288,0.5619685708000749,2.262233713821485,-0.33743820711604233
1780420626131425024,3.8041422367095947,0.0568338967859745,0.7777654528617859,0.6150668263435364,0.6448752880096436,-0.5364173650741577,0.5444194674491882,0.06638270616531372,-0.22824645042419434,0.24980050325393677,0.44170171120744794,0.2641479278302648,0.8381143085458262,0.18080359145321423,0.5661862562183806,2.271927799345599,-0.3420147093197413
1780420626141460224,3.8141772747039795,0.21895675361156464,0.9088301062583923,0.7105382680892944,0.6365845799446106,-0.539962887763977,0.550636351108551,0.06063532829284668,-0.2512816786766052,0.317726194858551,0.43732886408985766,0.26650366204765724,0.8392222501669441,0.18282606123590642,0.5703930124290777,2.283926104517544,-0.34846767853906313
1780420626151495168,3.8242123126983643,0.3495640158653259,1.021864652633667,0.7932981252670288,0.6271892786026001,-0.54304039478302,0.558337926864624,0.0508960485458374,-0.14519202709197998,0.28110945224761963,0.4321925736065312,0.269392835696406,0.8405929189596449,0.1845014672548157,0.5740537001630319,2.2981830641658294,-0.35696321334441106
1780420626161530368,3.834247350692749,0.33966290950775146,1.141072392463684,0.8995209336280823,0.6164455413818359,-0.5463688373565674,0.5669887661933899,0.03660017251968384,-0.07734948396682739,0.2010776400566101,0.42636508607161705,0.2727200160235244,0.8420915502117585,0.18632906792506765,0.5780226099322162,2.3144279083469175,-0.3668681155560819
1780420626171565312,3.844282388687134,0.19872258603572845,1.2548633813858032,0.9959803819656372,0.6043930053710938,-0.5505252480506897,0.5758743286132812,0.037529051303863525,-0.20614290237426758,0.18360143899917603,0.42002941527084525,0.2761893324771185,0.843597433568574,0.188780773411792,0.5829932736030398,2.3320363204806522,-0.3770955629921593
1780420626181600000,3.8543171882629395,0.03819762542843819,1.3584680557250977,1.1175153255462646,0.5909369587898254,-0.556216299533844,0.5843093395233154,0.06264281272888184,-0.28983789682388306,0.20402085781097412,0.4133385991494875,0.2796350313620754,0.8449609009282629,0.19234522080782704,0.5898258262239043,2.3505551902774875,-0.38688354378801104
1780420626191635200,3.864352226257324,0.07096994668245316,1.4805468320846558,1.2314543724060059,0.5759773850440979,-0.5628089308738708,0.5928711891174316,0.09232711791992188,-0.25530630350112915,0.24849843978881836,0.4061170014196993,0.2833395843320567,0.846258989272288,0.1965538374449659,0.5977801329912932,2.3706468814363215,-0.39740268398404566
1780420626201670144,3.874387264251709,0.07106449455022812,1.5943230390548706,1.3083151578903198,0.5595256090164185,-0.5696131587028503,0.6020563244819641,0.12460213899612427,-0.19448590278625488,0.17946821451187134,0.3982030709258949,0.2873521334884429,0.8476183722583288,0.20101271572952806,0.6060351030063776,2.3927926016146848,-0.409230659315013
1780420626211706112,3.88442325592041,-0.014686628244817257,1.6210947036743164,1.2727986574172974,0.5421990156173706,-0.5765708088874817,0.6112168431282043,0.15671449899673462,-0.09190136194229126,0.12530958652496338,0.3899356074310731,0.2913107609674048,0.848967879678476,0.20577101151023694,0.6145254233730135,2.4159610106039726,-0.4213308379298793
1780420626221741312,3.894458293914795,-0.11035829782485962,1.6063743829727173,1.2833110094070435,0.5248514413833618,-0.5837622284889221,0.619477391242981,0.15204358100891113,0.02779310941696167,0.06687808036804199,0.3818297398459848,0.29491302879809284,0.85015586435829,0.2108725720292072,0.6233547414112556,2.4386979883687867,-0.4326324119193501
