time,seconds_elapsed,rotationRateX,rotationRateY,rotationRateZ,gravityX,gravityY,gravityZ,accelerationX,accelerationY,accelerationZ,quaternionW,quaternionX,quaternionY,quaternionZ,pitch,roll,yaw
1781555679313023232,0.16347622871398926,0.05215730145573616,-0.0037359753623604774,0.058808401226997375,-0.05561117082834244,-0.22707711160182953,-0.9722877144813538,-0.01172586902976036,0.02097664773464203,-0.02284473180770874,-0.9876605014210191,-0.11080050310831897,0.039741585199536945,0.10329923977347155,0.2290753360545336,-0.057133961889615094,-0.20184738644173775
1781555679323058432,0.17351126670837402,0.13601171970367432,0.05037413164973259,0.04565132036805153,-0.0555030032992363,-0.22796541452407837,-0.9720860123634338,-0.0229424387216568,0.022048041224479675,-0.012639939785003662,-0.9876402556601516,-0.11126834465212397,0.0397033286192438,0.10300417688544769,0.2299875589510727,-0.05703487780099805,-0.20124560347354303
1781555679333093376,0.1835463047027588,0.19022409617900848,0.09113860130310059,0.02183547057211399,-0.05483615770936012,-0.22962749004364014,-0.9717325568199158,-0.024936791509389877,0.01789654791355133,0.0012278556823730469,-0.9875763514424228,-0.1121550649353188,0.03943284504473333,0.10275833077726082,0.23169492450920737,-0.05637153608709643,-0.20079429713345698
1781555679343128320,0.19358134269714355,0.15386368334293365,0.09624654799699783,-0.005430238321423531,-0.05393723398447037,-0.23131683468818665,-0.9713821411132812,-0.019106589257717133,0.01003389060497284,0.007652342319488525,-0.9875014751049882,-0.11306299956266813,0.03905993211796465,0.10262529889320958,0.23343100778871925,-0.055469314729180916,-0.2005996117076197
1781555679353163264,0.20361614227294922,0.11313969641923904,0.08437737077474594,-0.007770890835672617,-0.053031206130981445,-0.2326163798570633,-0.9711216688156128,-0.009712934494018555,0.007717102766036987,0.01988881826400757,-0.9874396150963339,-0.11376993251091856,0.03867251501303903,0.10258572196974863,0.23476698882310332,-0.05455401384309876,-0.20060362161082806
1781555679363198208,0.21365118026733398,0.08099135011434555,0.06507411599159241,0.009599577635526657,-0.052290916442871094,-0.23358279466629028,-0.9709298014640808,-0.005066867917776108,0.006043761968612671,0.020780324935913086,-0.9873966842249734,-0.11430008049965439,0.03834810320263792,0.10253127135628987,0.23576079338677575,-0.053804553054591565,-0.20056476889043542
1781555679373233408,0.22368621826171875,0.036850783973932266,0.03875169903039932,0.020596833899617195,-0.051849789917469025,-0.2341374307870865,-0.970819890499115,-0.002990301698446274,-0.006371587514877319,0.01342242956161499,-0.9873825168144111,-0.11460903693926695,0.03814213310385479,0.10240012976405281,0.23633124889167656,-0.05335755412145096,-0.20034247636074576
1781555679383268352,0.23372125625610352,-0.002574384678155184,0.02423027902841568,-0.010202090255916119,-0.051571596413850784,-0.234281986951828,-0.9707998633384705,-0.006045591086149216,-0.007112056016921997,0.012898862361907959,-0.9873823853922018,-0.11469829702283947,0.03800501808454283,0.10235275155390626,0.23647993969640832,-0.05307290539555396,-0.200277386062507
1781555679393303296,0.24375629425048828,-0.021397607401013374,-0.0027307653799653053,-0.02210109494626522,-0.05140790343284607,-0.2341848611831665,-0.9708319306373596,-0.0005177520215511322,0.010338425636291504,0.006796896457672119,-0.987381808798749,-0.1146540178014428,0.037927281671228635,0.1024364942797569,0.2363800260701164,-0.052903014301884974,-0.2004681933631275
1781555679403339264,0.25379228591918945,-0.04646247997879982,-0.04107536002993584,-0.016271967440843582,-0.05157405883073807,-0.23384740948677063,-0.9709044694900513,0.004302334040403366,0.01021459698677063,0.0036193132400512695,-0.9873877687952574,-0.11446969058022836,0.03800590753905891,0.10255586980059453,0.23603293226964714,-0.0530697234842571,-0.20069570478039386
1781555679413374464,0.2638273239135742,-0.044215038418769836,-0.0426599383354187,0.0015712120803073049,-0.0520065538585186,-0.23337286710739136,-0.9709956049919128,0.00023348256945610046,-0.005305111408233643,-0.003293335437774658,-0.9874030923283322,-0.11420400475940803,0.03820538989426251,0.10263075043175911,0.2355448965022471,-0.05350890461702302,-0.20080371750456208
1781555679423409408,0.273862361907959,-0.02069772779941559,-0.018958337604999542,0.024104483425617218,-0.0523347407579422,-0.23304545879364014,-0.9710565805435181,-0.011996317654848099,-0.010576382279396057,-0.0005620718002319336,-0.9874216775644333,-0.1140224078599875,0.03834838257622146,0.10259960304817345,0.2352081940435341,-0.0538425451934175,-0.20070708016607897
1781555679433444352,0.28389716148376465,-0.012773226946592331,0.0007248190231621265,0.022824835032224655,-0.0524691641330719,-0.23287583887577057,-0.9710900187492371,-0.014715287834405899,-0.011325821280479431,0.0054528117179870605,-0.9874431874138688,-0.11393436437566878,0.038392041016179254,0.10247459287658663,0.23503378458796112,-0.05397871720136563,-0.20044080364016412
1781555679443479296,0.2939321994781494,0.007585841231048107,-0.005546392407268286,0.006111635360866785,-0.05253000929951668,-0.23283979296684265,-0.9710953831672668,-0.007574368268251419,-0.003854528069496155,0.006785690784454346,-0.9874512927798607,-0.11391552460397401,0.03841307910601818,0.10240957687545824,0.2349967228453206,-0.05404089303774885,-0.2003025077332976
1781555679453514240,0.3039672374725342,0.005357574205845594,-0.01322508417069912,0.003556332318112254,-0.05263281241059303,-0.2329133152961731,-0.9710721969604492,0.003453735262155533,0.015185654163360596,0.014330863952636719,-0.9874474088592535,-0.11394839074090908,0.03846651473590916,0.10239068012727245,0.23507231427540004,-0.05414774061335643,-0.20025076335688388
1781555679463549440,0.31400227546691895,1.4246325008571148e-06,-0.009253645315766335,-0.006407618522644043,-0.052764177322387695,-0.23294726014137268,-0.9710569381713867,0.003966566175222397,0.018225595355033875,0.02048015594482422,-0.9874424027148435,-0.11395857277252153,0.038535553263354276,0.10240169892979625,0.23510722915397358,-0.05428347024244522,-0.20025688573124167
1781555679473584384,0.3240373134613037,-0.013346605002880096,0.009482225403189659,-0.002024587942287326,-0.05275890603661537,-0.23288655281066895,-0.9710717797279358,-0.006780888885259628,0.010001420974731445,0.01994568109512329,-0.9874433611365713,-0.11392697110777524,0.038532675699592144,0.10242862044155084,0.23504480643284995,-0.054277229847428436,-0.20031308602172407
1781555679483620352,0.3340733051300049,-0.07158487290143967,0.0029047499410808086,0.002157107461243868,-0.05269772559404373,-0.23249869048595428,-0.971168041229248,-0.009039334952831268,-0.0012659579515457153,0.024421215057373047,-0.9874687262638737,-0.11373354898587168,0.03847949876395354,0.1024186716208152,0.23464598246331225,-0.05420905004956343,-0.20030688041209488
1781555679493655552,0.34410834312438965,-0.15486778318881989,-0.019709216430783272,-0.026107287034392357,-0.05275160074234009,-0.23137620091438293,-0.9714331030845642,-0.004682477563619614,-0.010460332036018372,0.020505428314208984,-0.9875264735682282,-0.11315757571876572,0.038455148462668454,0.10250905321151062,0.23349203643112898,-0.05424958346016639,-0.2005029392656805
1781555679503690240,0.3541431427001953,-0.17535415291786194,-0.05165090039372444,-0.010066002607345581,-0.05307645723223686,-0.2297368198633194,-0.9718044400215149,-0.0005887076258659363,-0.015075206756591797,0.0004604458808898926,-0.9876047949288722,-0.11230339664051912,0.03854506441800349,0.10265996013683786,0.23180725689040727,-0.05456218672376951,-0.2007989021190567
1781555679513725184,0.3641781806945801,-0.16139492392539978,-0.060704853385686874,0.011199871078133583,-0.053658898919820786,-0.22807276248931885,-0.9721643328666687,-0.0041566528379917145,-0.008026465773582458,-0.021411657333374023,-0.9876910362537961,-0.11142799342549206,0.038750784851124424,0.1027062744988402,0.2300978113613971,-0.055139345016051985,-0.20085423279427222
1781555679523760384,0.37421321868896484,-0.13419073820114136,-0.03983672335743904,0.01888122595846653,-0.054183512926101685,-0.22661252319812775,-0.9724767208099365,-0.013580765575170517,0.005985677242279053,-0.024044275283813477,-0.9877722680064188,-0.11066172394459599,0.03893118344111252,0.1026857857214735,0.22859831085290985,-0.05565948302568719,-0.20077843474366994
1781555679533795328,0.3842482566833496,-0.07183600962162018,-0.03086639568209648,0.03911405801773071,-0.054592251777648926,-0.2255767434835434,-0.9726946353912354,-0.005939368158578873,0.013494819402694702,-0.02291083335876465,-0.9878375196865075,-0.11011972184500224,0.03906834863903999,0.10258883938917815,0.22753499301831703,-0.05606594045241904,-0.2005541836805686
1781555679543830272,0.3942832946777344,-0.017548274248838425,-0.030462663620710373,0.05504295974969864,-0.05500717833638191,-0.22511661052703857,-0.9727778434753418,-3.127381205558777e-05,0.015445590019226074,-0.016327381134033203,-0.9878808639266462,-0.10987408341191579,0.03922713781023901,0.10237309813475448,0.22706272285000947,-0.05648634106186015,-0.20007844380691703
1781555679553865472,0.40431833267211914,0.005706182215362787,-0.0050353314727544785,0.038953203707933426,-0.05530231446027756,-0.22504770755767822,-0.9727770686149597,-0.007319755852222443,0.009288430213928223,0.0016009211540222168,-0.9879056589157054,-0.10983389101527276,0.03934454718189902,0.10213189355388665,0.22699200318164875,-0.05678881209985823,-0.19955768951436936
1781555679563901440,0.4143543243408203,0.008661491796374321,0.020628752186894417,0.013434529304504395,-0.055265434086322784,-0.2251090407371521,-0.9727649688720703,-0.011171333491802216,0.0077781081199646,0.013338088989257812,-0.9879163936941624,-0.10987215335211735,0.039314559956205634,0.10199837462360621,0.2270549527093016,-0.056751725569970046,-0.19929043842467817
1781555679573936384,0.4243893623352051,-0.001991418655961752,0.014440631493926048,-0.001701280358247459,-0.055087920278310776,-0.22514165937900543,-0.9727674722671509,-0.0006066597998142242,0.006986752152442932,0.02319777011871338,-0.9879210001069326,-0.10989912480192936,0.03922303405365838,0.10195985107688996,0.2270884224324585,-0.0565696813415261,-0.1992321288437147
1781555679583971328,0.43442416191101074,-0.03643221780657768,-0.005942803807556629,-0.009498216211795807,-0.05503363162279129,-0.22497178614139557,-0.9728098511695862,0.0034284070134162903,0.007457748055458069,0.03137308359146118,-0.9879289441205714,-0.10981467082587358,0.03918949776652252,0.10198658769878725,0.2269140837954982,-0.05651159341928345,-0.19929565532750815
1781555679594006272,0.4444591999053955,-0.07958287745714188,-0.0047715455293655396,-0.03731093928217888,-0.055039770901203156,-0.2244459092617035,-0.9729309678077698,-0.005461324006319046,0.006550401449203491,0.030304014682769775,-0.9879475047800901,-0.10954311198775091,0.039176850973073184,0.10210396747034985,0.22637440424167027,-0.05651086447691493,-0.19954248106291636
1781555679604041216,0.4544942378997803,-0.1593799889087677,0.0015835557132959366,-0.09553004056215286,-0.05493812635540962,-0.22331643104553223,-0.9731965661048889,-0.006234362721443176,0.0057871341705322266,0.025778353214263916,-0.9879776936608515,-0.10896157894071504,0.03910354585793676,0.10246151749821437,0.22521551142418642,-0.05639135978900685,-0.20029905494460074
1781555679614076416,0.46452927589416504,-0.1866326481103897,0.03329700976610184,-0.19016572833061218,-0.05451624095439911,-0.22164157032966614,-0.9736030697822571,0.01214258000254631,-0.0011672675609588623,0.013886332511901855,-0.9880078558476947,-0.1081066999227363,0.03887662649675012,0.10316004336317237,0.22349758597055808,-0.055935906542049045,-0.2017918595093454
1781555679624111360,0.4745643138885498,-0.08946453779935837,0.050867751240730286,-0.1212891936302185,-0.05355673283338547,-0.22034905850887299,-0.973949670791626,0.022611916065216064,-0.002719178795814514,-0.001300513744354248,-0.9879974523234952,-0.1074643771266129,0.03842615177592764,0.10409564282021376,0.2221723031076149,-0.05493389483807358,-0.20381676358755382
1781555679634146560,0.48459935188293457,-0.04046610742807388,-0.007891705259680748,0.07694532722234726,-0.05351345241069794,-0.2196497619152069,-0.9741100072860718,-0.009490091353654861,0.04336497187614441,-0.0037800073623657227,-0.9880378389161687,-0.10711241700787485,0.03836575235226172,0.10409707634698638,0.2214554561155137,-0.05488057320735088,-0.20383697368837067
1781555679644182528,0.49463534355163574,-0.06237194314599037,0.06046364828944206,-0.002566008595749736,-0.053281959146261215,-0.2192324846982956,-0.9742166996002197,-0.018983669579029083,-0.009130537509918213,0.0014536380767822266,-0.9880873805161521,-0.10692127120887167,0.038203393096862416,0.10388308153517205,0.2210277538202511,-0.05463766817700797,-0.2034369893971096
1781555679654217216,0.5046701431274414,-0.1643369197845459,0.01604798249900341,0.006414170376956463,-0.05283542349934578,-0.21811877191066742,-0.9744909405708313,0.021081887185573578,-0.03374278545379639,0.0339697003364563,-0.9881524564873321,-0.10637865955172526,0.03792233463026044,0.10392438140244538,0.21988641856763214,-0.054165451088981756,-0.20358971562877243
1781555679664252160,0.5147051811218262,-0.24358966946601868,-0.0735403522849083,0.02923319861292839,-0.05335356295108795,-0.21612124145030975,-0.9749076962471008,0.03815580904483795,-0.04288145899772644,0.06148606538772583,-0.9882612719999343,-0.10534225387910562,0.03806787200382466,0.10389204238860189,0.2178400618906494,-0.05467224668684907,-0.20350271554880972
1781555679674287360,0.5247402191162109,-0.3609570264816284,-0.02875637449324131,-0.05393359437584877,-0.053813252598047256,-0.21322974562644958,-0.9755189418792725,0.014338765293359756,-0.021450430154800415,0.04184889793395996,-0.9884000956415371,-0.10384988656211142,0.03815400077083473,0.10404239972080259,0.21487954311389457,-0.05510786604366636,-0.20380931669702299
1781555679684322304,0.5347752571105957,-0.5602988600730896,0.06747841835021973,-0.07001882046461105,-0.05367469787597656,-0.20865659415721893,-0.9765149354934692,0.008417129516601562,0.03366881608963013,0.049024760723114014,-0.9886141348799556,-0.10153081176549444,0.03786843346082852,0.10440101614131542,0.2102011199325855,-0.054910312185672466,-0.20463299773625845
1781555679694357504,0.5448102951049805,-0.8078351616859436,-0.010452602058649063,-0.059198927134275436,-0.05307279899716377,-0.20198167860507965,-0.9779502153396606,0.015459887683391571,0.004456654191017151,0.05766218900680542,-0.9889282571327423,-0.09817239350532625,0.037243251561336906,0.10486149821077222,0.2033808777373327,-0.05421624324486535,-0.2057477846588419
1781555679704392448,0.5548453330993652,-1.0260576009750366,-0.020819755271077156,-0.03546776622533798,-0.05313226208090782,-0.19291694462299347,-0.9797754883766174,0.03706476092338562,-0.028655916452407837,0.08448135852813721,-0.9893462211972721,-0.09358054333820179,0.03680947630832826,0.10526958560868858,0.19413407680759848,-0.0541759528756432,-0.20673208847879881
1781555679714427136,0.5648801326751709,-1.1611498594284058,-0.03389134630560875,-0.02559596113860607,-0.05337822809815407,-0.18215712904930115,-0.9818195104598999,0.04713738337159157,-0.019060522317886353,0.0917896032333374,-0.9898256889309494,-0.08813423132760446,0.03636760542079899,0.10561703725218875,0.18317984141696247,-0.05431316998784419,-0.20761121851988568
1781555679724463360,0.5749163627624512,-1.2306365966796875,0.10948405414819717,-0.08793523162603378,-0.05316329002380371,-0.1703907996416092,-0.983941376209259,0.04536604881286621,0.008540838956832886,0.09363687038421631,-0.9903153577778205,-0.08221145584851848,0.03564527705982382,0.10604871944179217,0.17122626188487985,-0.05397846744356865,-0.20872486579269323
1781555679734498304,0.5849511623382568,-1.4988839626312256,0.0029573473148047924,-0.04308653622865677,-0.05265865474939346,-0.15712061524391174,-0.9861745238304138,0.034729570150375366,0.03248684108257294,0.09289449453353882,-0.9908227477397877,-0.07555564751156882,0.03469992770506219,0.1065724604376322,0.15777438084516632,-0.053346228394200036,-0.2100772120155867
1781555679744533248,0.5949862003326416,-2.0717051029205322,0.0254536010324955,-0.04863789677619934,-0.052164576947689056,-0.1396864652633667,-0.9888207912445068,0.013758204877376556,0.013236865401268005,0.09142088890075684,-0.9914263272586591,-0.06682280905581016,0.0335308445499096,0.10716511487482357,0.14014476109619353,-0.052705470641514963,-0.21164754073256276
1781555679754568448,0.6050212383270264,-2.289379596710205,-0.07011765986680984,0.0505794994533062,-0.052715003490448,-0.117637038230896,-0.9916565418243408,-0.014774620532989502,-0.1247183084487915,0.14427495002746582,-0.9921083699681883,-0.055754357038198275,0.03260661052871862,0.10746764006654128,0.11791006266965352,-0.05310854358309356,-0.21266815305061904
1781555679764603392,0.6150562763214111,-2.169421672821045,0.019471609964966774,0.02923106774687767,-0.052948351949453354,-0.09536375850439072,-0.9940333366394043,-0.03518640995025635,-0.1727941930294037,0.1412806510925293,-0.9926867684494156,-0.04461619722254175,0.03150776188477451,0.1076551104361892,0.09550889880284588,-0.053215884510607,-0.21350824698379786
1781555679774638336,0.6250913143157959,-1.9032325744628906,0.08971568197011948,0.06951803714036942,-0.052498821169137955,-0.07482993602752686,-0.9958134293556213,-0.033957477658987045,-0.02487099915742874,0.15751081705093384,-0.9931266541420495,-0.03440192344720753,0.03016290634231103,0.10773163837280461,0.07489994472361078,-0.052670775539411525,-0.21413553962256926
1781555679784673536,0.6351263523101807,-1.4233812093734741,0.21272562444210052,0.09793370217084885,-0.0510491207242012,-0.05816306173801422,-0.997001051902771,-0.024481885135173798,0.09951438009738922,0.116050124168396,-0.993447792307136,-0.026185682818160534,0.028527130803439976,0.10752649755759332,0.05819590622583415,-0.05115800022569306,-0.21414258640767356
1781555679794708224,0.6451611518859863,-1.0616919994354248,0.3177015781402588,0.08897056430578232,-0.04847104847431183,-0.04570150375366211,-0.9977784752845764,-0.012319963425397873,0.1360182762145996,0.07915365695953369,-0.9936800822011986,-0.02013096326181963,0.026561168209511713,0.10718712718536234,0.04571742896273144,-0.0485408056097674,-0.21379673524961906
1781555679804744192,0.6551971435546875,-0.8785846829414368,0.3050403594970703,0.07500574737787247,-0.04494289308786392,-0.03620528057217598,-0.9983332753181458,0.0005550757050514221,0.07673262059688568,0.04658156633377075,-0.9938458028892962,-0.015601027895442985,0.024289377454143585,0.10694484245071449,0.03621319392985309,-0.04498755115718975,-0.21357441567366778
1781555679814779392,0.6652321815490723,-0.9390498995780945,0.24242307245731354,0.08245673775672913,-0.04232948273420334,-0.0271872840821743,-0.9987337589263916,0.008302383124828339,0.004619533196091652,0.0400087833404541,-0.9939808531334765,-0.011262260583110523,0.02250101681058075,0.10662496975974996,0.027190633593058757,-0.042357801088171325,-0.213148023088883
1781555679824814336,0.675267219543457,-1.0983253717422485,0.27835148572921753,0.04813418537378311,-0.039779748767614365,-0.017061010003089905,-0.9990628361701965,0.0022126100957393646,-0.059248194098472595,0.04406100511550903,-0.9940900062488432,-0.006367218637610408,0.020689484972417932,0.10637851905895729,0.0170618381628586,-0.03979604418691482,-0.21287096211052994
1781555679834849280,0.6853022575378418,-1.3467473983764648,0.16268803179264069,0.07907958328723907,-0.03769782558083534,-0.004787669982761145,-0.9992777109146118,-0.007208786904811859,-0.06523491442203522,0.040903687477111816,-0.9941662686599416,-0.0003788006535162462,0.018999971865498413,0.10617090828550765,0.004787688495776476,-0.03770719402533224,-0.2126910750975662
1781555679844884480,0.6953372955322266,-1.555572271347046,0.14440542459487915,0.09011013060808182,-0.036150019615888596,0.009838154539465904,-0.9992979764938354,-0.007047612220048904,-0.03806691616773605,0.03611743450164795,-0.9942026303531256,0.006806683820818995,0.017455533084595208,0.10587735859076614,-0.009838313157264392,-0.03615965021548734,-0.21236762765154496
1781555679854919424,0.7053723335266113,-1.6324995756149292,0.1778736263513565,0.06504099816083908,-0.03461882099509239,0.026026654988527298,-0.999061644077301,-0.014926467090845108,-0.014796186238527298,0.020210325717926025,-0.994171318339344,0.014772512990228122,0.015841570855992748,0.1056133506080417,-0.026029593923262644,-0.034637476743010175,-0.21212207781146908
1781555679864954112,0.715407133102417,-1.6206953525543213,0.13373678922653198,0.03746715933084488,-0.0329461395740509,0.042394232004880905,-0.9985576272010803,-0.011456936597824097,0.020685605704784393,-0.0025410056114196777,-0.994056272078585,0.022825550175299598,0.01414899606376782,0.1055033194527737,-0.04240693979439026,-0.03298176497029404,-0.21217611943242437
1781555679874989312,0.7254421710968018,-1.5040217638015747,0.09310068935155869,0.018234344199299812,-0.03179817646741867,0.05815592408180237,-0.9978009462356567,-0.006974402815103531,0.06722554564476013,-0.010392963886260986,-0.9938673953517139,0.0306104873355964,0.012748168744516805,0.10548996207508739,-0.0581887545900339,-0.03185747450716349,-0.2124171527781372
1781555679885025280,0.7354781627655029,-1.2288650274276733,0.05970451608300209,0.00991569459438324,-0.031019406393170357,0.07192572206258774,-0.9969274997711182,-0.022477906197309494,0.07791557908058167,-0.05591362714767456,-0.9936446986094437,0.037428355602842904,0.011634279285419581,0.10551795496468684,-0.07198788402140105,-0.031104971641658118,-0.21271286942590728
1781555679895060224,0.7455132007598877,-0.9466348886489868,0.03327876701951027,0.011902413330972195,-0.030576778575778008,0.08273393660783768,-0.996102511882782,-0.04440490901470184,0.07018965482711792,-0.06978493928909302,-0.9934347190933036,0.04279231565629918,0.01084324160213663,0.10554084266462051,-0.08282861067339749,-0.0306867832608378,-0.21295437980009282
1781555679905095424,0.7555482387542725,-0.8429031372070312,0.08394473791122437,-0.008265439420938492,-0.03003973513841629,0.09158903360366821,-0.9953436851501465,-0.04820733517408371,0.06888765096664429,-0.017427921295166016,-0.9932392563055711,0.04718058821030411,0.01010676619471302,0.10558221041122076,-0.09171757094655096,-0.030171105894319688,-0.2131910426435211
1781555679915130368,0.7655832767486572,-0.7655358910560608,0.0868087038397789,-0.015673555433750153,-0.029119620099663734,0.09966577589511871,-0.9945947527885437,-0.033395636826753616,0.07095799595117569,-0.0034062862396240234,-0.9930365218187065,0.0511633555357684,0.009215211850535912,0.10571566102690724,-0.09983151989760808,-0.029269511736086624,-0.21357736184050086
1781555679925165312,0.775618314743042,-0.5346451997756958,0.0016690432094037533,-0.008781559765338898,-0.02866128273308277,0.1062338650226593,-0.9939280152320862,-0.008905855938792229,0.0412575900554657,-0.04344075918197632,-0.9928577266224664,0.05441921917824992,0.008633754833113369,0.10581833937241321,-0.10643470636024671,-0.028828388436099684,-0.2138931923809278
1781555679935200512,0.7856533527374268,-0.3876299262046814,-0.065361388027668,-0.016538018360733986,-0.02901591919362545,0.11072787642478943,-0.9934270977973938,0.00226726196706295,0.0022634491324424744,-0.0494500994682312,-0.9927245931155284,0.05668359194213162,0.008568436347152295,0.10588359356235567,-0.11095540159419105,-0.029199598749135556,-0.21413740722257762
1781555679945235200,0.7956881523132324,-0.3642668128013611,-0.10747861862182617,-0.04502452164888382,-0.02990703098475933,0.11438445001840591,-0.992986261844635,-0.00175495445728302,-0.02980498969554901,-0.024652838706970215,-0.9925978584020544,0.0585597802117775,0.008809567975138497,0.10603108653285688,-0.11463535942199374,-0.030109169850605546,-0.21456429128611
1781555679955270400,0.8057231903076172,-0.41503918170928955,-0.16734753549098969,-0.059911590069532394,-0.031336136162281036,0.11820147931575775,-0.992495059967041,-0.007558517158031464,-0.07991717755794525,-0.008084774017333984,-0.9924484587513992,0.06054670116747948,0.009303982852498715,0.10627077934877759,-0.118478466290725,-0.03156260604944654,-0.21521792452801158
1781555679965306368,0.8157591819763184,-0.5471250414848328,-0.22194021940231323,-0.044095609337091446,-0.03335202857851982,0.12292155623435974,-0.991855800151825,-0.01648317649960518,-0.12432536482810974,0.02138155698776245,-0.992263134478101,0.06301783913108593,0.010042423471625064,0.10649821601170871,-0.12323323217655549,-0.03361321887726253,-0.21591258638481334
1781555679975341312,0.8257942199707031,-0.7363247871398926,-0.24083693325519562,-0.02174423076212406,-0.03571369871497154,0.1292651891708374,-0.9909667372703552,-0.03504130616784096,-0.1418231874704361,0.050445497035980225,-0.9920262852093893,0.06632062636422492,0.010872620672654846,0.1066172736807378,-0.12962791753599387,-0.036023661569218435,-0.21646494112374118
1781555679985376256,0.8358292579650879,-0.9212275147438049,-0.22491909563541412,0.004479117691516876,-0.03805290535092354,0.1375310868024826,-0.9897662401199341,-0.04320014640688896,-0.1261938065290451,0.06195557117462158,-0.9917225855307101,0.07058626921222959,0.011595974439055691,0.1066278532986799,-0.13796838168019954,-0.03842742959255384,-0.2168681751194631
1781555679995411456,0.8458642959594727,-1.0871903896331787,-0.20295946300029755,0.018795737996697426,-0.04017055407166481,0.14751143753528595,-0.9882442355155945,-0.03705417737364769,-0.08403487503528595,0.06342428922653198,-0.9913475226481927,0.07570253753402703,0.012124310615400381,0.10654690356776568,-0.1480517032353324,-0.04062603932765813,-0.21714501593833915
1781555680005446400,0.8558993339538574,-1.186392903327942,-0.2001078873872757,0.004514803644269705,-0.04212384298443794,0.158832386136055,-0.9864065647125244,-0.019109677523374557,-0.03259642422199249,0.06720185279846191,-0.9908922517962232,0.08148921019373377,0.0124995858204376,0.10647027699768585,-0.15950791260536612,-0.04267841186237829,-0.21748799796676896
1781555680015481344,0.8659341335296631,-1.250332236289978,-0.20964094996452332,-0.0375671349465847,-0.04419020190834999,0.17087815701961517,-0.9843007326126099,-0.0027458295226097107,0.017537355422973633,0.07194721698760986,-0.9903539171622582,0.08765688439327134,0.012880866221540483,0.10653452696127244,-0.17172087273085754,-0.04486489564521935,-0.2181824862474334
1781555680025516288,0.8759691715240479,-1.2646397352218628,-0.2199617475271225,-0.07741468399763107,-0.046413883566856384,0.1832883358001709,-0.9819629192352295,0.002514343708753586,0.0541689395904541,0.07317996025085449,-0.9897338095921424,0.09403008557755368,0.013300111721022603,0.10681018343420672,-0.18433041694544047,-0.047231278756989244,-0.21937033897815825
1781555680035551232,0.8860042095184326,-1.2647318840026855,-0.2085264027118683,-0.10435175895690918,-0.04869788885116577,0.1956857293844223,-0.9794567823410034,-0.00734763965010643,0.06452237069606781,0.0637158751487732,-0.989053144049274,0.10041460654410304,0.013729931387413017,0.10724846768762629,-0.1969566568030947,-0.04967837442104276,-0.22093604051823088
1781555680045587200,0.8960402011871338,-1.2840344905853271,-0.1904163807630539,-0.11117903888225555,-0.05087055638432503,0.2081323266029358,-0.9767768979072571,-0.014971118420362473,0.05663818120956421,0.04776078462600708,-0.9883182776811464,0.10683226610738866,0.01408594449478958,0.10777531553035735,-0.20966508225792135,-0.05203300469411498,-0.22271605267752898
1781555680055622400,0.9060752391815186,-1.331864356994629,-0.16451340913772583,-0.10425002872943878,-0.05285659804940224,0.22084994614124298,-0.9738744497299194,-0.018554527312517166,0.021505385637283325,0.02406066656112671,-0.9875248687930238,0.11339115590888056,0.014325149482345978,0.10831407313637224,-0.22268584506008898,-0.054221351252601795,-0.22455509495424464
1781555680065657344,0.9161102771759033,-1.4881287813186646,-0.15094487369060516,-0.10759042948484421,-0.05463150143623352,0.23450428247451782,-0.9705787897109985,-0.01381942629814148,-0.022025644779205322,0.003446221351623535,-0.9866323748260445,0.1204293683194427,0.014400863595617182,0.10883884185941557,-0.2367085977984519,-0.05622821942807931,-0.22642630608260603
1781555680075692288,0.9261453151702881,-1.6248738765716553,-0.16336451470851898,-0.09118455648422241,-0.05637964606285095,0.24963025748729706,-0.9666985273361206,-0.007066402584314346,-0.06345777213573456,-0.0015631914138793945,-0.9855901268017839,0.12823482674151088,0.014372151350437302,0.109367891019781,-0.25229840247957935,-0.0582558572879195,-0.22841976375694936
1781555680085727488,0.9361803531646729,-1.775593876838684,-0.19730864465236664,-0.06143651530146599,-0.05833643674850464,0.26598143577575684,-0.9622113704681396,-0.0013864636421203613,-0.08604979515075684,-0.02938103675842285,-0.9844099897947222,0.13670116048379952,0.014391105217274642,0.10973915597430613,-0.26922189442751887,-0.06055334457837584,-0.2302406358013434
1781555680095762176,0.9462151527404785,-1.986005187034607,-0.1644609421491623,-0.054558370262384415,-0.060313377529382706,0.28403645753860474,-0.9569146037101746,-0.005482517182826996,-0.08687767386436462,-0.033411264419555664,-0.9830347767941445,0.14607288679779545,0.014331818279203,0.10999996609931323,-0.28800134495472424,-0.06294573951780083,-0.23199994647371272
1781555680105797376,0.9562501907348633,-2.2174248695373535,-0.2057870775461197,-0.05508540943264961,-0.062193192541599274,0.30409377813339233,-0.9506098031997681,-0.008973799645900726,-0.08146804571151733,-0.035916686058044434,-0.9813964241260797,0.15651332181871716,0.014095406701720431,0.11029996549022071,-0.30898701763005004,-0.06533141371732315,-0.23402024132582955
1781555680115833344,0.9662861824035645,-2.3551785945892334,-0.2218848168849945,-0.0451321117579937,-0.06438763439655304,0.3258793354034424,-0.9432162642478943,0.0052445679903030396,-0.06438946723937988,-0.04311186075210571,-0.9794842539118856,0.16792314221848517,0.013917280509012342,0.1105390153374647,-0.3319416953117242,-0.06815817214759853,-0.2361792810619891
1781555680125868288,0.9763212203979492,-2.4285497665405273,-0.2525484561920166,-0.02919229306280613,-0.06674880534410477,0.3484223186969757,-0.9349580407142639,0.013892367482185364,-0.05072334408760071,-0.045968472957611084,-0.9773583183798169,0.1798080860656045,0.01378550109186518,0.11067927172035365,-0.3558874245944443,-0.07127137802447951,-0.2383489640599339
1781555680135903232,0.986356258392334,-2.4690797328948975,-0.27572154998779297,-0.029088696464896202,-0.06932564079761505,0.37127816677093506,-0.9259300827980042,0.010091021656990051,-0.04658639430999756,-0.02638620138168335,-0.9750399398072491,0.19195286315766813,0.01375026483162257,0.11073428384866754,-0.3803852014184872,-0.07473192369285186,-0.24056269245405398
1781555680145938432,0.9963912963867188,-2.503549814224243,-0.2672092914581299,-0.03538786992430687,-0.0719904899597168,0.3942287564277649,-0.9161883592605591,0.0014796257019042969,-0.04699975252151489,-0.00026977062225341797,-0.9725328944625597,0.20424719780943296,0.013744666926115116,0.11078783243738144,-0.4052284872144386,-0.07841496417691735,-0.24297260814540275
1781555680155973376,1.0064263343811035,-2.5110015869140625,-0.24131964147090912,-0.027424752712249756,-0.07444866001605988,0.4171486496925354,-0.9057838320732117,-0.010527528822422028,-0.03657922148704529,0.008399248123168945,-0.9698475559393144,0.21661596838504593,0.013623314974861056,0.11084958749093238,-0.43030570392273654,-0.08200818119233134,-0.24553535349637556
1781555680166009344,1.0164623260498047,-2.4964096546173096,-0.22666306793689728,-0.005221979226917028,-0.07660834491252899,0.4397840201854706,-0.8948302865028381,-0.006323173642158508,-0.011042565107345581,-0.012350499629974365,-0.9673524977013995,0.22888216323983024,0.014064869764427073,0.10790917302141118,-0.455358160965152,-0.08540390248145147,-0.24198272114160332
1781555680176044544,1.0264973640441895,-2.4367318153381348,-0.23831811547279358,0.002574424957856536,-0.07865603268146515,0.46181246638298035,-0.8834831118583679,0.003918491303920746,0.007563114166259766,-0.012726545333862305,-0.964426504110889,0.24097064085308775,0.013841399444351978,0.10780983188068351,-0.48003753391521875,-0.08879535754511289,-0.2443934621995128
1781555680186079488,1.0365324020385742,-2.3923470973968506,-0.2975598871707916,0.009892525151371956,-0.08096524327993393,0.48305630683898926,-0.871837854385376,-5.893409252166748e-05,0.0040805041790008545,-0.025836706161499023,-0.9617149288875589,0.2527265779176147,0.014503664956855764,0.10499184616419562,-0.5041419429685811,-0.09260171815889502,-0.2413470916839013
1781555680196115456,1.0465683937072754,-2.414933681488037,-0.3296051621437073,0.021309763193130493,-0.08365023881196976,0.5039181709289551,-0.859691321849823,-0.022917136549949646,-0.028362810611724854,-0.0459330677986145,-0.9585860701190346,0.26445552457055366,0.014752114924277712,0.10468281407733249,-0.5281290381571858,-0.09699730066855043,-0.2437938715173949
1781555680206150656,1.0566034317016602,-2.495817184448242,-0.3143613636493683,0.043652620166540146,-0.08626997470855713,0.5249500870704651,-0.8467496633529663,-0.050036780536174774,-0.07333564758300781,-0.06795370578765869,-0.9552489897855212,0.27640681441478954,0.014981775919076899,0.10427984897091848,-0.5526564441424241,-0.10153333824963329,-0.24628499116347854
1781555680216185600,1.066638469696045,-2.4419748783111572,-0.25886932015419006,0.08339763432741165,-0.0883742943406105,0.5459387302398682,-0.8331512212753296,-0.060093723237514496,-0.09224921464920044,-0.11159670352935791,-0.9517427258988723,0.2884436937733007,0.014987953414898949,0.1037376514572495,-0.5775091603738648,-0.10567718234657841,-0.24855679368133196
1781555680226220288,1.0766732692718506,-2.2820727825164795,-0.220558300614357,0.10686274617910385,-0.08980076014995575,0.5656647086143494,-0.8197311758995056,-0.04682643711566925,-0.05420541763305664,-0.12921291589736938,-0.9482790037153097,0.29986171205111384,0.014742960863483503,0.1031139979557482,-0.6012391082619664,-0.10911392990885058,-0.2504823008020166
1781555680236255488,1.0867083072662354,-1.9335297346115112,-0.217963308095932,0.14003323018550873,-0.09087243676185608,0.5830773711204529,-0.807318389415741,-0.015450797975063324,0.01799684762954712,-0.11158108711242676,-0.945083636838052,0.3100493634488576,0.014497758269392738,0.10235345883142387,-0.6225114839386969,-0.11208904024069626,-0.2518553376082526
1781555680246290432,1.0967433452606201,-1.628930687904358,-0.22474345564842224,0.10767554491758347,-0.0918600931763649,0.5974655747413635,-0.796615719795227,0.007005967199802399,0.0918806791305542,-0.08062732219696045,-0.9423383721412579,0.31856583017891743,0.014420928441808816,0.10151953062654556,-0.6403368580509002,-0.1148058680322256,-0.25273936551941606
1781555680256325376,1.1067783832550049,-1.4183406829833984,-0.21592412889003754,0.02116834931075573,-0.09321558475494385,0.6096154451370239,-0.7871975302696228,0.014876969158649445,0.14165103435516357,-0.0409122109413147,-0.9398965368226183,0.3258658384743998,0.01458426576159944,0.10096207579912816,-0.6555753600994041,-0.11786562276586295,-0.25413781588690637
1781555680266361600,1.116814374923706,-1.1971886157989502,-0.19570261240005493,-0.03550798073410988,-0.09490735828876495,0.6199184656143188,-0.77890545129776,0.023358896374702454,0.15829503536224365,-0.03310626745223999,-0.9377092475044251,0.3321519210418248,0.014912354015140175,0.10076782774030395,-0.6686388137900173,-0.12124939274422131,-0.25626418273290175
1781555680276396544,1.1268494129180908,-1.0082170963287354,-0.17967331409454346,-0.060642361640930176,-0.0966688022017479,0.6283905506134033,-0.7718681693077087,0.031498514115810394,0.1524321436882019,-0.03651195764541626,-0.9358301550735882,0.33738900736889704,0.015316177952458007,0.1007770182191325,-0.6794825394988374,-0.12459133633666986,-0.25863400020734134
1781555680286431488,1.1368844509124756,-0.8838436603546143,-0.19316622614860535,-0.0680462121963501,-0.09850627183914185,0.635633647441864,-0.7656803131103516,0.03989725559949875,0.12252974510192871,-0.03301048278808594,-0.9341671069261223,0.3419209242592436,0.01580909783568206,0.1008560535391497,-0.6888290749596555,-0.1279491345991514,-0.26104554414213726
1781555680296466688,1.1469194889068604,-0.694678544998169,-0.229226753115654,-0.05204993858933449,-0.1005360335111618,0.6416701078414917,-0.7603630423545837,0.047252342104911804,0.0793381929397583,-0.02782970666885376,-0.9327430443176695,0.3457542482062187,0.01650679775253169,0.10085607568498416,-0.6966738107763132,-0.13145856241218923,-0.263218268829576
1781555680306501376,1.156954288482666,-0.5962816476821899,-0.2850821614265442,-0.034211818128824234,-0.10277926176786423,0.6464247107505798,-0.7560235261917114,0.044246554374694824,0.049406588077545166,-0.011340975761413574,-0.9316036757879141,0.3488303189377439,0.017482471269232646,0.10063028686124766,-0.7028890755965655,-0.1351188249690378,-0.26481117425939654
1781555680316536320,1.1669893264770508,-0.5323324799537659,-0.3255994915962219,-0.026501169428229332,-0.10529328137636185,0.6506277918815613,-0.7520617246627808,0.024528510868549347,0.02609950304031372,0.003984332084655762,-0.9305763508274012,0.35159659645188623,0.018681057564844332,0.1002924653286392,-0.708410875097349,-0.13910199423639988,-0.2662322199709015
1781555680326571520,1.1770243644714355,-0.5825660824775696,-0.3252158463001251,-0.042096640914678574,-0.10798374563455582,0.6547857522964478,-0.748060941696167,0.004422344267368317,0.014815688133239746,0.003569364547729492,-0.929540222330249,0.35435847019484895,0.019990424024732396,0.09992697308673548,-0.7138990997275084,-0.1433612562996212,-0.2677223088922568
1781555680336607488,1.1870603561401367,-0.5637657642364502,-0.31457892060279846,-0.03212976083159447,-0.11064357310533524,0.659096360206604,-0.7438750267028809,-0.008909031748771667,0.004844069480895996,0.0012450218200683594,-0.9284487064871217,0.3572259581351792,0.021262674994670612,0.09960217558122827,-0.7196165453945336,-0.1476569203438766,-0.2693716493367758
1781555680346642432,1.1970953941345215,-0.5222806334495544,-0.278374046087265,0.0021832066122442484,-0.11295416206121445,0.6631594300270081,-0.7399060726165771,-0.012335754930973053,0.0022458434104919434,-0.0051348209381103516,-0.9274231251703424,0.35992387005819465,0.02240054858303148,0.09919402145677761,-0.7250320607721782,-0.15149053753617903,-0.270654349144513
1781555680356677632,1.2071304321289062,-0.4105437695980072,-0.25950130820274353,0.033831946551799774,-0.11479954421520233,0.6666543483734131,-0.7364733815193176,-0.015022225677967072,-0.00040984153747558594,-0.010703682899475098,-0.9265516032813604,0.362239176740721,0.023368229962321737,0.09868590581701042,-0.729711131912079,-0.15463298023324443,-0.2713813550707654
1781555680366712576,1.217165470123291,-0.4629102945327759,-0.23979191482067108,0.05659797787666321,-0.11638110131025314,0.6698539853096008,-0.733315110206604,-0.015866823494434357,-0.00847703218460083,-0.003257155418395996,-0.9257679036206895,0.364353287914385,0.024272123118091623,0.09803726488632974,-0.734012153879795,-0.1573927752991637,-0.27162221738229764
1781555680376747264,1.2272002696990967,-0.45926976203918457,-0.20850563049316406,0.05727388709783554,-0.11765145510435104,0.6734381914138794,-0.7298212051391602,-0.017785541713237762,-0.03786391019821167,0.0038538575172424316,-0.9248828749898855,0.36669692052197217,0.024955037753075816,0.09747898042855088,-0.738849991655235,-0.15983079984592735,-0.27201566413277134
1781555680386782464,1.2372353076934814,-0.5250421166419983,-0.21688885986804962,0.094839908182621,-0.11868836730718613,0.677034854888916,-0.726317286491394,-0.009103983640670776,-0.03073364496231079,-0.0037241578102111816,-0.924009442229806,0.3690356145700658,0.025574654280075902,0.09677375569892047,-0.7437261570094604,-0.1619795159149792,-0.27199466237802267
1781555680396817408,1.2472703456878662,-0.5794180035591125,-0.17856118083000183,0.08924832940101624,-0.11950551718473434,0.6812674403190613,-0.7222141027450562,-0.009751677513122559,-0.02175205945968628,-0.00012171268463134766,-0.9229745798704626,0.3717717895309682,0.026051862543744427,0.09604696611234408,-0.7494926060388367,-0.16398514637934664,-0.2720017297778421
1781555680406853376,1.2573063373565674,-0.557500958442688,-0.17026463150978088,0.10935493558645248,-0.12009989470243454,0.6854539513587952,-0.7181427478790283,-0.006410710513591766,-0.007597506046295166,-0.02109980583190918,-0.9219450658767413,0.37447442468831615,0.02641092598280058,0.09533501763244788,-0.7552269388121,-0.16570335630374392,-0.27193328137521383
1781555680416888576,1.2673413753509521,-0.5877895951271057,-0.15804418921470642,0.0944119393825531,-0.12057355046272278,0.6897591352462769,-0.7139288783073425,-0.005021534860134125,0.01974409818649292,-0.008101701736450195,-0.9208729170827673,0.37725721673894314,0.02669344366232133,0.09464499131094649,-0.7611562911635016,-0.16730854725395686,-0.2719045310846415
1781555680426923520,1.277376413345337,-0.5651426315307617,-0.16634312272071838,0.09366678446531296,-0.12107720226049423,0.6939693689346313,-0.709751307964325,-0.003297187387943268,0.03668248653411865,-0.011318087577819824,-0.9198062990539841,0.37999448624334486,0.026991556392852858,0.09397925530459017,-0.7669874640634742,-0.16896453109994805,-0.271947224804781
1781555680436958464,1.2874114513397217,-0.4854084253311157,-0.16293054819107056,0.06923068314790726,-0.12166952341794968,0.6978673338890076,-0.7058171033859253,-0.0008738115429878235,0.030877232551574707,-0.012261509895324707,-0.9187977838598115,0.3825498164571606,0.027332926416997055,0.09337693106917024,-0.7724154975798022,-0.17070345146437055,-0.27211739676870317
1781555680446993664,1.2974464893341064,-0.24458569288253784,-0.17669950425624847,0.12209708988666534,-0.12226385623216629,0.7005695104598999,-0.7030319571495056,-0.0017137974500656128,0.028236031532287598,-0.016343653202056885,-0.9181079679927665,0.38433371696168206,0.027777886690457384,0.09270284779925543,-0.7761952925293635,-0.17218726551252828,-0.2718021220285621
1781555680457028352,1.307481288909912,-0.2363796979188919,-0.14797277748584747,0.1021185889840126,-0.12260384112596512,0.7023650407791138,-0.7011787295341492,-0.010208658874034882,0.07035529613494873,0.00417250394821167,-0.9176917878568485,0.3855046379258974,0.028227854102489697,0.09182107829639242,-0.7787146373898547,-0.17310391572232617,-0.27062231765532235
1781555680467063552,1.3175163269042969,-0.22905918955802917,-0.06214841455221176,0.017663095146417618,-0.12291847169399261,0.7040690779685974,-0.69941246509552,-0.031164780259132385,0.06865125894546509,0.0011702775955200195,-0.9172529172526496,0.38662993683971897,0.0284792614347586,0.09139630877805423,-0.7811113749174392,-0.1739687547180928,-0.2704011618709433
1781555680477099520,1.327552318572998,-0.20548489689826965,-0.04145166277885437,-0.0019100721692666411,-0.12322656810283661,0.7055774331092834,-0.6978364586830139,-0.015719957649707794,0.05208241939544678,-0.009042203426361084,-0.9168304535293996,0.38763950003557546,0.028590166074470024,0.0913244116668733,-0.7832376763550314,-0.17478193101477651,-0.2708913873799474
1781555680487134464,1.3375873565673828,-0.19315765798091888,-0.06558562815189362,0.025051770731806755,-0.12351638823747635,0.7070412039756775,-0.6963019967079163,0.003429725766181946,0.05191570520401001,-0.0034813284873962402,-0.9164247724052318,0.38861843364934323,0.02871772895822621,0.0911962811516921,-0.7853054488339409,-0.17556283221424906,-0.271239196695038
1781555680497169408,1.3476223945617676,-0.1675465703010559,-0.0737607330083847,-0.007453175727277994,-0.12390702217817307,0.7082846164703369,-0.6949676275253296,0.0002345442771911621,0.06274199485778809,-0.00583803653717041,-0.916077380165768,0.3894602389529484,0.028929562545099367,0.0910280204748437,-0.7870652823540586,-0.17643785506759294,-0.27149707669490664
1781555680507204608,1.3576574325561523,-0.1127895712852478,-0.08328060060739517,-0.02617732807993889,-0.12461941689252853,0.709297776222229,-0.6938059329986572,-0.00833040475845337,0.0677560567855835,0.0070078372955322266,-0.9157639227898053,0.3901796408473503,0.029272330471651585,0.09099184231024901,-0.7885015388368879,-0.17772203443218945,-0.27217271704023915
1781555680517239552,1.367692470550537,-0.001593276159837842,-0.041907064616680145,-0.00990861002355814,-0.12520556151866913,0.7096620202064514,-0.6933277249336243,-0.013267949223518372,0.07343423366546631,0.006773769855499268,-0.9156366558466896,0.39046253020909694,0.029582814652702648,0.09095794987371957,-0.7890183868045162,-0.1786608784349565,-0.27257413868975994
1781555680527274496,1.3777272701263428,0.059160083532333374,0.016210302710533142,-0.015080735087394714,-0.12538695335388184,0.7094314694404602,-0.6935309171676636,-0.02845214307308197,0.0761215090751648,0.008533358573913574,-0.9156896985762129,0.39032478417861227,0.029683181498193566,0.0909829409842526,-0.7886911575929939,-0.17886292888033845,-0.27266710729153854
1781555680537309440,1.3877623081207275,0.09149778634309769,0.06612087041139603,-0.01752045750617981,-0.12522628903388977,0.7088668346405029,-0.6941369771957397,-0.02684280276298523,0.04197239875793457,-0.003449082374572754,-0.9158393882194462,0.3899457087693462,0.029560986516298432,0.09114097198741773,-0.7878903771302569,-0.1784859129343408,-0.2727347942302526
1781555680547345408,1.3977982997894287,0.10393128544092178,0.06510540843009949,-0.0016112654702737927,-0.12480839341878891,0.708156406879425,-0.6949368715286255,-0.007454782724380493,0.0016518831253051758,-0.009012043476104736,-0.916041154015962,0.38945189455251944,0.029304994205048868,0.09130682768110993,-0.7868837002119777,-0.1777023030594914,-0.2726170489380211
1781555680557380352,1.4078333377838135,0.09309994429349899,0.02509700320661068,0.005192311946302652,-0.1244727075099945,0.7074605226516724,-0.6957054734230042,0.007712461054325104,-0.01964014768600464,-0.0030859708786010742,-0.916244443633335,0.38897090725934474,0.02913572272608117,0.09137164399946465,-0.7858985328044797,-0.17704257555489417,-0.2723353733628664
1781555680567415552,1.4178683757781982,0.07329801470041275,-0.015062532387673855,0.012228117324411869,-0.12437699735164642,0.7068814635276794,-0.6963109374046326,0.009249433875083923,-0.024340510368347168,0.004874229431152344,-0.916414364265832,0.3885814636680879,0.029137014831097232,0.0913242764742855,-0.7850795284881246,-0.17675862059911304,-0.2719930207756215
1781555680577450496,1.427903413772583,0.06818634271621704,-0.034353405237197876,0.014657187275588512,-0.12446799129247665,0.706403374671936,-0.696779727935791,0.002153530716896057,-0.016217827796936035,0.009325504302978516,-0.9165547084628416,0.3882700405745942,0.029266385409644047,0.09119877499174905,-0.7844038566107253,-0.17676872046931663,-0.2716258045284517
1781555680587485440,1.4379384517669678,0.06791682541370392,-0.03247161954641342,0.018004778772592545,-0.12460465729236603,0.7059497237205505,-0.6972149014472961,-0.012510821223258972,-0.0014056563377380371,0.006251156330108643,-0.9166882431091146,0.387977426434881,0.029428878535021075,0.09104968607123862,-0.7837631542458047,-0.17685062268203397,-0.2712426847724085
1781555680597520640,1.4479734897613525,0.07371293008327484,-0.013630017638206482,0.023974254727363586,-0.12462715804576874,0.7054856419563293,-0.6976805329322815,-0.021323159337043762,0.003712296485900879,0.003436148166656494,-0.9168301885392892,0.38766954006449894,0.029530885001551006,0.09089899180033603,-0.7831081149511644,-0.17676629070241812,-0.27078377769984885
1781555680607555328,1.4580082893371582,0.07689620554447174,0.012868567369878292,0.024879995733499527,-0.12445680052042007,0.7049923539161682,-0.6982093453407288,-0.02106626331806183,0.004190325736999512,0.0034003853797912598,-0.9169865171586733,0.3873293232907547,0.029518346310531827,0.0907766897905942,-0.7824123997950639,-0.17639871261638326,-0.2702615048567199
1781555680617591296,1.4680442810058594,0.08162518590688705,0.04464860260486603,0.017888398841023445,-0.12410101294517517,0.7044630646705627,-0.698806643486023,-0.02226129174232483,0.01027381420135498,0.0024107694625854492,-0.9171543594961112,0.38695432145202086,0.029377530606057977,0.09072589309823223,-0.7816663602403753,-0.1757575174565549,-0.2697729449548194
1781555680627626496,1.4780793190002441,0.0891459509730339,0.07919792830944061,0.01714511029422283,-0.12354385852813721,0.703876793384552,-0.699495792388916,-0.01923263818025589,0.010860145092010498,2.384185791015625e-06,-0.9173394429807368,0.3865299363075805,0.02909850813012752,0.09075292298397739,-0.7808405986237863,-0.1748155954351816,-0.2693166456288651
1781555680637661440,1.488114356994629,0.10229876637458801,0.10140309482812881,0.017350174486637115,-0.12278871238231659,0.7032134532928467,-0.7002954483032227,-0.01228208839893341,0.010241687297821045,0.00013065338134765625,-0.9175492374666099,0.3860426583406643,0.02869395990855517,0.09083513391175241,-0.7799072151941278,-0.17357403678658173,-0.2688402946744516
1781555680647696384,1.4981493949890137,0.10766823589801788,0.12127387523651123,0.010213702917098999,-0.12190154194831848,0.7024813890457153,-0.7011846303939819,-0.0023660361766815186,0.010653376579284668,0.0033849477767944336,-0.9177771027247639,0.38550316104551374,0.028195631393996612,0.0909810061385951,-0.7788781165385611,-0.17213043978603088,-0.26840577796536486
1781555680657731584,1.5081844329833984,0.10358134657144547,0.09974966943264008,0.0010881146881729364,-0.12107841670513153,0.701739490032196,-0.7020695209503174,0.00979606807231903,0.0026824474334716797,0.002728760242462158,-0.9180001354338997,0.3849635475661786,0.027718080213947824,0.09116189232394215,-0.7778362182724398,-0.17077939126034183,-0.26808638655194694
1781555680667766528,1.5182194709777832,0.08669637143611908,0.06078802049160004,-0.003791861468926072,-0.12052218616008759,0.7010622620582581,-0.7028414011001587,0.01738802343606949,-0.015774786472320557,0.005255341529846191,-0.9181952019719687,0.384485249297067,0.027393118337067916,0.09131393901845292,-0.7768860659341309,-0.169826766199783,-0.2678854867634064
1781555680677801472,1.5282542705535889,0.05650544539093971,0.014276980422437191,-0.0036365992855280638,-0.12030113488435745,0.7005488276481628,-0.7033910751342773,0.01753319799900055,-0.03206127882003784,0.009497642517089844,-0.9183366977772904,0.3841365440368887,0.027268790482866786,0.09139624450597456,-0.7761663169487952,-0.16939128280281462,-0.2677821183315858
1781555680687837440,1.53829026222229,0.022807138040661812,-0.013813111931085587,0.0009421734139323235,-0.12032263725996017,0.700258195400238,-0.703676700592041,0.011329106986522675,-0.03674501180648804,0.008028507232666016,-0.918414891095662,0.3839484726270199,0.027298848592201778,0.09139156134342527,-0.7757591418201055,-0.16935352076658117,-0.26769941522977636
1781555680697872384,1.5483253002166748,-0.0072096167132258415,-0.029186740517616272,0.001274003298021853,-0.12049522250890732,0.70021653175354,-0.7036886215209961,-0.0002933517098426819,-0.03571152687072754,0.005278587341308594,-0.918422716735174,0.3839325255459751,0.02741356616846164,0.09134513675069406,-0.7757007224926054,-0.16958898061233144,-0.26768861060244975
1781555680707907328,1.5583603382110596,-0.022366464138031006,-0.028703778982162476,0.00561415683478117,-0.12067361921072006,0.700332522392273,-0.7035426497459412,-0.007591761648654938,-0.02482593059539795,0.0018977522850036621,-0.9183900751093306,0.3840190427597057,0.027532811001413787,0.09127398474731632,-0.7758631908685028,-0.1698698303253523,-0.2676737389111683
1781555680717942528,1.5683953762054443,-0.02721448242664337,-0.01800665631890297,0.010239268653094769,-0.12078816443681717,0.7005317807197571,-0.703324556350708,-0.011276662349700928,-0.00825577974319458,-0.0005176067352294922,-0.9183386917387855,0.38415496761085755,0.02761682111447432,0.0911936290118081,-0.7761424158578986,-0.17007969761513492,-0.2676254841638672
1781555680727977472,1.578430414199829,-0.013229425996541977,0.004121281672269106,0.010178549215197563,-0.1207737922668457,0.7006993293762207,-0.7031601667404175,-0.014800548553466797,0.010894298553466797,-0.0015975236892700195,-0.9183000743277313,0.38426133583229527,0.027625253011131404,0.09113231445811136,-0.7763772110844152,-0.17009885186680238,-0.2675327484883969
1781555680738012672,1.5884654521942139,0.017306912690401077,0.026668403297662735,0.007891159504652023,-0.12059988081455231,0.700698971748352,-0.7031903266906738,-0.017797328531742096,0.025390446186065674,-0.002254009246826172,-0.9183088634649198,0.3842482440426463,0.02753382699630365,0.09112697944794151,-0.7763767451184821,-0.16985143844277575,-0.26741753896231374
1781555680748048640,1.598501443862915,0.04934367164969444,0.04630136117339134,0.006018424406647682,-0.12029260396957397,0.7004691362380981,-0.7034718990325928,-0.01894383877515793,0.026184916496276855,0.00027060508728027344,-0.9183818757815668,0.38407699927368755,0.0273660985114637,0.09116341933485043,-0.7760546298770752,-0.169360397272166,-0.2672466040184583
1781555680758083584,1.6085364818572998,0.07446447759866714,0.06221853941679001,0.008049351163208485,-0.11985322833061218,0.7000331878662109,-0.7039806842803955,-0.01733853667974472,0.019479751586914062,-0.0002887248992919922,-0.9185136591096601,0.3837627469820846,0.0271258871987201,0.09123114876967267,-0.775443984476092,-0.1686338394103537,-0.26700553427125673
1781555680768118272,1.6185712814331055,0.08954435586929321,0.06715098023414612,0.008958022110164165,-0.11932117491960526,0.6994432210922241,-0.7046571373939514,-0.015581779181957245,0.009220719337463379,-8.529424667358398e-05,-0.9186899896311633,0.3833419130862396,0.026840558404501107,0.0913086540981747,-0.7746181263836552,-0.16774108688446956,-0.26668718864887925
1781555680778153472,1.6286063194274902,0.07239759713411331,0.07511995732784271,0.012348758988082409,-0.11875193566083908,0.698876678943634,-0.7053149938583374,-0.00980336219072342,-0.008538603782653809,0.004707753658294678,-0.9188603995300592,0.38293423020041945,0.02653055501427204,0.09139452412087516,-0.7738257784898166,-0.16680282429383644,-0.2663736145471571
1781555680788188416,1.638641357421875,0.056409839540719986,0.06966406852006912,0.01955553889274597,-0.11815132200717926,0.6984316110610962,-0.7058566212654114,-0.00413261353969574,-0.01711142063140869,0.0011447668075561523,-0.9190018969004269,0.38260271166409654,0.026207681208144505,0.09145452811961134,-0.7732036729937447,-0.16584958731856117,-0.2660217686779774
1781555680798223616,1.6486763954162598,0.041657790541648865,0.06955647468566895,0.020192831754684448,-0.1175115779042244,0.6981130242347717,-0.7062785029411316,-0.0031854361295700073,-0.015526354312896729,0.003092467784881592,-0.919112999251867,0.3823502118658931,0.025866190856938736,0.0914916102435768,-0.7727586074594108,-0.16487106667800305,-0.2656344201143667
1781555680808258560,1.6587114334106445,0.022031892091035843,0.05701658874750137,0.014383413828909397,-0.11695557087659836,0.6979047060012817,-0.7065765261650085,-0.00017089396715164185,-0.012022137641906738,0.005435168743133545,-0.9191902802486098,0.3821756637551125,0.02556350968884542,0.09152873858847002,-0.7724677194558863,-0.16403695974185362,-0.26532871443121786
1781555680818294528,1.6687474250793457,0.0015082411700859666,0.046321600675582886,0.012033706530928612,-0.11648676544427872,0.6978261470794678,-0.7067315578460693,0.00567743182182312,-0.012813329696655273,0.008733510971069336,-0.9192291307542495,0.3820916584514571,0.02530214184619751,0.09156157886144937,-0.7723580319938227,-0.1633558911265418,-0.26510215051520114
1781555680828329472,1.6787824630737305,-0.010921796783804893,0.020061632618308067,0.014547464437782764,-0.11615001410245895,0.6978790163993835,-0.7067347764968872,0.006622426211833954,-0.015460193157196045,0.006859898567199707,-0.9192301425356086,0.3821016523942263,0.025118584599276194,0.09156005097164364,-0.7724318018023192,-0.1628912376353271,-0.26491566596059163
1781555680838364416,1.6888172626495361,-0.007150494493544102,0.007890719920396805,0.01984209381043911,-0.11592622101306915,0.6979793310165405,-0.7066724896430969,0.004964306950569153,-0.008556723594665527,0.006538271903991699,-0.9192182083441395,0.3821493118153899,0.025012872569247932,0.09151088768576006,-0.7725718754468717,-0.16259696346508792,-0.2647053019221382
1781555680848399360,1.698852300643921,0.010026894509792328,0.003280122298747301,0.01743246614933014,-0.1157732829451561,0.6980006694793701,-0.7066764831542969,-8.669495582580566e-05,0.003598451614379883,0.004268646240234375,-0.9192268521075176,0.38215011126487713,0.02496104460019035,0.09143469907663104,-0.7726017107836384,-0.1623853174349968,-0.2644555717887716
1781555680858434560,1.7088873386383057,0.029247460886836052,0.017668649554252625,0.0172529686242342,-0.11557948589324951,0.6978724598884583,-0.7068347930908203,-0.009512059390544891,0.011645972728729248,0.0028247833251953125,-0.9192762511114232,0.3820511134980145,0.024890703791761955,0.09137078774438734,-0.7724226834422601,-0.16208255605188843,-0.26416654631583375
1781555680868469504,1.7189223766326904,0.05127952620387077,0.036298394203186035,0.01839360035955906,-0.11527585238218307,0.6976031064987183,-0.7071502208709717,-0.014423847198486328,0.015867412090301514,-0.0015442371368408203,-0.9193652724794156,0.3818533847819829,0.02475633617266893,0.09133822390767242,-0.7720466377804968,-0.16159327844677396,-0.2638418504639961
1781555680878504448,1.7289574146270752,0.06914268434047699,0.05179772526025772,0.0219409316778183,-0.11481811106204987,0.6972063779830933,-0.707615852355957,-0.013401485979557037,0.013319134712219238,-0.005915641784667969,-0.9194938033029767,0.3815623627177148,0.024540710101709468,0.09131934421660894,-0.7714930977578416,-0.16085857410511775,-0.2634215567247132
1781555680888540416,1.7389934062957764,0.08866365253925323,0.06299299001693726,0.024635251611471176,-0.11425169557332993,0.6966672539710999,-0.7082381248474121,-0.0078033506870269775,0.011309981346130371,-0.0016312003135681152,-0.9196632065746932,0.38117184063989545,0.02426841301721285,0.09131597909209908,-0.7707413169508767,-0.15994028008133054,-0.26293302130966917
1781555680898575616,1.7490284442901611,0.09934745728969574,0.059317559003829956,0.021807773038744926,-0.11364658176898956,0.6960210204124451,-0.7089704871177673,-0.001099511981010437,0.012764990329742432,0.005006253719329834,-0.9198620587714561,0.3807095335434191,0.023979386397094748,0.09131781775724464,-0.7698409138362525,-0.15894585574158798,-0.26240551538530693
1781555680908610560,1.759063482284546,0.10306389629840851,0.045984573662281036,0.013878478668630123,-0.11314070969820023,0.6953269243240356,-0.7097321152687073,0.005383148789405823,0.0061806440353393555,0.00875866413116455,-0.920067736109993,0.3802239768343743,0.023741567087816485,0.09133170616859597,-0.7688746698615054,-0.15808311015866067,-0.2619511356718234
1781555680918645504,1.7690982818603516,0.09510929882526398,0.03216942772269249,0.017878545448184013,-0.11275453865528107,0.6946350336074829,-0.7104707360267639,0.009284697473049164,-0.00484621524810791,0.005163669586181641,-0.9202697106593778,0.3797481669774204,0.023579138446518298,0.09131868365920622,-0.7679124378497992,-0.15739135138875587,-0.26151045256943123
1781555680928680448,1.7791333198547363,0.07963287085294724,0.006985377985984087,0.018182678148150444,-0.11251255124807358,0.6940317153930664,-0.7110983729362488,0.008005112409591675,-0.014435827732086182,0.004662215709686279,-0.9204456817644943,0.37933923122601826,0.023506835780439845,0.09126266686956504,-0.7670740924108993,-0.15692273745327348,-0.26108543854183913
1781555680938715392,1.789168357849121,0.05046326667070389,-0.02237810380756855,0.011391885578632355,-0.11246228218078613,0.6935778856277466,-0.7115489840507507,0.005360841751098633,-0.026829838752746582,0.008134067058563232,-0.9205766961765012,0.3790399747425962,0.023541545143610693,0.09117598986807951,-0.766443910690386,-0.15675605850260843,-0.2607459316916487
1781555680948751360,1.7992043495178223,0.007123782765120268,-0.04481709748506546,0.012620667926967144,-0.11265150457620621,0.6933993697166443,-0.7116930484771729,0.0006519928574562073,-0.03479957580566406,0.013954401016235352,-0.9206279195681212,0.37893484520812787,0.02370366325569475,0.09105390657989171,-0.7661961356776631,-0.1569842304743771,-0.26054221142638223
1781555680958786560,1.809239387512207,-0.00964161567389965,-0.03993499279022217,0.01557837426662445,-0.11287639290094376,0.6934320330619812,-0.7116256356239319,-0.010826610028743744,-0.0267450213432312,0.00969076156616211,-0.9206251662761238,0.3789678001276672,0.02388730758209506,0.09089674721999663,-0.7662414584672395,-0.15730714409072521,-0.2603396500896981
1781555680968821504,1.8192744255065918,-0.01890755072236061,-0.000978272408246994,0.011351937428116798,-0.11293494701385498,0.6935569047927856,-0.7114946246147156,-0.024027936160564423,-0.008147358894348145,0.0018388032913208008,-0.9205999201179205,0.37904995610458186,0.023954690332187903,0.09079222323095235,-0.7664148035621253,-0.1574159083181313,-0.2601800705029702
1781555680978856448,1.8293094635009766,-0.010937243700027466,0.035481736063957214,0.013489923439919949,-0.11270853132009506,0.6936956644058228,-0.711395263671875,-0.02521565556526184,0.005584120750427246,-0.00341796875,-0.9205746089125761,0.3791231969165949,0.023832118923763915,0.09077529584645244,-0.7666073844097021,-0.15712706136866797,-0.2600495776195884
1781555680988891392,1.8393442630767822,0.0030068019405007362,0.04840658977627754,0.00808690208941698,-0.11232145130634308,0.6937416791915894,-0.7114115953445435,-0.013883985579013824,0.010314106941223145,-0.007933497428894043,-0.9205757328065093,0.37912646805822336,0.023607676984528845,0.09080893729514831,-0.7666712987172163,-0.15659269558835703,-0.2599109535089112
1781555680998926336,1.849379301071167,0.008878539316356182,0.03689081221818924,0.007282360922545195,-0.11194588989019394,0.6936970353126526,-0.7115142941474915,-0.003532625734806061,0.007657945156097412,-0.0009338259696960449,-0.9205993417526739,0.3790721898288462,0.02339064710478546,0.09085216420400731,-0.766609318236431,-0.15605541089631073,-0.25977552223758016
1781555681008962304,1.8594152927398682,0.01253452617675066,0.017175164073705673,0.010158841498196125,-0.11168943345546722,0.6936384439468384,-0.7116116881370544,0.002634868025779724,-0.002461075782775879,0.0031918883323669434,-0.9206247108596607,0.37901649200134235,0.02325184544445281,0.09086277857326573,-0.7665279725634836,-0.15568269318445144,-0.2596345273734091
1781555681018997504,1.869450330734253,0.018872052431106567,0.006200278177857399,0.022954531013965607,-0.11149603873491287,0.6935085654258728,-0.711768627166748,0.00022895634174346924,-0.008159995079040527,0.002524852752685547,-0.9206722869747439,0.37891761850302397,0.02317607503280804,0.09081248173042143,-0.7663476592988728,-0.1553837362991751,-0.2593787638354485
1781555681029032448,1.8794853687286377,0.06681294739246368,0.012910645455121994,0.053929757326841354,-0.11117088049650192,0.6932314038276672,-0.7120894193649292,-0.0054978132247924805,-0.0038393139839172363,0.0020674467086791992,-0.9207730394663275,0.3787121333725545,0.023074239110289677,0.09067389645191147,-0.7659630185555556,-0.15486913447514822,-0.2588161194951383
1781555681039067392,1.8895204067230225,0.018236355856060982,0.03587321937084198,0.013407898135483265,-0.11075816303491592,0.6929107308387756,-0.7124657034873962,-0.012624397873878479,0.00556027889251709,0.0031151175498962402,-0.9208883286107233,0.37847268506260734,0.022925647699803216,0.09054053772115292,-0.7655182414732122,-0.1542230763708306,-0.25820336132329996
1781555681049102592,1.8995554447174072,-0.032359179109334946,0.043920356780290604,-0.007698452565819025,-0.11048968881368637,0.6930423974990845,-0.7123793363571167,-0.011565357446670532,-0.018451273441314697,0.0133894681930542,-0.9208553350126221,0.37854127600312265,0.022733978091821164,0.09063777246595979,-0.7657008271527678,-0.15387347398463352,-0.25829438761963464
1781555681059137536,1.909590482711792,0.008640985004603863,0.01731937564909458,0.028067532926797867,-0.11019742488861084,0.693141758441925,-0.7123278975486755,0.005796797573566437,-0.02402859926223755,-0.0024394989013671875,-0.9208406076030409,0.37858515727368486,0.022568117818866463,0.09064558077352701,-0.7658386915499502,-0.15348372655468112,-0.2581688726695447
1781555681069172480,1.9196252822875977,0.06355989724397659,0.017192741855978966,0.015613794326782227,-0.10993345826864243,0.6929237246513367,-0.7125808000564575,0.0016723573207855225,0.00104600191116333,-0.01341712474822998,-0.9209176374540132,0.37842373165036947,0.022473719480550654,0.0905606150499684,-0.7655362081685639,-0.15306830695914062,-0.25777472262478546
1781555681079208448,1.9296612739562988,0.26230815052986145,0.023550773039460182,0.004957953933626413,-0.10970176756381989,0.6918686628341675,-0.7136408686637878,-0.007348395884037018,0.01793968677520752,-0.03483319282531738,-0.9212065358974919,0.3777262949730133,0.022414372981883826,0.09054867850455108,-0.7640739695771029,-0.15252730848468765,-0.25733939340259276
1781555681089243392,1.9396963119506836,0.47902873158454895,-0.008671611547470093,0.015084357932209969,-0.10961472988128662,0.6891359686851501,-0.716293454170227,-0.005207650363445282,0.03031599521636963,-0.03640735149383545,-0.9219328568307372,0.37595839905112516,0.022551077082924437,0.09048018556251247,-0.7602959780701204,-0.1518524123311529,-0.2564331250310586
1781555681099278336,1.9497313499450684,0.6334063410758972,0.001401261892169714,0.07183525711297989,-0.1092187687754631,0.6849437952041626,-0.7203632593154907,0.0026666373014450073,0.0815204381942749,0.021220803260803223,-0.9230670623540157,0.37323294675577867,0.02270554344124057,0.09015989544069988,-0.7545265896971699,-0.15047024349985874,-0.2544485902585159
1781555681109313536,1.9597663879394531,0.645001232624054,0.06314851343631744,-0.012587483040988445,-0.10888172686100006,0.6803992986679077,-0.7247079014778137,-0.01706431806087494,0.08873522281646729,0.03093653917312622,-0.9242570407982059,0.3703032527999063,0.022837416164904728,0.09001601071619161,-0.7483073774048373,-0.14912683421942705,-0.25281978904620495
1781555681119348480,1.969801425933838,0.7442934513092041,0.08776411414146423,-0.002114869188517332,-0.10829544812440872,0.6753665208816528,-0.7294875979423523,-0.014614097774028778,0.016482234001159668,0.00872349739074707,-0.925528617034971,0.36706940843688174,0.02272091576753392,0.09022507778692389,-0.741461538236442,-0.14737774926567387,-0.2517302093236943
1781555681129383680,1.9798364639282227,0.6064961552619934,0.03916341811418533,0.018493469804525375,-0.10782776772975922,0.6703540682792664,-0.7341652512550354,-0.0033477619290351868,0.0002697110176086426,0.0038490891456604004,-0.926797886250571,0.36386621972091077,0.02277606660793956,0.0901569670893051,-0.734685806923026,-0.14582865309829518,-0.2501467049285374
1781555681139419648,1.9898724555969238,0.46409666538238525,0.07257810235023499,-0.014582457020878792,-0.10740137100219727,0.6664454340934753,-0.7377772927284241,-0.008306026458740234,-0.020983397960662842,0.013351082801818848,-0.927768557624368,0.36137750783326816,0.022751723193006657,0.0901892144692888,-0.7294309134563604,-0.14455879429423588,-0.24908701410858233
1781555681149454336,1.9999072551727295,0.3509290814399719,0.0462021566927433,0.018497996032238007,-0.10693926364183426,0.6634185910224915,-0.7405672073364258,-0.0001316666603088379,-0.048107922077178955,0.008786201477050781,-0.9285128480823392,0.35944915036650993,0.02264323028133367,0.09026339639018738,-0.7253783620346318,-0.14341052752843284,-0.24831756439689232
1781555681159489280,2.0099422931671143,0.23219017684459686,0.0171798262745142,0.04247630015015602,-0.10650139302015305,0.6612701416015625,-0.7425491213798523,0.010538861155509949,-0.0541229248046875,0.021907031536102295,-0.9290596662775732,0.3580719676067,0.02258114482832173,0.09012563994767474,-0.7225107197547762,-0.1424552063159478,-0.24731253157930252
1781555681169522176,2.019975185394287,0.10834867507219315,0.017239347100257874,0.038533490151166916,-0.10608206689357758,0.6600242257118225,-0.7437167763710022,0.004946812987327576,-0.059056878089904785,0.025516092777252197,-0.9293910507082187,0.3572612800542011,0.022494449553962063,0.08994787418536895,-0.7208509963406469,-0.14168201793521967,-0.24643716390790815
1781555681179557376,2.030010223388672,-0.07822626829147339,-0.00072820158675313,0.00847332738339901,-0.10589223355054855,0.6599805355072021,-0.743782639503479,0.00027089565992355347,-0.05152106285095215,0.023369431495666504,-0.9294197293892126,0.35721867145237546,0.022439025996677322,0.08983528586606279,-0.7207928439370785,-0.14141948768423482,-0.24608716821613608
1781555681189592320,2.0400452613830566,-0.052866850048303604,-0.0026708440855145454,0.035647157579660416,-0.10575064271688461,0.660476803779602,-0.7433620691299438,0.003455720841884613,-0.02082836627960205,0.012130379676818848,-0.9293149941094108,0.3575171853578839,0.022370205368675473,0.08974772405294648,-0.7214536162518567,-0.1413117444909084,-0.2459346272737863
1781555681199628288,2.050081253051758,-0.08911886066198349,-0.0069739799946546555,0.014636147767305374,-0.10560987889766693,0.6610429883003235,-0.7428786754608154,-0.0010795742273330688,0.017271220684051514,0.00726771354675293,-0.9291981582696432,0.35785836973564566,0.02231710402016677,0.08961066922861954,-0.7222078994738639,-0.14121675473053957,-0.24569132895660384
1781555681209663488,2.0601162910461426,-0.08055546879768372,-0.006068238988518715,-0.008456387557089329,-0.10565263777971268,0.6616789698600769,-0.7423061728477478,-0.005202457308769226,0.008029282093048096,0.0014461874961853027,-0.9290439313823445,0.3582588886499662,0.022304160738091987,0.08961333741458409,-0.7230558459558943,-0.14138068088123026,-0.24585950888825556
1781555681219698432,2.0701513290405273,-0.09780316054821014,-0.012509360909461975,0.004966476000845432,-0.10573740303516388,0.6623261570930481,-0.7417166829109192,-0.0016997307538986206,-0.007403671741485596,0.0026724934577941895,-0.9288847317264394,0.35866952518830686,0.02231212273685382,0.08961818840481908,-0.7239192934254627,-0.1416035648539125,-0.2460571859354587
1781555681229733376,2.080186367034912,-0.12596316635608673,-0.011286171153187752,0.006087400484830141,-0.10577894747257233,0.6631647944450378,-0.740960955619812,-0.00545763224363327,-0.013323545455932617,0.008066058158874512,-0.9286858555437156,0.35919621106022476,0.02230674205703644,0.08957087523094068,-0.7250392387490978,-0.14180100657898215,-0.24616314018846963
1781555681239768320,2.0902211666107178,-0.14686179161071777,0.0023689218796789646,0.0024647025857120752,-0.1057877168059349,0.664185643196106,-0.740044891834259,-0.011582881212234497,-0.015061497688293457,0.006219208240509033,-0.9284407966068976,0.3598360423008934,0.022261469056721564,0.08955579698923934,-0.7264039390039608,-0.1419858034291715,-0.24636279575548956
1781555681249803264,2.1002562046051025,-0.18262645602226257,0.002760140225291252,0.008032839745283127,-0.10573142766952515,0.66541987657547,-0.7389432787895203,-0.009075701236724854,-0.016036391258239746,0.003774881362915039,-0.9281438041231257,0.3606066558083029,0.02216316990839329,0.08955771125116112,-0.7280561933141814,-0.1421199944084463,-0.2466137621741103
1781555681259839232,2.1102921962738037,-0.18700681626796722,0.0037881203461438417,0.017636997625231743,-0.10563955456018448,0.6668269634246826,-0.7376869916915894,-0.007565401494503021,-0.017122983932495117,0.00032126903533935547,-0.9278078751996547,0.3614836639397988,0.02204694379433178,0.08953225596678901,-0.7299427263990151,-0.1422367254552666,-0.246827158588053
1781555681269874432,2.1203272342681885,-0.1567935198545456,0.0032276581041514874,0.028763417154550552,-0.10549072176218033,0.6681325435638428,-0.7365260124206543,-0.006737671792507172,-0.015697240829467773,-0.003937244415283203,-0.9275027736615372,0.3622929382721377,0.021927422223866472,0.08945141484519545,-0.7316960554806384,-0.14225990558013743,-0.24686933796396512
1781555681279909376,2.1303622722625732,-0.047030799090862274,0.014054473489522934,0.044793251901865005,-0.10518408566713333,0.6689926385879517,-0.7357887625694275,-0.004877559840679169,-0.01359713077545166,-0.01071697473526001,-0.9273178802453522,0.36281064943471675,0.0217726222579795,0.0893080185669544,-0.7328526832377499,-0.141992154823502,-0.2465922872405532
1781555681289944320,2.140397310256958,-0.0069195982068777084,0.01420627348124981,0.02754848264157772,-0.10485466569662094,0.669219434261322,-0.7356295585632324,-0.007358476519584656,0.007858812808990479,-0.010754108428955078,-0.9272889230086074,0.3629282071784494,0.02164130758141959,0.08916250324961573,-0.7331578114412713,-0.14158361589906,-0.24615461758916887
1781555681299979520,2.1504323482513428,0.030226705595850945,0.020309973508119583,0.019043944776058197,-0.1045585572719574,0.6691327095031738,-0.7357505559921265,-0.0033821240067481995,0.025355756282806396,0.005983710289001465,-0.9273294837486044,0.36285203575336156,0.021520391931384848,0.0890797921701055,-0.7330411272045047,-0.14116617125803047,-0.24579911284361683
1781555681310014208,2.1604671478271484,0.0572066567838192,0.014862875454127789,0.012040098197758198,-0.10433878004550934,0.6688413023948669,-0.7360466718673706,-0.0012825503945350647,0.03034687042236328,0.006859719753265381,-0.9274139234876133,0.3626528394922179,0.02143752160951724,0.08903262044970196,-0.7326490647237778,-0.14081742380117573,-0.24551486684519636
1781555681320050176,2.1705031394958496,0.07423651218414307,0.02350403368473053,0.010948735289275646,-0.10414185374975204,0.6684090495109558,-0.7364671230316162,-0.0020745769143104553,0.02449256181716919,0.003083944320678711,-0.9275291051797867,0.36236725277493387,0.021363614474999387,0.08901342983023583,-0.7320677601957498,-0.1404759512641433,-0.2452718091263042
1781555681330085376,2.1805381774902344,0.0690460056066513,0.003018733114004135,0.024927932769060135,-0.10389544069766998,0.6677436232566833,-0.7371052503585815,-0.006395086646080017,0.03022390604019165,-0.004014134407043457,-0.9277135356716091,0.3619293416365817,0.021319477435119548,0.08888296013715223,-0.731173478599374,-0.14002815787641598,-0.24471104162330443
1781555681340120320,2.190573215484619,0.03422117978334427,0.05214446783065796,-0.025064660236239433,-0.10372354090213776,0.6674982905387878,-0.737351655960083,-0.012563690543174744,0.015027284622192383,0.013810396194458008,-0.9277703769231593,0.36176601053721125,0.02120210095507687,0.08898318154316685,-0.7308439872476136,-0.1397533831881501,-0.24478146531964412
1781555681350155264,2.200608253479004,0.04655241221189499,0.008809643797576427,0.014226021245121956,-0.10352492332458496,0.6671438813209534,-0.7377002239227295,0.003076314926147461,-0.009261250495910645,0.002897977828979492,-0.9278573882092601,0.3615317454206692,0.021087532734604595,0.08905507995297265,-0.7303681131270867,-0.13942416999999063,-0.24475265424012776
1781555681360190464,2.2106432914733887,0.025549395009875298,0.003566944506019354,0.008052014745771885,-0.10339991003274918,0.6669146418571472,-0.7379249930381775,0.003210708498954773,-0.012129545211791992,0.01055377721786499,-0.927923710525796,0.3613780797117255,0.021056895644169196,0.08899478276865212,-0.7300604365426349,-0.13921611078081225,-0.2445058304964729
1781555681370225408,2.2206783294677734,0.014296740293502808,0.008904319256544113,0.007235489320009947,-0.10332710295915604,0.6667673587799072,-0.7380682826042175,-0.005132362246513367,-0.011356592178344727,0.004746198654174805,-0.9279637270962886,0.36128038571440246,0.021031632158686468,0.08898064057984872,-0.7298627725001651,-0.13909267371293244,-0.24440431177089447
1781555681380261376,2.2307143211364746,-0.007359819021075964,0.012485205195844173,0.007682900410145521,-0.10320165753364563,0.6667400002479553,-0.7381105422973633,-0.00443384051322937,-0.009818613529205322,-0.00047588348388671875,-0.927976370211801,0.3612546387739144,0.020971773771057765,0.08896638357572335,-0.7298260087492802,-0.1389181251235337,-0.24430135121428068
1781555681390296576,2.2407493591308594,-0.031756773591041565,0.006496155634522438,0.0010851852130144835,-0.10309888422489166,0.6668888330459595,-0.7379904985427856,-0.0015764087438583374,-0.017703652381896973,0.0013114213943481445,-0.9279439885910599,0.3613413983815714,0.02090825745630778,0.08896780106484699,-0.7300257641058745,-0.13880384052347702,-0.24428310472194023
1781555681400331264,2.250784158706665,-0.03196050599217415,-0.013398190028965473,0.005297240801155567,-0.1031111553311348,0.6671419143676758,-0.7377600073814392,0.001197710633277893,-0.018658578395843506,0.0035223960876464844,-0.9278841178034771,0.36150071184801313,0.02090976679218614,0.0889451583654215,-0.7303654214173342,-0.1388629600635253,-0.24429675707719423
1781555681410366208,2.26081919670105,-0.014069387689232826,-0.015386505983769894,0.006659447681158781,-0.10318851470947266,0.6673007011413574,-0.7376055121421814,-0.004202842712402344,-0.0034366846084594727,0.0010179877281188965,-0.9278481386662021,0.36160432978410845,0.020965753482940077,0.08888506155525629,-0.730578657476283,-0.1389945496366237,-0.2442432489953524
1781555681420401408,2.2708542346954346,0.01037177350372076,0.01728861592710018,0.005159022286534309,-0.1031474843621254,0.6673309206962585,-0.7375839352607727,-0.014726661145687103,0.01743769645690918,-1.0728836059570312e-05,-0.9278446108034045,0.3616200756945747,0.020951416342533932,0.08886144345128598,-0.7306192153923255,-0.13894399535160612,-0.2441773498959522
1781555681430436352,2.2808892726898193,0.04138055443763733,0.0443083830177784,-0.001025636331178248,-0.10288950800895691,0.6671181917190552,-0.737812340259552,-0.016190089285373688,0.02570706605911255,-0.005336463451385498,-0.9279020800005945,0.3614703593582408,0.020809028882406374,0.08890358843004799,-0.7303336186096201,-0.13855857078991826,-0.24408487340630813
1781555681440472320,2.2909252643585205,0.04986272379755974,0.05435862019658089,0.0048591503873467445,-0.10247839987277985,0.6667801737785339,-0.7381750345230103,-0.008468255400657654,0.01762223243713379,0.0003820657730102539,-0.9279924000154824,0.36123265415716616,0.020578101829151207,0.08898109479630388,-0.7298799759239238,-0.13794500571181628,-0.24396050032897257
1781555681450507520,2.3009603023529053,0.05120522156357765,0.0327562540769577,0.0048620798625051975,-0.10213278979063034,0.6663959622383118,-0.7385697960853577,0.0010585859417915344,0.001526951789855957,0.002760469913482666,-0.928092972222661,0.3609699473625079,0.020391450947366604,0.0890413011062267,-0.7293645509283018,-0.13741307802674635,-0.24382380722776884
1781555681460542464,2.31099534034729,0.03228292986750603,0.016414565965533257,0.004836780019104481,-0.10192517936229706,0.6660830974578857,-0.7388806343078613,0.005352303385734558,-0.010901212692260742,0.010456562042236328,-0.9281755419267721,0.3607601223607972,0.020293175539306693,0.08905352000589964,-0.7289449754571654,-0.13708025858790288,-0.24367244023333187
1781555681470577152,2.3210301399230957,0.00829504057765007,0.004107699729502201,0.0035792356356978416,-0.10183774679899216,0.6659207940101624,-0.7390390038490295,0.005142807960510254,-0.016415178775787354,0.008936464786529541,-0.9282180756450599,0.36065251612785576,0.02025491393854242,0.08905495955041655,-0.7287273753311294,-0.13693515448713836,-0.24359414375525654
1781555681480612352,2.3310651779174805,-0.015423337928950787,0.003508221823722124,0.0021094370167702436,-0.10178917646408081,0.6659285426139832,-0.7390387058258057,0.00013513118028640747,-0.023029983043670654,0.003870248794555664,-0.9282183050377463,0.36065413660905116,0.02022973408043311,0.08905202274962835,-0.7287378005167902,-0.13687071909246973,-0.2435639803333248
1781555681490647296,2.3411002159118652,-0.03556322678923607,-0.004237315617501736,0.004271390847861767,-0.10178759694099426,0.666126012802124,-0.7388609051704407,-0.0044440776109695435,-0.024295568466186523,0.004684329032897949,-0.9281712347270282,0.36077780868340137,0.020221656534728932,0.08904272659926944,-0.729002491333562,-0.13690114466528705,-0.24358617175385613
1781555681500683264,2.3511362075805664,-0.05814070999622345,-0.004749441519379616,2.258390304632485e-05,-0.10182992368936539,0.6665145754814148,-0.7385045886039734,-0.003196313977241516,-0.018260180950164795,0.007211863994598389,-0.9280766170918604,0.36102427738925014,0.020228253852061288,0.0890288996113337,-0.7295236314897864,-0.1370226246853753,-0.24366352105054476
1781555681510718464,2.361171245574951,-0.053782179951667786,-0.0072695910930633545,-0.0035740151070058346,-0.10191752761602402,0.6669481992721558,-0.7381008863449097,-0.0024525821208953857,-0.006578326225280762,0.004443049430847168,-0.9279670830823963,0.36130260623812915,0.020247806266960315,0.0890374604979401,-0.7301054698681188,-0.13721309409670962,-0.24382306127668002
1781555681520753408,2.371206283569336,-0.061112530529499054,-0.003891371190547943,-0.0060326457023620605,-0.10200685262680054,0.6674022078514099,-0.737678050994873,-0.00245482474565506,0.003038465976715088,0.003623485565185547,-0.9278511769990178,0.3615942473364321,0.020262913778536243,0.08905688366333847,-0.730714903139835,-0.13740958294869327,-0.2440116943516805
1781555681530788352,2.3812413215637207,-0.057630181312561035,-0.002367510460317135,-0.009722987189888954,-0.10208947211503983,0.667831301689148,-0.737278163433075,-0.0042185112833976746,0.004821956157684326,0.0013468265533447266,-0.9277400958801642,0.36187021256831675,0.02026953452381003,0.08909237617551957,-0.7312912556166257,-0.13759312641374133,-0.24422629979418534
1781555681540823552,2.3912763595581055,-0.04773387312889099,0.006289361044764519,-0.007867297157645226,-0.10211830586194992,0.668214738368988,-0.7369266748428345,-0.007607646286487579,0.002576887607574463,-0.0005611181259155273,-0.927641371370806,0.3621142075587409,0.0202475624584721,0.0891339674945354,-0.7318065609607528,-0.1376963196780173,-0.24441579162690397
1781555681550858240,2.401311159133911,-0.051252707839012146,0.011089975014328957,-0.0020781175699084997,-0.10208063572645187,0.6685483455657959,-0.73662930727005,-0.010300353169441223,-0.002288520336151123,-0.003269374370574951,-0.927557034063257,0.36232254610378767,0.02019171518659209,0.0891784123834359,-0.732255021428996,-0.1377010239050738,-0.24456533795083019
1781555681560894208,2.4113471508026123,-0.04994003847241402,0.017392879351973534,7.93652725405991e-06,-0.10198135673999786,0.6688929796218872,-0.7363300919532776,-0.008385471999645233,-0.001626133918762207,0.002061903476715088,-0.9274723910267868,0.362533845886651,0.020103513686358963,0.08921987085853308,-0.73271860088895,-0.13762398421595923,-0.24467827232336933
1781555681570929408,2.421382188796997,-0.03738616406917572,0.01904723420739174,0.0026452650781720877,-0.10184000432491302,0.6691760420799255,-0.7360923886299133,-0.005764976143836975,0.003080427646636963,0.0006340742111206055,-0.927405657122962,0.362703339672166,0.020001985404231485,0.08924662066749858,-0.7330994230761719,-0.13747945108102078,-0.24472349981019556
1781555681580964352,2.431417226791382,-0.03105795569717884,0.01484609767794609,-0.0025297896936535835,-0.10173216462135315,0.6693980097770691,-0.7359055280685425,-0.0005780160427093506,0.006886780261993408,0.0030106306076049805,-0.9273511273441092,0.36283691451870015,0.019915231534973578,0.08928989330302409,-0.7333981384614117,-0.1373701393047436,-0.24480861754084127
1781555681590999296,2.4414522647857666,-0.024103645235300064,0.0047784168273210526,-0.00195934041403234,-0.10168252140283585,0.6695904731750488,-0.7357372641563416,0.0015848726034164429,0.0024219155311584473,0.004841327667236328,-0.9273025590866188,0.36295557051567645,0.019864846418783288,0.08932370894618887,-0.7336572460442297,-0.1373349483810389,-0.24489775378976703
1781555681601034496,2.4514873027801514,-0.01762976683676243,-0.004799376241862774,-0.0024967663921415806,-0.10171924531459808,0.6697257161140442,-0.7356091141700745,-0.0004078224301338196,-0.000993967056274414,0.002454817295074463,-0.9272671668801409,0.3630433708588707,0.01987360951157506,0.08933223914356958,-0.7338393359094653,-0.13740756692308106,-0.24496564881146682
1781555681611069440,2.461522340774536,-0.012135399505496025,-0.010048866271972656,-0.0044435374438762665,-0.10178932547569275,0.66983562707901,-0.7354992628097534,-0.000658184289932251,-0.002416253089904785,0.004374384880065918,-0.9272367443867262,0.3631174643208154,0.01990177146756721,0.08934026024692723,-0.7339874240533191,-0.13752132359597954,-0.24504463614588234
1781555681621105408,2.4715583324432373,-0.008440263569355011,-0.008801441639661789,-0.0002365416439715773,-0.10189011693000793,0.6699103713035583,-0.7354171872138977,-0.0038990676403045654,-0.00519174337387085,0.0040787458419799805,-0.9272150107214364,0.3631711314632051,0.01995305270004009,0.08933608500883304,-0.7340880898065669,-0.13767094418851633,-0.2451058916085332
1781555681631140352,2.481593132019043,-0.005414646118879318,-0.0032022777013480663,-0.00020591533393599093,-0.10196389257907867,0.6699330806732178,-0.735386312007904,-0.004740826785564423,-0.0026662349700927734,0.0028271079063415527,-0.9272068492928177,0.36319027351854954,0.01999189582953663,0.08933422564417216,-0.7341186696657055,-0.13777508881157158,-0.2451462186975382
1781555681641175296,2.4916281700134277,-0.010682911612093449,0.005779765546321869,-0.0024693359155207872,-0.10198457539081573,0.6699864864349365,-0.7353347539901733,-0.005956098437309265,0.002453029155731201,0.00579679012298584,-0.9271913844706412,0.3632256475004599,0.01999357685275126,0.08935056162838581,-0.734190612243901,-0.13781222254057657,-0.2452043477875096
1781555681651210240,2.5016632080078125,-0.01135695818811655,0.011531393975019455,-0.0006642453372478485,-0.10193866491317749,0.6700716614723206,-0.7352635860443115,-0.0037131905555725098,-0.0012179017066955566,0.0034520626068115234,-0.9271693016313428,0.36327691915966853,0.019952373569470733,0.0893811347520088,-0.7343053528781489,-0.13776413501926907,-0.24526477459038182
1781555681661245440,2.5116982460021973,-0.013378296978771687,0.011508757248520851,-0.004242734983563423,-0.10187608003616333,0.6701919436454773,-0.7351626753807068,-0.004294566810131073,-0.001490771770477295,0.002649247646331787,-0.9271384790484726,0.36334935942447666,0.01989749955629094,0.08941890562852763,-0.7344673436300848,-0.13769928021424307,-0.24533963287357413
1781555681671280384,2.521733283996582,-0.016024678945541382,0.01627834513783455,0.0021619012113660574,-0.10176689177751541,0.6703274846076965,-0.735054075717926,-0.005807571113109589,-0.004525482654571533,0.0020219087600708008,-0.9271066480162345,0.3634281800631893,0.01982193429993657,0.08944380571389617,-0.7346499883287952,-0.13757361746925648,-0.2453652622924082
1781555681681316352,2.531769275665283,-0.011819548904895782,0.02019931748509407,0.005030658096075058,-0.10161130130290985,0.6704349517822266,-0.7349776029586792,-0.007199123501777649,-0.0043277740478515625,-0.0011979341506958008,-0.9270843171992215,0.3634860106666793,0.01972581995337809,0.08946190944308152,-0.7347948311790955,-0.13738003273625418,-0.24534521780083532
1781555681691351296,2.541804313659668,-0.00027953882818110287,0.028879091143608093,0.011475774459540844,-0.10139340907335281,0.6704967617988586,-0.734951376914978,-0.009415917098522186,0.0020954012870788574,-0.0031772851943969727,-0.9270767831788673,0.363510668765968,0.01960401952651655,0.08946717156204331,-0.7348781661236756,-0.1370939538928785,-0.24525405692575664
1781555681701386496,2.5518393516540527,0.014453600160777569,0.033400073647499084,0.018627425655722618,-0.10111324489116669,0.670445442199707,-0.7350367903709412,-0.011710241436958313,0.006480276584625244,-0.002862989902496338,-0.9271001801624973,0.3634597092655435,0.019458755153944636,0.0894635789028295,-0.7348089601010703,-0.13670416139630748,-0.2450854805909944
1781555681711421184,2.5618741512298584,0.05668787285685539,0.03854396939277649,0.03165321424603462,-0.10072299093008041,0.6702340841293335,-0.7352830767631531,-0.00813320279121399,0.007164657115936279,-0.0012738704681396484,-0.9271708435686212,0.363299812630616,0.019279505590059587,0.08941953350462578,-0.7345241218821711,-0.13613799834628665,-0.2447357236095095
1781555681721456384,2.571909189224243,0.1389790177345276,0.012445257976651192,0.04343903437256813,-0.10025575757026672,0.6694413423538208,-0.7360686659812927,-0.00792904943227768,0.0229262113571167,-0.005661070346832275,-0.9273989835739547,0.36276616939821754,0.019140777048698127,0.08924961800252851,-0.7334564972351658,-0.135371336354184,-0.24394651628233605
1781555681731492352,2.5819451808929443,0.03904256597161293,0.0666392520070076,-0.02407449670135975,-0.09991151094436646,0.668840229511261,-0.7366616725921631,-0.010333240032196045,0.020109355449676514,0.016004323959350586,-0.927555167151745,0.3623659582954836,0.01897588831752292,0.08928700835152241,-0.7326476192294017,-0.13480485511172902,-0.24371322404815154
1781555681741527296,2.591980218887329,0.05113811045885086,0.031164616346359253,-0.0003502586332615465,-0.0996609628200531,0.6685135364532471,-0.7369920611381531,0.0047360435128211975,-0.01966404914855957,0.009285211563110352,-0.9276255299924829,0.36214789707999917,0.018784450826630463,0.08948152548262746,-0.7322082610370876,-0.13441130576947213,-0.24392883632009557
1781555681751562240,2.602015256881714,0.025230614468455315,-0.010288150981068611,0.01997365429997444,-0.09954356402158737,0.6682113409042358,-0.7372819781303406,0.01734447479248047,-0.02725064754486084,0.009041011333465576,-0.9277092276675846,0.3619489366543897,0.018761147166495674,0.0894239239219923,-0.7318019870213657,-0.13420271539899836,-0.24367699046490945
1781555681761597440,2.6120502948760986,0.00017026904970407486,-0.01202932558953762,-0.0041692317463457584,-0.09960275143384933,0.6681323647499084,-0.7373455762863159,2.390146255493164e-05,-0.017604410648345947,0.014002680778503418,-0.9277315036975797,0.3619020646917397,0.018817868963387115,0.08937071260459244,-0.7316958246475599,-0.13427010743056136,-0.24357649142604498
1781555681771632384,2.6220853328704834,-0.005562451668083668,-0.008635925129055977,0.0029366149101406336,-0.09972696006298065,0.6681598424911499,-0.7373037934303284,-0.006230071187019348,-0.009972035884857178,0.010100483894348145,-0.9277211368064312,0.36192733203966315,0.018886431460585253,0.0893608608312264,-0.7317327797094304,-0.13444305958559843,-0.24362692243780668
1781555681781667328,2.632120132446289,-0.024889277294278145,0.0008329437114298344,0.00395980104804039,-0.09976264834403992,0.668292224407196,-0.7371789813041687,-0.007384568452835083,-0.00813603401184082,0.008419275283813477,-0.9276900188970042,0.3620124001336874,0.018908216684084284,0.08933495128529231,-0.7319107401079271,-0.13451309166639291,-0.24361865978444794
1781555681791703552,2.6421563625335693,-0.03423537686467171,0.004750720225274563,0.00091394386254251,-0.09974335134029388,0.6685255169868469,-0.7369701266288757,-0.009311206638813019,-0.008720219135284424,0.0037853121757507324,-0.9276333567252024,0.362157921096766,0.018883114147578026,0.08933966727384837,-0.73222435158692,-0.13452504073465094,-0.24366922879765238
1781555681801738240,2.652191162109375,-0.04141978546977043,0.00815956573933363,-0.0022075471933931112,-0.09971963614225388,0.6688269376754761,-0.7366998195648193,-0.007290244102478027,-0.007312595844268799,0.00011229515075683594,-0.9275580044378153,0.36234653109713993,0.018843564498894412,0.08936560559348679,-0.7326297073036969,-0.13454219352073576,-0.24377805421580445
1781555681811773184,2.6622262001037598,-0.032528024166822433,0.018588239327073097,-0.0017593371449038386,-0.09967771917581558,0.6691579818725586,-0.7364047765731812,-0.007942505180835724,-0.0005483627319335938,-0.0017086267471313477,-0.9274744044900626,0.3625529949409211,0.018786249651615388,0.08940788193092526,-0.7330751059432999,-0.1345395573827054,-0.2439189739704532
1781555681821808384,2.6722612380981445,-0.009722309187054634,0.036691341549158096,-0.001710068783722818,-0.09947812557220459,0.6693013310432434,-0.7363014817237854,-0.00840151309967041,0.006617248058319092,-0.0047110915184021,-0.927440713526993,0.3626313524652739,0.018648242812445932,0.0894680547522571,-0.7332680228043399,-0.13429199354115276,-0.24397393767701572
1781555681831843328,2.6822962760925293,0.005950926337391138,0.04568616673350334,-0.006459017749875784,-0.09913868457078934,0.669253945350647,-0.7363903522491455,-0.003675021231174469,0.004452109336853027,-0.007094144821166992,-0.9274558834462797,0.3625810246352532,0.01843394962399005,0.08955975195950512,-0.7332042454032986,-0.13382326057176877,-0.24398116259918073
1781555681841879296,2.6923322677612305,-0.0053288922645151615,0.02648131549358368,-0.009541892446577549,-0.09893225133419037,0.669226884841919,-0.7364426255226135,0.004541382193565369,-0.00798732042312622,0.0020219087600708008,-0.9274594064955132,0.36255263994352177,0.018283106131642482,0.08966776672374797,-0.7331678718831874,-0.13353854608718305,-0.2440986399051766
1781555681851914496,2.7023673057556152,-0.000992733403109014,-0.006414050702005625,-0.005350610241293907,-0.09892920404672623,0.669261634349823,-0.7364113926887512,0.00990942120552063,-0.018504798412322998,0.007468581199645996,-0.92744683835427,0.3625751748786209,0.018262930109298584,0.08971023608171914,-0.733214644083823,-0.13354007507803659,-0.24419612929942686
1781555681861949440,2.71240234375,0.08218657970428467,-0.059235986322164536,0.029030798003077507,-0.09908191859722137,0.6687659025192261,-0.7368412017822266,0.0077428147196769714,0.0034295320510864258,0.0006656646728515625,-0.9275766284495103,0.3622703430400894,0.018428057103521005,0.08956715603684084,-0.7325476460789759,-0.13366668645490207,-0.24386131681864975
1781555681871984128,2.7224371433258057,-0.011446173302829266,0.014992838725447655,-0.029094556346535683,-0.09928353875875473,0.6685638427734375,-0.7369974255561829,-0.014028221368789673,0.019073486328125,0.020582079887390137,-0.9276220055032051,0.3621557755458702,0.018560403333847765,0.08953254971266984,-0.7322758519953518,-0.13390739366654655,-0.24384980437190878
1781555681882019328,2.7324721813201904,0.012393911369144917,0.0034839871805161238,-0.0073679545894265175,-0.09938789159059525,0.6685306429862976,-0.7370133996009827,-0.014061197638511658,-0.018353700637817383,0.007856965065002441,-0.9276119619883125,0.3621447537317446,0.018559950105224966,0.08968103060112578,-0.7322312717114504,-0.13404358789716506,-0.2442180377594885
1781555681892054272,2.742507219314575,-0.06290696561336517,0.012819299474358559,0.005648777820169926,-0.09929654002189636,0.6687321066856384,-0.736842930316925,-0.0004501640796661377,-0.029037892818450928,0.0012625455856323242,-0.9275642018109325,0.36226584741760587,0.018492677462440207,0.08969966799443838,-0.7325021574144327,-0.13395246607055541,-0.24425346714635635
1781555681902090240,2.7525432109832764,-0.015814555808901787,0.003943782299757004,0.00453211460262537,-0.09925848245620728,0.6690160036087036,-0.7365903258323669,-0.0023497939109802246,0.006841540336608887,-0.007870733737945557,-0.9274962630145074,0.36244196109183086,0.01845709069304203,0.08969811184846471,-0.7328840738656135,-0.1339471128632476,-0.24429148650088187
1781555681912125440,2.762578248977661,-0.020380545407533646,0.005009845364838839,-0.013396019116044044,-0.09924401342868805,0.6691305637359619,-0.7364882230758667,0.0014656782150268555,0.031324148178100586,0.003913760185241699,-0.927465676907076,0.3625137381087574,0.018430655861276353,0.08972957693787703,-0.7330382087883169,-0.133946161765099,-0.24437651022910067
1781555681922160384,2.772613286972046,0.008761892095208168,-0.0017836126498878002,-0.016365444287657738,-0.09934698790311813,0.6691558957099915,-0.7364513874053955,-0.0021544694900512695,0.00932621955871582,0.004731416702270508,-0.9274483287247126,0.3625379590502087,0.018453813184609976,0.08980724948097075,-0.7330722900570001,-0.1340901170420764,-0.24460416781052136
1781555681932195328,2.7826483249664307,0.00786920078098774,0.0056085241958498955,-0.0034166222903877497,-0.09937476366758347,0.6690596342086792,-0.7365350723266602,-0.004232414066791534,-0.007697939872741699,0.0017633438110351562,-0.9274661860980518,0.3624801762018477,0.01845500019749966,0.0898559266601548,-0.7329427829458625,-0.13411209244278696,-0.24470296614043682
1781555681942230528,2.7926833629608154,0.012042107991874218,0.01303581427782774,-0.0032845293171703815,-0.09929416328668594,0.6689870357513428,-0.7366118431091309,-0.007303737103939056,-0.009135961532592773,-0.0007233619689941406,-0.927484553074888,0.36242966340698674,0.018406714253748607,0.0898798880555079,-0.7328451176531027,-0.13399081207463676,-0.24469610949232337
1781555681952265216,2.802718162536621,-0.001530958223156631,0.024177415296435356,-0.0026459034997969866,-0.09919517487287521,0.6689930558204651,-0.7366197109222412,-0.005251236259937286,-0.002092421054840088,0.006700277328491211,-0.9274816598876212,0.36242795614157347,0.01833337607669711,0.0899315714646099,-0.7328532225302767,-0.13385741041239246,-0.24475635220640093
1781555681962301184,2.8127541542053223,-0.005604795645922422,0.015271537937223911,-0.006806293968111277,-0.09912325441837311,0.6690001487731934,-0.7366229891777039,-0.00011990219354629517,-0.001244962215423584,0.009526431560516357,-0.9274755491028437,0.3624290813381516,0.01826637892776273,0.0900038394372638,-0.7328627318051324,-0.1337609336018017,-0.2448755741990975
1781555681972336384,2.822789192199707,-0.010196086019277573,-0.00040755653753876686,-0.006366339512169361,-0.09913934767246246,0.6690024733543396,-0.73661869764328,0.0018798336386680603,-0.0065421462059021,0.004807233810424805,-0.9274696430351234,0.36243258251441957,0.018255559000116616,0.09005315738392745,-0.732865907572463,-0.1337831610596925,-0.24499097461729125
1781555681982371328,2.832824230194092,-0.019893985241651535,-0.00510830245912075,-0.0025854497216641903,-0.09918883442878723,0.6691089868545532,-0.7365152835845947,-0.0008020102977752686,-0.010280251502990723,0.0045053958892822266,-0.927440460128966,0.36250315017132584,0.018270822201466752,0.09006629634979647,-0.7330092203537524,-0.133867711827518,-0.2450686741130139
1781555681992406272,2.8428592681884766,-0.024295924231410027,-0.00013112090528011322,-0.0023148725740611553,-0.09920836240053177,0.6693105101585388,-0.7363294959068298,-0.006641857326030731,-0.009032189846038818,0.001527249813079834,-0.9273905852191521,0.3626312485471994,0.018271030247466385,0.09006339318328029,-0.7332803959941464,-0.13392714135578912,-0.24511654596530094
1781555682002441472,2.8528943061828613,-0.03499144688248634,0.0060585979372262955,-0.0007047253893688321,-0.09919724613428116,0.6695618033409119,-0.7361025214195251,-0.008255146443843842,-0.006536960601806641,0.005542159080505371,-0.9273275161884369,0.36278910500986217,0.018243247261143854,0.09008307459121284,-0.7336186976882442,-0.1339531144580773,-0.24520773083634967
1781555682012477440,2.8629302978515625,0.05630704015493393,0.0024481508880853653,0.01816057413816452,-0.09914176166057587,0.6696370244026184,-0.7360415458679199,-0.00606759637594223,-0.0011495351791381836,0.003314495086669922,-0.9273118422822526,0.3628326621985233,0.018212653370950915,0.09007477372914872,-0.733719978990206,-0.1338900370974668,-0.24517669513468085
1781555682022512384,2.8729653358459473,0.09470529854297638,-0.026513459160923958,0.026421699672937393,-0.09910596907138824,0.6687784790992737,-0.736826479434967,-0.007186755537986755,0.03367507457733154,-0.011449217796325684,-0.9275442390614828,0.3622856862079493,0.018325898215146588,0.0898597564084891,-0.7325645551427721,-0.13370138709837928,-0.24450768208693383
1781555682032547328,2.883000135421753,0.051098164170980453,0.04403647407889366,-0.03178701177239418,-0.09906969964504242,0.6683132648468018,-0.7372533679008484,-0.02048291265964508,0.020956754684448242,0.011789560317993164,-0.9276526469408721,0.36199200343982585,0.01830566843563455,0.0899289159002156,-0.7319389850074246,-0.13357656524233827,-0.24453696204971825
1781555682042582272,2.8930351734161377,0.013728953897953033,0.03542967140674591,-0.00862043909728527,-0.09891654551029205,0.6679997444152832,-0.7375580072402954,-0.008688434958457947,-0.02101188898086548,-0.00270688533782959,-0.9277176741804547,0.36178825044642754,0.018172892351694264,0.09010507579954662,-0.7315176342781589,-0.13331806687027326,-0.24476805750105565
1781555682052617216,2.9030702114105225,0.04416488856077194,0.022262468934059143,0.023612065240740776,-0.09860614687204361,0.6678510308265686,-0.737734317779541,0.0030708760023117065,-0.017582416534423828,-0.0034918785095214844,-0.927765387925969,0.3616742387099515,0.018016331474490114,0.09010357875412407,-0.7313177494424504,-0.13287324584938065,-0.244568737384257
1781555682062653184,2.9131062030792236,0.051228392869234085,0.02309204265475273,0.006092460360378027,-0.09834607690572739,0.667490541934967,-0.7380951046943665,-0.0012327805161476135,0.010365903377532959,-0.0011473894119262695,-0.9278666592104436,0.36142980723689333,0.017914592804338863,0.09006087859657874,-0.7308335288376756,-0.13246286921093126,-0.24426200833184125
1781555682072688384,2.9231412410736084,0.05409608408808708,0.028288668021559715,-0.008497134782373905,-0.0981978252530098,0.6671009063720703,-0.7384670376777649,-0.0014878511428833008,0.023740768432617188,0.009722530841827393,-0.9279608197740021,0.3611765038466332,0.017833118701347274,0.0901234578505315,-0.7303104262204375,-0.13219966638651134,-0.24423537746701662
1781555682082723328,2.933176279067993,0.05548092722892761,0.024245457723736763,-0.00461424607783556,-0.09808261692523956,0.6666767597198486,-0.7388652563095093,0.0004111155867576599,0.010660827159881592,0.010441243648529053,-0.92806026277541,0.360904136505693,0.017764180279224367,0.09020422456974217,-0.7297412077441642,-0.1319760166535696,-0.2442582854830212
1781555682092758528,2.943211317062378,0.03640923276543617,0.010393559001386166,-0.0018837068928405643,-0.09799975156784058,0.666342556476593,-0.7391777038574219,0.004158198833465576,-0.014593899250030518,0.007747650146484375,-0.928139756353089,0.36068981501453123,0.01772015133133565,0.09025233383013534,-0.7292928845942918,-0.1318107112311718,-0.24424723364934484
1781555682102793472,2.9532463550567627,0.009617566131055355,-0.0006244713440537453,0.0001671935460763052,-0.09797806292772293,0.6662050485610962,-0.7393045425415039,0.003251507878303528,-0.029257476329803467,0.006653785705566406,-0.9281723558476155,0.3606024060474975,0.01770988886124518,0.09026895695546369,-0.7291085214449389,-0.13175953660690204,-0.24424243713270244
1781555682112828160,2.9632811546325684,-0.012925826013088226,-0.004676337353885174,-0.0005872800247743726,-0.09805364906787872,0.6662647128105164,-0.7392407059669495,-0.00045709311962127686,-0.021016240119934082,0.007230818271636963,-0.9281557169018149,0.3606447123504566,0.017749304233289135,0.09026253188115453,-0.7291885031292452,-0.13187125634734106,-0.24428098924380473
1781555682122864128,2.9733171463012695,-0.02342400513589382,-0.004739987663924694,0.00017997671966440976,-0.09812120348215103,0.6663670539855957,-0.7391394972801208,-0.0013203173875808716,-0.007675647735595703,0.005710601806640625,-0.9281283759408098,0.36071338725696206,0.017779306533105377,0.09026314313581486,-0.7293257215563708,-0.13197892647278386,-0.24433959181301812
1781555682132899328,2.9833521842956543,-0.025483161211013794,0.003582257777452469,-0.0014709169045090675,-0.09812866151332855,0.6665220260620117,-0.7389987111091614,-0.005631104111671448,0.0005616545677185059,0.004120171070098877,-0.9280898666330055,0.360811302594179,0.017772298099151967,0.09026890507160608,-0.7295336569900885,-0.13201369531235363,-0.24438893994676558
1781555682142934272,2.993387222290039,-0.011165476404130459,0.0074073560535907745,-0.006280319765210152,-0.098105289041996,0.6666815280914307,-0.7388579249382019,-0.005639217793941498,0.003667593002319336,0.0014007091522216797,-0.9280492884535342,0.3609103921029477,0.017740140369617467,0.09029642900798483,-0.7297475876264634,-0.13200746511576097,-0.244469934994268
1781555682152969472,3.003422260284424,-0.005243671126663685,0.005415577907115221,-0.001424311543814838,-0.09808476269245148,0.666788637638092,-0.7387639880180359,-0.001555129885673523,0.0008596181869506836,0.00023865699768066406,-0.928021407887944,0.3609768037622436,0.017712990839237466,0.09032255279430909,-0.7298913101679734,-0.13199675662851096,-0.24453826153006392
1781555682163005696,3.013458490371704,-0.004361898638308048,0.004355373792350292,-0.004604392219334841,-0.09806858748197556,0.666842520236969,-0.7387174963951111,-0.0005031898617744446,-0.00047600269317626953,0.0020842552185058594,-0.9280062583201257,0.3610100900655336,0.017690819370544775,0.09034956355058682,-0.7299636267893959,-0.1319834556394487,-0.24459944995235838
1781555682173041664,3.0234944820404053,-0.0028838440775871277,-0.001777753233909607,-0.0068086907267570496,-0.09810161590576172,0.666833221912384,-0.738721489906311,7.916241884231567e-05,-0.0025876760482788086,0.0010659098625183105,-0.9280038305399623,0.36100711201622404,0.01769490824321218,0.09038566239721739,-0.7299511515602833,-0.13202668352174393,-0.2446926595947541
1781555682183076608,3.03352952003479,-0.013380960561335087,-0.007248951122164726,-0.009356535971164703,-0.09816920757293701,0.6668445467948914,-0.7387022972106934,-0.00020419806241989136,-0.005879580974578857,0.0036559700965881348,-0.927995343190468,0.36101930808166477,0.017717127371279392,0.09041952169606685,-0.7299663037441324,-0.13211998498049887,-0.24480363526555607
1781555682193111552,3.043564558029175,-0.016275282949209213,-0.011588438414037228,-0.00569548923522234,-0.0982784703373909,0.6669391989707947,-0.7386022806167603,-0.0013156458735466003,-0.009300768375396729,0.005264937877655029,-0.9279667380916699,0.3610862999826242,0.017763473214844838,0.09043633527999713,-0.7300933915530899,-0.13228302732824251,-0.24491764986276662
1781555682203146752,3.0535995960235596,-0.029209990054368973,-0.013311770744621754,-0.003518088720738888,-0.09840762615203857,0.6671045422554016,-0.7384358644485474,-0.004985921084880829,-0.007543385028839111,0.0035878419876098633,-0.927921585308267,0.36119866033076875,0.017821122007439755,0.09044111717813647,-0.7303152829555699,-0.13248435467349415,-0.2450313976589828
1781555682213181440,3.0636343955993652,-0.028780953958630562,-0.00528580229729414,-0.0033716147299855947,-0.09852807223796844,0.667320728302002,-0.7382243871688843,-0.009916134178638458,-0.0034261345863342285,0.0023998618125915527,-0.927864266000974,0.3613424932548086,0.01787187889279998,0.09044426753669035,-0.7306055546964261,-0.13268216215449205,-0.24514803820456138
1781555682223217408,3.0736703872680664,-0.010013925842940807,0.005230221897363663,0.002271090866997838,-0.09854621440172195,0.6674825549125671,-0.7380756735801697,-0.011591717600822449,0.0036142468452453613,-2.2470951080322266e-05,-0.9278234121211348,0.36144549735973264,0.01786934926464465,0.09045211135509854,-0.7308228132626914,-0.13273274218716338,-0.2452092443504771
1781555682233252608,3.083705425262451,0.0031287746969610453,0.012643663212656975,0.00048570759827271104,-0.0984674021601677,0.6675054430961609,-0.7380654811859131,-0.011685796082019806,0.009557545185089111,-0.00039887428283691406,-0.9278198863804465,0.3614548479345549,0.017822866148009677,0.09046023625045162,-0.7308535968776342,-0.13262963582618392,-0.2451900784090128
1781555682243287552,3.093740463256836,0.19016683101654053,-0.008829937316477299,0.04429124295711517,-0.09828339517116547,0.6670203804969788,-0.7385284304618835,-0.00691068172454834,0.01625293493270874,-0.002392590045928955,-0.9279503331534017,0.36113686981205356,0.017775106423559842,0.09040141323499845,-0.7302022969016561,-0.13230266545523914,-0.24486233393640114
1781555682253322496,3.1037755012512207,0.11744177341461182,0.01282782107591629,-0.001790762529708445,-0.0982515886425972,0.6658821105957031,-0.7395590543746948,-0.011825315654277802,0.0309714674949646,0.0069388747215271,-0.9282440766438631,0.3604171698327587,0.017887098469196637,0.09023488309839224,-0.7286755786879038,-0.13207816805924152,-0.24424403971636283
1781555682263357696,3.1138105392456055,0.049485884606838226,0.03272642940282822,-0.027065226808190346,-0.09810128808021545,0.6652422547340393,-0.7401546239852905,-0.015057884156703949,-0.013127386569976807,0.008465170860290527,-0.9283910771252873,0.36000864310990105,0.017789092107929103,0.09037397040658764,-0.7278182731091533,-0.1317735585873527,-0.24432906858523154
1781555682273393664,3.1238465309143066,-0.011149764060974121,0.05239134281873703,0.012333313003182411,-0.09792231023311615,0.6651528477668762,-0.7402586340904236,0.0008306354284286499,-0.03758937120437622,0.0022826790809631348,-0.9284056299658952,0.3599434689883434,0.017645739668189723,0.09051073874769416,-0.7276984689708877,-0.13151763949856607,-0.24451099799942166
1781555682283428608,3.1338815689086914,-0.0020558673422783613,0.0071852486580610275,0.0218232199549675,-0.09755807369947433,0.6652155518531799,-0.7402504086494446,0.015236906707286835,-0.02236276865005493,-0.0012656450271606445,-0.9284081641837814,0.359957905780241,0.017466918530051178,0.090462263101798,-0.7277824337015274,-0.1310354746739426,-0.24422905091670485
1781555682293463808,3.143916606903076,-0.00634009437635541,-0.004894983023405075,-0.012921710498631,-0.09755347669124603,0.6652855277061462,-0.7401881217956543,0.009098276495933533,0.00027233362197875977,0.002944469451904297,-0.9283925553208662,0.36000125738169403,0.017465021530669977,0.09045063892016458,-0.7278761986264121,-0.13104027598165993,-0.24421637752660438
1781555682303498496,3.153951406478882,-0.024186735972762108,-0.009422356262803078,-0.015155036933720112,-0.09778473526239395,0.6653752326965332,-0.7400769591331482,0.008291937410831451,0.004806041717529297,0.008830070495605469,-0.9283560921754699,0.3600739605602039,0.017557075340216326,0.09051792741257153,-0.7279963781271098,-0.13136685545958562,-0.24450146817848095
1781555682313533440,3.1639864444732666,-0.02215873822569847,-0.019845835864543915,-0.008490210399031639,-0.09800891578197479,0.6655611991882324,-0.7398801445960999,0.0019090697169303894,-0.0076937079429626465,0.0046048760414123535,-0.9282997367242208,0.36020593178887933,0.017652557100842944,0.09055262782418554,-0.7282454620045029,-0.13169918838645844,-0.24473314351543787
1781555682323568640,3.1740214824676514,-0.02797801047563553,0.008551184087991714,-0.003140718676149845,-0.09811238199472427,0.6657620668411255,-0.739685595035553,-0.006257742643356323,-0.008855998516082764,0.0039983391761779785,-0.9282455077848418,0.36033913331609657,0.01768943144051412,0.09057038852041065,-0.7285146918622225,-0.1318708921821705,-0.24486833626927137
1781555682333604608,3.1840574741363525,-0.020184537395834923,0.007201626896858215,-0.008333615958690643,-0.09812672436237335,0.665986955165863,-0.7394812703132629,-0.004732772707939148,0.0005780458450317383,0.0008795857429504395,-0.9281854791118633,0.36048208967205525,0.017664339273300668,0.09062191587574575,-0.7288160648849994,-0.1319259639412365,-0.24503469353462246
1781555682343639552,3.1940925121307373,-0.015167142264544964,0.0013852831907570362,-0.009686235338449478,-0.09819292277097702,0.6660978198051453,-0.7393726110458374,0.0038173049688339233,0.007730305194854736,0.0020068883895874023,-0.9281506917638696,0.3605570981008712,0.017671582230983734,0.09067792449269968,-0.7289646953811768,-0.13203311538376433,-0.2452137495447514
1781555682353674752,3.204127550125122,-0.007546506356447935,-0.021169960498809814,-0.010032979771494865,-0.09833530336618423,0.6661134362220764,-0.7393395900726318,0.005683936178684235,0.0028470754623413086,0.00040221214294433594,-0.928139027823007,0.3605768394237836,0.017735118063578456,0.09070741967907782,-0.7289856987990517,-0.13222816810745525,-0.2453554619440513
1781555682363709696,3.214162588119507,-0.01252715103328228,-0.02727712318301201,-0.002914616372436285,-0.09853608161211014,0.6661340594291687,-0.7392943501472473,0.0011087208986282349,-0.002132594585418701,0.001653909683227539,-0.9281292936906721,0.3606025295723066,0.01785072150746956,0.09068229190454331,-0.7290133087919679,-0.13250302935349506,-0.24541122159980155
1781555682373744384,3.2241973876953125,-0.01842205598950386,-0.021820571273565292,-0.0005574525566771626,-0.09870168566703796,0.6662607789039612,-0.739158034324646,-0.011314183473587036,-0.008027136325836182,0.003882765769958496,-0.9280955385862188,0.3606924117106097,0.01794359763761641,0.09065195127833829,-0.7291832506611853,-0.13274730667988288,-0.24545998602941882
1781555682383780352,3.2342333793640137,-0.00957397185266018,-0.003854885697364807,0.006994473282247782,-0.09875146299600601,0.6663944721221924,-0.7390308380126953,-0.016849122941493988,-0.002957582473754883,0.0002002716064453125,-0.9280659658283408,0.3607786705879896,0.017981226582391156,0.09060393289809439,-0.7293625270939487,-0.1328360515371739,-0.24541129803770284
1781555682393815552,3.2442684173583984,0.002907998627051711,0.013698275201022625,0.008063466288149357,-0.09865177422761917,0.6664265394210815,-0.7390152215957642,-0.01955806463956833,0.008088231086730957,-0.00036466121673583984,-0.928064449222879,0.36079168945582163,0.017937138266200213,0.09057599145852055,-0.7294055294426629,-0.13270629332592526,-0.24530550416915956
1781555682403850496,3.254303455352783,0.02327958308160305,0.02615654096007347,0.003857269650325179,-0.09848533570766449,0.6663103699684143,-0.739142119884491,-0.01516212522983551,0.014185786247253418,-0.0005887150764465332,-0.9280979511150935,0.36070795510862014,0.017852324796035702,0.09058286938335489,-0.72924977452199,-0.13246253691592447,-0.24520796214952045
1781555682413885696,3.264338493347168,0.030454406514763832,0.030178450047969818,0.006040795240551233,-0.09825380891561508,0.666124701499939,-0.7393403053283691,-0.010190404951572418,0.00991588830947876,0.00783395767211914,-0.9281483058830906,0.36057675191162186,0.017727218491509628,0.09061432124019989,-0.7290007988600289,-0.132119742559179,-0.24511443128809318
1781555682423920640,3.2743735313415527,0.03291569650173187,0.029978446662425995,0.007301535457372665,-0.0979759693145752,0.6659120321273804,-0.7395687103271484,-0.004105322062969208,0.001003861427307129,0.0018978118896484375,-0.9282083358604036,0.36042529333445444,0.0175852817580869,0.09062954204386271,-0.7287156645930392,-0.13171022457445908,-0.24495604445237665
1781555682433956608,3.284409523010254,0.033964984118938446,0.027048703283071518,0.004542767070233822,-0.0976840928196907,0.6656680107116699,-0.7398269772529602,-0.0009182021021842957,-0.006610393524169922,-0.00010222196578979492,-0.9282761266157201,0.3602533578349059,0.017436499424456974,0.09064776163560916,-0.728388637847975,-0.13127704113334146,-0.244790380635653
1781555682443991552,3.2944445610046387,0.011378448456525803,0.025655068457126617,0.007065579295158386,-0.09743821620941162,0.6654982566833496,-0.7400121092796326,0.002192862331867218,-0.01080465316772461,0.004691064357757568,-0.928324260361949,0.3601310452856463,0.01730831246236301,0.09066528074814481,-0.7281611528386465,-0.13091799194793025,-0.2446632913894638
1781555682454026752,3.3044795989990234,-0.007691381964832544,0.017687156796455383,0.0028788242489099503,-0.09727996587753296,0.665485143661499,-0.7400447130203247,0.004552304744720459,-0.017184972763061523,0.005791783332824707,-0.9283304086933015,0.3601129048225593,0.01721429616469991,0.09069218789962659,-0.7281435610223529,-0.13070208123791882,-0.24463553192254883
1781555682464061440,3.314514398574829,-0.0223867055028677,0.011702502146363258,-0.001380103058181703,-0.09722995012998581,0.6655808091163635,-0.7399652600288391,0.005433090031147003,-0.016716063022613525,0.005925953388214111,-0.9283059005645767,0.3601702016565294,0.017169946732090244,0.09072381048169416,-0.7282717617360518,-0.13064952354833675,-0.24469762077032206
1781555682474096640,3.324549436569214,-0.03365800157189369,-7.705856114625931e-05,-0.0025140768848359585,-0.09725797921419144,0.6657978296279907,-0.7397663593292236,0.007322683930397034,-0.010631203651428223,0.006917238235473633,-0.9282492948492322,0.36030869373586805,0.017160199410718967,0.0907556406732171,-0.728562572153379,-0.13072149356093032,-0.24482670220452357
1781555682484132608,3.334585428237915,-0.04134947806596756,-0.01238379254937172,-0.005443820729851723,-0.09737641364336014,0.6660802960395813,-0.7394963502883911,0.007486887276172638,-0.006030857563018799,0.005060315132141113,-0.9281750955502941,0.36049399158573014,0.01720170459227275,0.09076992230752624,-0.7289412331120589,-0.13092610191864054,-0.2449793567802955
1781555682494167552,3.3446204662323,-0.038494836539030075,-0.021730955690145493,-0.0037300761323422194,-0.09756244719028473,0.666405200958252,-0.7391790747642517,0.001660965383052826,-0.0029224753379821777,0.006803035736083984,-0.9280900730763072,0.36071001575107126,0.017283960933195935,0.09076584933228252,-0.7293768940467336,-0.13122903540293784,-0.24513719895708533
1781555682504202496,3.3546555042266846,-0.02324610762298107,-0.024226071313023567,-0.0035412581637501717,-0.09778425842523575,0.6666356325149536,-0.7389419674873352,-0.0029237493872642517,0.0031946897506713867,0.0013625621795654297,-0.9280276367154376,0.3608690154605896,0.017394785402284976,0.09075117624116512,-0.7296860366551159,-0.13156568845526814,-0.24527123312638907
1781555682514237696,3.3646905422210693,-0.014741568826138973,-0.01738733984529972,-0.0044531249441206455,-0.0979716032743454,0.6667492389678955,-0.7388145923614502,-0.007237747311592102,0.005858182907104492,0.0030205249786376953,-0.9279946128398348,0.3609524601470216,0.01749334192939872,0.09073791362290004,-0.7298384700462405,-0.13183730157867918,-0.2453654581644884
1781555682524272640,3.374725580215454,-0.010543362237513065,-0.005876891314983368,-0.00407282542437315,-0.09807337820529938,0.6668376922607422,-0.7387213110923767,-0.009028062224388123,0.0056629180908203125,0.0019201040267944336,-0.9279700950442229,0.3610145817479525,0.017545009905021718,0.09073163471625764,-0.7299571405342093,-0.1319891517032774,-0.2454243841377603
1781555682534308608,3.3847615718841553,0.004951708484441042,-0.0047767385840415955,-0.003134593367576599,-0.09812038391828537,0.6668291687965393,-0.7387228012084961,-0.009545624256134033,-0.0008440613746643066,-0.005356788635253906,-0.9279692619199313,0.3610125516844114,0.017565625516869368,0.09074430510862973,-0.7299456600752255,-0.13205142649544166,-0.24547462374528484
1781555682544343808,3.39479660987854,-0.013625438325107098,0.0028726584278047085,-4.612564225681126e-05,-0.0981314554810524,0.6668385863304138,-0.7387127876281738,-0.006131850183010101,-0.0039052963256835938,0.0013318061828613281,-0.9279664662611472,0.3610192345477222,0.017570449972527057,0.09074568625308835,-0.7299583549363929,-0.1320679115672222,-0.24548545048878975
1781555682554378496,3.4048314094543457,-0.007342242170125246,0.005211046896874905,-0.001260793418623507,-0.09807835519313812,0.6669042110443115,-0.7386605739593506,-0.00855005532503128,-0.0010106563568115234,0.002607107162475586,-0.9279520938368159,0.3610569962274814,0.01753720656624303,0.09074880362611093,-0.7300464266790264,-0.1320064993857816,-0.24547821879326362
1781555682564413440,3.4148664474487305,-0.009554264135658741,0.021900545805692673,0.0012521654134616256,-0.09795811772346497,0.6669551134109497,-0.7386305928230286,-0.009875737130641937,0.003592371940612793,0.0050337910652160645,-0.9279430823394466,0.36108118327623967,0.01746646117836064,0.09075847524088916,-0.7301147154056151,-0.13185182855229924,-0.2454465883835396
