time,seconds_elapsed,rotationRateX,rotationRateY,rotationRateZ,gravityX,gravityY,gravityZ,accelerationX,accelerationY,accelerationZ,quaternionW,quaternionX,quaternionY,quaternionZ,pitch,roll,yaw
1781551511638513920,0.22384881973266602,0.08252908289432526,-0.0796235054731369,0.4996742010116577,0.02051055245101452,-0.22896215319633484,-0.9732192158699036,0.05744660273194313,-0.08198145031929016,-0.039354026317596436,-0.9748895699340159,-0.11114346627627385,-0.03221056017622908,-0.19026276203754794,0.23101137885141534,0.021071837001414906,0.38303647651606154
1781551511648547584,0.23388266563415527,0.14775948226451874,-0.12127374857664108,0.5108189582824707,0.018312998116016388,-0.23018291592597961,-0.9729750752449036,0.11855833977460861,-0.057689398527145386,-0.026780784130096436,-0.9743522862198919,-0.11188723127102594,-0.03152331529788312,-0.1926789569518956,0.2322656442513172,0.018819430652649505,0.38826841117460287
1781551511658581760,0.24391674995422363,0.23365095257759094,-0.11540666967630386,0.49964648485183716,0.015971826389431953,-0.23214387893676758,-0.9725503325462341,0.0752299576997757,-0.07069730758666992,-0.02334505319595337,-0.9737743895854163,-0.11302155148057547,-0.03083779502530917,-0.19503485133988388,0.23428119180681167,0.016421146667232194,0.39341152556950576
1781551511668615936,0.253950834274292,0.3071315586566925,-0.08112525939941406,0.5446839928627014,0.013787250965833664,-0.23489002883434296,-0.9719241857528687,0.04794980585575104,-0.07886119186878204,-0.0030056238174438477,-0.973122437630333,-0.11453492120428341,-0.030326041084927313,-0.19747100166047563,0.23710543211815183,0.014184569755421556,0.3987236280212861
1781551511678649600,0.26398468017578125,0.3812646269798279,-0.04753854125738144,0.5877159237861633,0.011840536259114742,-0.2383403331041336,-0.9711095094680786,0.04010038450360298,-0.0847340077161789,0.008356213569641113,-0.97236402441932,-0.11637284048514046,-0.030043412312096052,-0.20015722942914005,0.24065658321679076,0.01219218750136805,0.4045464316145557
1781551511688683776,0.2740187644958496,0.4567332863807678,-0.029529443010687828,0.6014074683189392,0.010035740211606026,-0.24249576032161713,-0.9701005816459656,0.043690454214811325,-0.08811642229557037,0.015205562114715576,-0.9715186611123681,-0.11854829840284019,-0.02993362506761276,-0.2029822907339577,0.24493757124992038,0.01034468260209855,0.4106667826167268
1781551511698717696,0.28405261039733887,0.535620927810669,-0.007608698680996895,0.6264377236366272,0.008372457697987556,-0.24739152193069458,-0.9688794016838074,0.045826755464076996,-0.08668440580368042,0.016425788402557373,-0.9705940919645029,-0.12108055160478101,-0.029996451376726737,-0.2058807060090223,0.24998715881783762,0.008641167787511594,0.4169544492589992
1781551511708751616,0.2940866947174072,0.6064381003379822,0.03299172222614288,0.6738483905792236,0.006837071850895882,-0.2530197203159332,-0.9674369692802429,0.03773385286331177,-0.10348662734031677,0.01457136869430542,-0.9695625505073446,-0.12396317830063384,-0.030243175022397834,-0.20896619758799462,0.25580026331737016,0.0070670836941447565,0.42364936674636
1781551511718785792,0.3041207790374756,0.6319461464881897,0.07901940494775772,0.7505876421928406,0.005554468836635351,-0.25912344455718994,-0.9658282399177551,0.01951572299003601,-0.14708077907562256,0.03813964128494263,-0.9684092640442526,-0.12704975427181012,-0.030728493128618087,-0.2123618670851551,0.2621145322506377,0.005750926832798021,0.43098670888168256
1781551511728819712,0.31415462493896484,0.6464278697967529,0.11961210519075394,0.8257452249526978,0.004470324609428644,-0.26537051796913147,-0.9641361236572266,-0.001418569590896368,-0.20348626375198364,0.06170088052749634,-0.9671305367297699,-0.13017509939727215,-0.03140655225685487,-0.21616325666334563,0.268588192908837,0.004636578175734277,0.4391649420513671
1781551511738853632,0.3241887092590332,0.6172037124633789,0.20322498679161072,0.8882893323898315,0.003682872047647834,-0.27154842019081116,-0.962417721748352,-0.021886605769395828,-0.24685367941856384,0.08053600788116455,-0.9657487142360857,-0.1332214571120705,-0.03229825429729289,-0.2203140709644574,0.2750015426155274,0.0038266689265225398,0.4480494257089097
1781551511748888832,0.33422374725341797,0.6441689729690552,0.27421578764915466,0.947965145111084,0.003479261416941881,-0.2776351571083069,-0.9606803059577942,-0.035873666405677795,-0.2573837637901306,0.09347754716873169,-0.964259359308194,-0.13614156868190888,-0.03354593881392078,-0.22482005357699233,0.2813316192688408,0.0036216483704341576,0.45760917009832175
1781551511758922752,0.34425783157348633,0.7302897572517395,0.3649691343307495,1.0144083499908447,0.003800341160967946,-0.28430572152137756,-0.958726167678833,-0.03588957339525223,-0.22811490297317505,0.10278439521789551,-0.9626126389919439,-0.13927599718845027,-0.035201238050468785,-0.2296518188264884,0.28828219416327455,0.003963927868372538,0.4678120824323832
1781551511768956672,0.3542916774749756,0.8512318730354309,0.4458498954772949,1.0885396003723145,0.004701334983110428,-0.2919454276561737,-0.9564234018325806,-0.02531595528125763,-0.1721200942993164,0.09108221530914307,-0.9607525003262621,-0.1428029839012437,-0.03735771847704375,-0.23487502203243626,0.2962602591502632,0.004915497609616864,0.4788006289359257
1781551511778990848,0.36432576179504395,0.999091386795044,0.5229099988937378,1.1525710821151733,0.005992865189909935,-0.3008999228477478,-0.953636884689331,-0.020778629928827286,-0.1456943154335022,0.07094645500183105,-0.9586463328560753,-0.1469135130872839,-0.03997469319549376,-0.24044868148977114,0.3056361725815424,0.006284138377757932,0.490534615910666
1781551511789024512,0.3743596076965332,1.1098639965057373,0.6034432053565979,1.2247954607009888,0.007740203756839037,-0.311123788356781,-0.9503378868103027,-0.02521151676774025,-0.1633787751197815,0.06758642196655273,-0.956285075095702,-0.151571796029215,-0.043093502323060986,-0.24634907169642,0.31637527181000336,0.008144505994156035,0.5029579265228113
1781551511799058688,0.38439369201660156,1.1555070877075195,0.683455765247345,1.3083600997924805,0.009837635792791843,-0.3220841884613037,-0.9466599225997925,-0.03506041690707207,-0.2013685703277588,0.07051551342010498,-0.9536730486559364,-0.15651291342524293,-0.046623493060506886,-0.2526612657161747,0.32793017771161487,0.01039156897653673,0.5162505034293128
1781551511809092864,0.3944277763366699,1.150303602218628,0.7586085796356201,1.3718570470809937,0.012279663234949112,-0.3332059979438782,-0.9427741169929504,-0.04230896383523941,-0.23861712217330933,0.07215338945388794,-0.95085186046157,-0.16144163343953138,-0.05049308454294748,-0.25936067967108,0.3397018515445823,0.01302429598067724,0.5303437595567893
1781551511819126528,0.4044616222381592,1.1171786785125732,0.8088251352310181,1.424868106842041,0.014920263551175594,-0.34413906931877136,-0.9388001561164856,-0.03852561488747597,-0.24434664845466614,0.0645478367805481,-0.9478640186409107,-0.16619693664239882,-0.054575699494444636,-0.26637199886486335,0.35132169182555,0.015891568986521474,0.5450943950346241
1781551511829159936,0.41449499130249023,1.0431909561157227,0.8626804947853088,1.4710941314697266,0.017690956592559814,-0.3545864224433899,-0.9348558783531189,-0.027838056907057762,-0.2300083041191101,0.0730394721031189,-0.9447481417589378,-0.17063486257833205,-0.05878608426579138,-0.27364024249906044,0.3624717046670295,0.01892146850871495,0.5603899164805959
1781551511839193856,0.4245288372039795,1.0013468265533447,0.889721155166626,1.5173108577728271,0.020518232136964798,-0.3644106388092041,-0.9310122728347778,-0.0209454745054245,-0.2152860164642334,0.06776154041290283,-0.9415177667583904,-0.1746908780553836,-0.06306309413894796,-0.2811589682093067,0.3729998466362903,0.022035060559571582,0.5762281765768585
1781551511849228032,0.43456292152404785,1.0568209886550903,0.9106846451759338,1.5598071813583374,0.023182468488812447,-0.3743754029273987,-0.9269874095916748,-0.020771577954292297,-0.20081990957260132,0.053040266036987305,-0.9381070825264036,-0.17878029609504772,-0.0674085160564388,-0.28887508038285176,0.38372310320683534,0.025003184360962875,0.5925823111756902
1781551511859261952,0.4445970058441162,1.0293688774108887,0.9694270491600037,1.5948765277862549,0.025895221158862114,-0.38452789187431335,-0.9227501153945923,-0.024018384516239166,-0.15015533566474915,0.08177721500396729,-0.9345052392253015,-0.18289338774437752,-0.0719372024211151,-0.29677443414154564,0.3946963500569689,0.02805572963909166,0.6093911512012123
1781551511869295872,0.45463085174560547,1.0392358303070068,1.0039303302764893,1.6105716228485107,0.028748393058776855,-0.3944835662841797,-0.9184531569480896,-0.028672093525528908,-0.09663578867912292,0.0926169753074646,-0.9307594101382357,-0.18682047281327377,-0.07662588489162542,-0.30481705838064277,0.4055057867994737,0.03129066422004979,0.6265366890984919
1781551511879329792,0.46466493606567383,1.0957872867584229,1.0521745681762695,1.6056429147720337,0.03173919767141342,-0.4048495292663574,-0.9138323068618774,-0.039963677525520325,-0.07769441604614258,0.09866201877593994,-0.9268416482229798,-0.19087437052672707,-0.08155258121779986,-0.312858817829468,0.4168142554216664,0.034718016055814954,0.6437452666859822
1781551511889363968,0.4746990203857422,1.0826504230499268,1.1057851314544678,1.610416293144226,0.03501225262880325,-0.4153866469860077,-0.9089708924293518,-0.05088139325380325,-0.04426911473274231,0.1163225769996643,-0.9227726229469503,-0.19490711543214118,-0.08675119258749134,-0.3208990002908807,0.42836780915069544,0.03849953177563035,0.6609718490582618
1781551511899397888,0.48473286628723145,1.086286187171936,1.1545449495315552,1.6135878562927246,0.03847621753811836,-0.4258493185043335,-0.9039756059646606,-0.05323147401213646,-0.021721452474594116,0.12152022123336792,-0.9185637423493914,-0.19880075050002832,-0.09214360615589158,-0.32898098828203187,0.43990035829837965,0.04253765856281865,0.6783173193897037
1781551511909431808,0.4947669506072998,1.1172412633895874,1.2124030590057373,1.5732990503311157,0.04228402301669121,-0.43652284145355225,-0.8986989855766296,-0.04886056110262871,-0.013886094093322754,0.08841150999069214,-0.9142143155107744,-0.20267885797538684,-0.09783549006290812,-0.33698924042087486,0.45173020659565327,0.04701558833765844,0.6955094783510899
1781551511919465984,0.5048010349273682,1.147620677947998,1.240975022315979,1.5346003770828247,0.046445488929748535,-0.4473961293697357,-0.8931290507316589,-0.041349053382873535,0.0041588544845581055,0.06753700971603394,-0.9097769605077272,-0.20654554020007368,-0.10379983490946947,-0.3447760409297245,0.4638517101459724,0.0519563083848381,0.7122158848743664
1781551511929499904,0.5148348808288574,1.1799302101135254,1.2721779346466064,1.5390926599502563,0.050674084573984146,-0.45859482884407043,-0.8871994614601135,-0.029021859169006348,0.022910624742507935,0.0486527681350708,-0.9051941421887445,-0.21050083430025382,-0.10995296540235555,-0.3524534140006423,0.47641331454308716,0.057054910319121785,0.7287570162465734
1781551511939533824,0.5248689651489258,1.1606653928756714,1.2991275787353516,1.534775972366333,0.05492100864648819,-0.46987149119377136,-0.8810246586799622,-0.026158194988965988,0.03273770213127136,0.03277331590652466,-0.9004555913351017,-0.214414982153355,-0.11624924137986667,-0.36012770518203896,0.4891451840838697,0.0622570912155021,0.7453661414693309
1781551511949567744,0.534902811050415,1.083594799041748,1.313483476638794,1.5279004573822021,0.05913707613945007,-0.4806342124938965,-0.874924898147583,-0.020105089992284775,0.029767513275146484,0.05177426338195801,-0.8956601562487353,-0.2180012964140544,-0.12252752311910424,-0.3677706671299653,0.5013777906890137,0.06748838329662048,0.7619573159138963
1781551511959601920,0.5449368953704834,1.043009877204895,1.3063539266586304,1.5119233131408691,0.06317172199487686,-0.4909422695636749,-0.8688987493515015,-0.0010989755392074585,0.02226853370666504,0.031343817710876465,-0.8908138147548668,-0.22132046907664601,-0.1287162423004999,-0.37536674736556686,0.5131709958483074,0.07257551250744189,0.7785433490690062
1781551511969635840,0.5549709796905518,0.893501341342926,1.304141879081726,1.4793806076049805,0.06706222891807556,-0.5003483891487122,-0.863223135471344,0.01565565913915634,0.030362427234649658,0.037524282932281494,-0.8860260090947172,-0.22415312286471856,-0.13469898742766526,-0.38284405346684053,0.5240011274518279,0.07753244798619081,0.7949221469748106
1781551511979669760,0.565004825592041,0.7855055928230286,1.272929072380066,1.4668495655059814,0.07075811922550201,-0.5085837244987488,-0.858100175857544,0.04272148013114929,0.05168980360031128,0.022284746170043945,-0.8813307270391244,-0.226368884417278,-0.14038177669644916,-0.39026438970071525,0.5335390935001045,0.08227290712540333,0.8112262307157466
1781551511989703936,0.5750389099121094,0.763491153717041,1.2278972864151,1.4412217140197754,0.07399080693721771,-0.5162966847419739,-0.853207528591156,0.060988448560237885,0.07234221696853638,-0.0013762116432189941,-0.8766752855838024,-0.22836603676491904,-0.14575728965302476,-0.39754777580375356,0.5425210635743547,0.08650434327039486,0.8274030881137181
1781551511999737856,0.5850729942321777,0.7270260453224182,1.1918076276779175,1.4032114744186401,0.07691390067338943,-0.5237572193145752,-0.8483882546424866,0.06406206637620926,0.0905449390411377,-0.016251027584075928,-0.8720485714071322,-0.23026550339365356,-0.15094261164634298,-0.40463003043499757,0.5512555850016696,0.09041169084686497,0.843282512547602
1781551512009771776,0.595106840133667,0.7231921553611755,1.132148265838623,1.3619228601455688,0.0794588252902031,-0.5310046672821045,-0.8436352014541626,0.0686429813504219,0.07707095146179199,-0.0378497838973999,-0.8674826126607147,-0.2321196183812,-0.15589382035220117,-0.4114506354579568,0.5597857825464219,0.09390920386423357,0.8587497089219143
1781551512019805952,0.6051409244537354,0.6483221650123596,1.104813575744629,1.3363875150680542,0.08166161924600601,-0.5379481315612793,-0.8390132784843445,0.07637365907430649,0.0553278923034668,-0.03816878795623779,-0.8629783286700322,-0.23387431730167715,-0.16061188374445437,-0.4180611493776318,0.5680011195177019,0.09702493635546486,0.8739035442414409
1781551512029839872,0.6151750087738037,0.5668004155158997,1.060348391532898,1.301619052886963,0.08359973132610321,-0.5441527962684631,-0.8348106741905212,0.0964844822883606,0.06023550033569336,-0.02201610803604126,-0.8585844024118271,-0.23528817078713588,-0.16502770026998415,-0.42454468694274494,0.5753789621156237,0.09980939061226317,0.8888727358786513
1781551512039873792,0.625208854675293,0.4561295509338379,1.0084980726242065,1.2734763622283936,0.08516804873943329,-0.5495610237121582,-0.83110111951828,0.1252353936433792,0.0590062141418457,0.005905866622924805,-0.8543417346337014,-0.23636944270854432,-0.16905299403360202,-0.4308721274895248,0.5818386908745343,0.10211968222391844,0.9036145868934697
1781551512049907968,0.6352429389953613,0.33802926540374756,0.9392423629760742,1.254602074623108,0.08628174662590027,-0.5539515614509583,-0.8280658721923828,0.12605956196784973,0.04949605464935303,0.03979688882827759,-0.8502844683101609,-0.23702830264602645,-0.17258226345145733,-0.4370918757983808,0.5871031472931654,0.10382206570780005,0.9182450811901983
1781551512059941888,0.6452770233154297,0.26081225275993347,0.9134621620178223,1.2303416728973389,0.0869910717010498,-0.5575389266014099,-0.8255802989006042,0.1048576757311821,0.03239250183105469,0.05591177940368652,-0.8463667786981267,-0.23736308956242957,-0.1756946428276199,-0.4432305520512934,0.5914182373047137,0.10498221801697986,0.932824270166464
1781551512069975808,0.655310869216919,0.14645320177078247,0.91015625,1.1671608686447144,0.0878189280629158,-0.5602661371231079,-0.8236441016197205,0.09197539836168289,0.035379111766815186,0.040196895599365234,-0.8426207377561281,-0.23723958610386323,-0.1785926036307387,-0.44923518202696344,0.5947070830659053,0.1062211091255139,0.9470361087556181
1781551512080009984,0.6653449535369873,0.1071566641330719,0.8816213011741638,1.0641229152679443,0.08889402449131012,-0.5622679591178894,-0.8221633434295654,0.08296571671962738,0.061810195446014404,0.01665186882019043,-0.8391293341836916,-0.23673878224021233,-0.18130933159538123,-0.4549105328738602,0.5971257975332325,0.10770369895250992,0.9603733450417674
1781551512090043904,0.6753790378570557,0.28424835205078125,0.8737778663635254,0.962603747844696,0.09039649367332458,-0.5646741986274719,-0.8203484416007996,0.06197776645421982,0.12679266929626465,-0.0033820271492004395,-0.8357911926848102,-0.23641882280364276,-0.1842061988277953,-0.4600296620022252,0.6000384056620649,0.10975002276398362,0.9723364062577426
1781551512100077824,0.6854128837585449,0.5639767050743103,0.9130334258079529,0.9070121049880981,0.09238763153553009,-0.569054126739502,-0.8170936107635498,0.04690984636545181,0.21559953689575195,-0.017974138259887695,-0.8322856453222217,-0.23702288964352886,-0.18781198798449605,-0.4645939720135887,0.6053551260450638,0.11259042137838397,0.9830639124189914
1781551512110112000,0.6954469680786133,0.7984951734542847,0.9410169720649719,0.8472358584403992,0.09495345503091812,-0.5754761099815369,-0.8122876286506653,0.04220779240131378,0.24805301427841187,-0.021300017833709717,-0.8285277408923942,-0.23853417577898497,-0.192243700397585,-0.46870646249695636,0.6131861788563853,0.11636822118198821,0.9927726552274228
1781551512120145920,0.7054808139801025,0.8942028284072876,0.9286175966262817,0.7543696165084839,0.09789688140153885,-0.5832333564758301,-0.8063839673995972,0.04474227875471115,0.16166359186172485,-0.012173771858215332,-0.8246813133908044,-0.24066992652703662,-0.19719537693211625,-0.4723269967214597,0.6227035339934224,0.12081110496277374,1.0013449514928965
1781551512130179840,0.7155148983001709,0.7820746898651123,0.8790385723114014,0.6584129929542542,0.10102660953998566,-0.590812623500824,-0.8004586696624756,0.03932373225688934,0.06323999166488647,0.011716604232788086,-0.8210672704896005,-0.2427498792973099,-0.20209692189592782,-0.4754765020910968,0.6320656930846572,0.12554708847971766,1.0087125596745314
1781551512140214016,0.7255489826202393,0.573722779750824,0.8733534812927246,0.6460718512535095,0.10415694117546082,-0.5968850255012512,-0.7955372929573059,0.03019670397043228,0.00974208116531372,0.07413226366043091,-0.8177938488621448,-0.24409835926493742,-0.20651234067175214,-0.4785204311468075,0.6396130454279033,0.13018603140708704,1.015667746234248
1781551512150247936,0.7355828285217285,0.45721158385276794,0.8817138671875,0.6203180551528931,0.10729001462459564,-0.601635217666626,-0.791532576084137,0.030725747346878052,-0.00024765729904174805,0.08437931537628174,-0.8147180878686476,-0.244754342372114,-0.2105445682811846,-0.4816644360101532,0.6455467308107383,0.13472607592509103,1.0227306068739104
1781551512160281856,0.7456169128417969,0.40157681703567505,0.9010817408561707,0.6046695709228516,0.11065387725830078,-0.6056699752807617,-0.7879845499992371,0.053439147770404816,0.04742717742919922,0.07446831464767456,-0.8117632223645999,-0.24497716651952972,-0.21446193734826308,-0.4848018202306647,0.6506075860263602,0.1395141740712036,1.0296229613576189
1781551512170316032,0.7556509971618652,0.4727761745452881,0.8972432017326355,0.5863925814628601,0.11410941928625107,-0.609771728515625,-0.7843198180198669,0.08275946229696274,0.0863494873046875,0.04786956310272217,-0.808792092908029,-0.2451960457949982,-0.21844679755734434,-0.48786811964285287,0.6557725148907534,0.14447471386088515,1.0363259416487562
1781551512180349952,0.7656848430633545,0.5142762660980225,0.8736267685890198,0.5600099563598633,0.11755294352769852,-0.6143510937690735,-0.7802269458770752,0.07641677558422089,0.07962208986282349,-0.0037086009979248047,-0.8057865000205019,-0.2456699974402632,-0.22255962936951978,-0.49073583631587797,0.6615633118710854,0.1495403213340924,1.0426068445666523
1781551512190383872,0.7757189273834229,0.517755389213562,0.8201731443405151,0.5424906015396118,0.12076237052679062,-0.6190807819366455,-0.7759867310523987,0.05207395553588867,0.05665707588195801,-0.04139608144760132,-0.8028322347760736,-0.2463040122961355,-0.22658544887958504,-0.49341022354695374,0.6675716380249253,0.15438586593806844,1.0485236598041408
1781551512200418048,0.7857530117034912,0.42673012614250183,0.7769111394882202,0.5482560992240906,0.12355031818151474,-0.6234666109085083,-0.7720263600349426,0.03814709186553955,0.0417100191116333,-0.03699463605880737,-0.7999765503092677,-0.24687750303092,-0.23030050991387857,-0.4960348682372065,0.6731687403996004,0.158688225258202,1.0544533160760396
1781551512210451968,0.7957868576049805,0.34307703375816345,0.740757942199707,0.5581215023994446,0.12592174112796783,-0.6271291375160217,-0.7686694264411926,0.036447033286094666,0.04059648513793945,-0.009315133094787598,-0.7972320703187592,-0.24717084919808907,-0.23360617378644066,-0.4987540616772742,0.6778619665977383,0.16237553104163416,1.0607180197119097
1781551512220486912,0.8058218955993652,0.2665465772151947,0.6963819265365601,0.5459732413291931,0.12794476747512817,-0.6301991939544678,-0.765819251537323,0.04071061313152313,0.03397732973098755,0.005550086498260498,-0.7946187841328197,-0.24725369107211972,-0.23655020173786426,-0.5014883770824476,0.6818097532350449,0.1655402512427233,1.0671118668806825
1781551512230521088,0.8158559799194336,0.19139590859413147,0.6709890961647034,0.5710293054580688,0.12965191900730133,-0.6326903104782104,-0.7634745240211487,0.03895770013332367,0.01121509075164795,0.01710611581802368,-0.7921151496371794,-0.24711651025207249,-0.23915721169674903,-0.5042726244094805,0.6850223667170332,0.16821352261872313,1.0737139337051076
1781551512240554752,0.8258898258209229,0.08604365587234497,0.642254650592804,0.6122031211853027,0.13087472319602966,-0.6345655918121338,-0.7617075443267822,0.03355398774147034,-0.04612898826599121,0.022464990615844727,-0.7896379781739518,-0.24674236920383466,-0.24138028569492218,-0.5072727532272604,0.6874462966756973,0.17015612240536168,1.0810119763898467
1781551512250588928,0.8359239101409912,-0.0623767115175724,0.6220269799232483,0.619655966758728,0.13176915049552917,-0.6354931592941284,-0.7607794404029846,0.034444838762283325,-0.08203613758087158,0.019171833992004395,-0.7872760955242782,-0.24593850593272581,-0.24315533999264458,-0.510476431357999,0.6886470644638558,0.1715013630824076,1.0888776116057495
1781551512260623104,0.8459579944610596,-0.18011479079723358,0.6075758934020996,0.6453722715377808,0.13242679834365845,-0.6353806257247925,-0.7607592344284058,0.04571954905986786,-0.07123863697052002,0.010026812553405762,-0.7850509142660863,-0.24464128461000803,-0.2444811403573893,-0.5138819573999764,0.68850132696273,0.17234499928579383,1.0972583819724515
1781551512270656768,0.8559918403625488,-0.23523423075675964,0.5883892774581909,0.6504786014556885,0.13284246623516083,-0.6346487998962402,-0.7612974643707275,0.05633600056171417,-0.048914432525634766,0.014059305191040039,-0.782889040644844,-0.2430724552690055,-0.2454934743418045,-0.5174297544274807,0.687553956952485,0.17275544867001186,1.1060525835900212
1781551512280690944,0.8660259246826172,-0.1711854785680771,0.5648946166038513,0.6242512464523315,0.13319776952266693,-0.6338748335838318,-0.7618799209594727,0.043193817138671875,-0.013723433017730713,0.014824867248535156,-0.7807721995377502,-0.2415201007283224,-0.24643066666059435,-0.5208979655441334,0.6865528778293039,0.17307854814840595,1.114686414044082
1781551512290725120,0.8760600090026855,-0.04615672677755356,0.5518877506256104,0.6498913764953613,0.13337281346321106,-0.6339481472969055,-0.7617883682250977,0.02539488673210144,0.029288113117218018,-0.015295982360839844,-0.7785400611059885,-0.24046135272232935,-0.2475563885710432,-0.5241846975621404,0.6866476630880971,0.1733218941602886,1.123055707372855
1781551512300758784,0.8860938549041748,0.11613231897354126,0.5468583703041077,0.5818790197372437,0.13360895216464996,-0.6350710391998291,-0.7608110904693604,0.022488459944725037,0.0231935977935791,0.007881402969360352,-0.7761510772540383,-0.2399265520742258,-0.2490576312520619,-0.5272525020766193,0.6881004601705034,0.17384119188127306,1.1309944854892613
1781551512310792960,0.8961279392242432,0.16061323881149292,0.49069803953170776,0.4832480847835541,0.13422736525535583,-0.6368715763092041,-0.7591953873634338,0.035587698221206665,0.0565950870513916,-0.007574021816253662,-0.7739522034204622,-0.23977224346766435,-0.250821826545223,-0.5297127786775991,0.6904336402609846,0.17499372269026847,1.1373225103902298
1781551512320826880,0.9061620235443115,0.33746495842933655,0.5015344619750977,0.4598034620285034,0.13488996028900146,-0.6394194960594177,-0.7569329142570496,0.08744585514068604,0.10116571187973022,0.01126641035079956,-0.7717234251332301,-0.24002511322198847,-0.25282699717352475,-0.5318924074785741,0.6937430455605853,0.17635466673922004,1.1430240677492316
1781551512330860800,0.9161958694458008,0.29865071177482605,0.4438891112804413,0.22619126737117767,0.1362847238779068,-0.6423733234405518,-0.7541770339012146,0.0519629567861557,0.10500454902648926,-0.0307655930519104,-0.7698164741876243,-0.24046659310197663,-0.25512214196034905,-0.5333583518218388,0.6975910327748982,0.17877722569382978,1.146641080162295
1781551512340894976,0.9262299537658691,0.43030673265457153,0.44083258509635925,0.2658795416355133,0.13806810975074768,-0.6454170942306519,-0.751248300075531,0.04842481017112732,0.20674216747283936,-0.023669302463531494,-0.7681809436427645,-0.24098316932676633,-0.2574936203830845,-0.5343428573802632,0.7015692348609669,0.18175664927073648,1.1488601226098003
1781551512350928896,0.9362640380859375,0.3749729096889496,0.4545649290084839,0.19477687776088715,0.13989593088626862,-0.6488867998123169,-0.7479137778282166,0.050610050559043884,0.2017585039138794,-0.0030170083045959473,-0.7664396430097075,-0.24168739789381072,-0.2600582716464117,-0.5352823576719099,0.7061205094498831,0.1849114694291252,1.1509961052852735
1781551512360962816,0.9462978839874268,0.32803070545196533,0.4252166152000427,0.1104247197508812,0.14219599962234497,-0.6517179012298584,-0.7450128793716431,0.009171172976493835,0.1441190242767334,-0.025342345237731934,-0.7650428451219665,-0.24205300027271892,-0.2624955609781093,-0.535925385273052,0.7098472205407079,0.18859554731151582,1.1520695153918548
1781551512370996992,0.9563319683074951,0.3235430121421814,0.40427324175834656,0.07479055225849152,0.14469003677368164,-0.6541998386383057,-0.7423526048660278,-0.021246448159217834,0.14556336402893066,-0.07535064220428467,-0.7638712789704963,-0.24226964612161042,-0.2648190236040768,-0.5363553864898625,0.7131242108382891,0.1924940897283851,1.1524486486726597
1781551512381030912,0.9663658142089844,0.41141560673713684,0.39213135838508606,0.04995311424136162,0.14723092317581177,-0.6570563912391663,-0.7393239736557007,-0.05528147518634796,0.15221935510635376,-0.07940161228179932,-0.762717684189852,-0.24270726410561647,-0.2672661426293019,-0.5365853151019372,0.7169073091319841,0.19657102489626324,1.1523183083694515
1781551512391064832,0.9763998985290527,0.4419974982738495,0.3650936186313629,0.03207957372069359,0.14977577328681946,-0.6603332161903381,-0.7358853816986084,-0.06168678402900696,0.08332210779190063,-0.0817110538482666,-0.7615618469166644,-0.24339807411977876,-0.2698419723553873,-0.5366248754840216,0.7212623700387062,0.20078881756283065,1.1517218267476752
1781551512401099008,0.9864339828491211,0.3931282162666321,0.3264266550540924,0.0405697301030159,0.15208463370800018,-0.663477897644043,-0.7325758337974548,-0.07127410173416138,-0.014790475368499756,-0.030027925968170166,-0.7604917170225545,-0.24412249353988827,-0.27224309152597914,-0.5366006832766061,0.7254576532680769,0.20469494350153664,1.1510259306892507
1781551512411132928,0.9964678287506104,0.31939515471458435,0.32453009486198425,0.08437474071979523,0.15404446423053741,-0.666190505027771,-0.729698896408081,-0.09863981604576111,-0.08704429864883423,0.01328355073928833,-0.7594469777808757,-0.2446984070142897,-0.2743596850954283,-0.5367399257885651,0.729089028013643,0.2080520841010292,1.1508467832883003
1781551512421166848,1.0065019130706787,0.24412889778614044,0.3576291799545288,0.13461074233055115,0.15576867759227753,-0.6684631109237671,-0.7272503972053528,-0.14090663194656372,-0.13953548669815063,0.04405343532562256,-0.758326048208255,-0.2450348558443918,-0.2762837677201368,-0.5371841326403403,0.7321404841067166,0.21100039895348574,1.1515142898204702
1781551512431201024,1.016535997390747,0.17365659773349762,0.38824889063835144,0.1749347299337387,0.15743866562843323,-0.6701945066452026,-0.7252946496009827,-0.15312044322490692,-0.1252918839454651,0.031782686710357666,-0.7571375975834675,-0.2450221347095151,-0.27805902557922707,-0.5379498002352207,0.7344708679933563,0.21375248309657896,1.1529873697721202
1781551512441234944,1.0265698432922363,0.15521366894245148,0.38824915885925293,0.19292092323303223,0.15905603766441345,-0.6716871857643127,-0.7235589027404785,-0.10955652594566345,-0.08093726634979248,-0.03696960210800171,-0.7558890705476166,-0.2448456978804474,-0.27976976696968614,-0.5388981496355528,0.7364838647674398,0.21638297023223838,1.1549383444267691
1781551512451268864,1.0366039276123047,0.08979471027851105,0.368331640958786,0.212029367685318,0.16040314733982086,-0.6730013489723206,-0.7220388054847717,-0.07269562780857086,-0.07734960317611694,-0.06439918279647827,-0.7546373607509977,-0.24463031278623146,-0.28131230528551937,-0.5399461675409394,0.7382591795964015,0.21860306905505883,1.1572549804911048
1781551512461303040,1.046638011932373,-0.16978678107261658,0.34425559639930725,0.2241819053888321,0.16152653098106384,-0.6731093525886536,-0.7216875553131104,-0.07641300559043884,-0.10080116987228394,-0.02617621421813965,-0.7535816328317347,-0.2438396005175808,-0.28230916857028604,-0.5412563843004897,0.7384052315087689,0.22018892851565264,1.1602376979167977
1781551512471336960,1.0566718578338623,-0.5486509799957275,0.3026775121688843,0.25475579500198364,0.16224205493927002,-0.6709829568862915,-0.723504900932312,-0.05874168872833252,-0.12760096788406372,0.025598466396331787,-0.7528953210607837,-0.24199220398481017,-0.28228941302938143,-0.5430478809211634,0.7355336408504861,0.2205952962665155,1.1644409758297996
1781551512481370880,1.0667059421539307,-1.047811508178711,0.2864287793636322,0.2778160870075226,0.16258306801319122,-0.6656032204627991,-0.7283810973167419,-0.04782173037528992,-0.16801488399505615,0.07448101043701172,-0.7527159168074319,-0.2385557900487467,-0.28089247804016265,-0.5455357196554647,0.7283018293236347,0.21961151194126793,1.1703035528257206
1781551512491405056,1.076740026473999,-1.4029000997543335,0.3076513707637787,0.2935045063495636,0.16290460526943207,-0.6569839715957642,-0.7360938787460327,-0.050706714391708374,-0.21935880184173584,0.07245862483978271,-0.7529794715020476,-0.23346095053107946,-0.27829670894394554,-0.5486973640898368,0.7168111762433547,0.21779905760054877,1.17759813310923
1781551512501438976,1.0867738723754883,-1.3020411729812622,0.3249776363372803,0.450639009475708,0.16284561157226562,-0.6474577784538269,-0.744499683380127,-0.03165055811405182,-0.2474091649055481,0.05449724197387695,-0.7531175485330307,-0.22795529755046007,-0.27529356208382016,-0.5523258541618729,0.7042438783745163,0.2153401545756616,1.1861772453464585
1781551512511472896,1.0968079566955566,-1.4227076768875122,0.37935447692871094,0.5156645774841309,0.16229014098644257,-0.6380905508995056,-0.7526634931564331,-0.017285868525505066,-0.21527248620986938,0.038338541984558105,-0.7527747986412945,-0.22253469411763296,-0.27229865210204496,-0.5564727393642566,0.692015809367864,0.2123697560755078,1.1963306998170218
1781551512521507072,1.106842041015625,-1.3682060241699219,0.29355886578559875,0.44572094082832336,0.16180366277694702,-0.628180205821991,-0.76105797290802,0.02810722589492798,-0.18579989671707153,0.0018569231033325195,-0.7525071959282087,-0.21691759753151524,-0.26910550384282317,-0.5605907411435586,0.6792121442869918,0.20948451355067046,1.2062933141607355
1781551512531540992,1.1168758869171143,-0.9961725473403931,0.22426900267601013,0.38019758462905884,0.16120527684688568,-0.6196315884590149,-0.7681598663330078,0.08081436157226562,0.0021541714668273926,-0.10346794128417969,-0.7522994840442454,-0.212211855978824,-0.26624460803208566,-0.5640261713445115,0.6682732442402796,0.20685716864215178,1.2146275055478037
1781551512541574912,1.1269099712371826,-0.46523308753967285,0.2167077511548996,0.34845244884490967,0.1606275588274002,-0.6146009564399719,-0.7723111510276794,0.0841691792011261,0.23021680116653442,-0.16001611948013306,-0.7517437043870513,-0.20933715339350487,-0.26461743948528027,-0.566601361580246,0.6618800308583315,0.20505956754822274,1.221078642352818
1781551512551608832,1.1369438171386719,-0.21678385138511658,0.22400668263435364,0.30060237646102905,0.16029632091522217,-0.6127710342407227,-0.7738324999809265,0.06043730676174164,0.15590763092041016,-0.10801869630813599,-0.7508327655574825,-0.20800371781373772,-0.26423134020840566,-0.568477266888107,0.6595623252403797,0.2042571985371915,1.2259675916012194
1781551512561643008,1.1469779014587402,-0.3192857503890991,0.21262113749980927,0.19624800980091095,0.16049249470233917,-0.6111336946487427,-0.7750856280326843,0.011687666177749634,-0.010997653007507324,-0.034271061420440674,-0.750113528331505,-0.20671835436735003,-0.26405434794517463,-0.5699759406794053,0.6574921184911753,0.20417875420551898,1.2296895672761703
1781551512571676928,1.1570119857788086,-0.35103514790534973,0.16185609996318817,0.18927638232707977,0.160795658826828,-0.6087763905525208,-0.7768758535385132,0.0325637012720108,-0.006457984447479248,-0.059656739234924316,-0.7496653936322646,-0.20513988470536149,-0.2635900179719222,-0.5713490967495036,0.6545173177136488,0.20409539409431093,1.2329529585572372
1781551512581710848,1.1670458316802979,-0.23408401012420654,0.10526099056005478,0.15621083974838257,0.16073115170001984,-0.6067413687705994,-0.7784795761108398,0.09218327701091766,0.07515567541122437,-0.10839176177978516,-0.7493005311079454,-0.20388676211047962,-0.26304066635735546,-0.5725282637686029,0.6519546958587593,0.2036070212230973,1.2358699508414523
1781551512591745024,1.1770799160003662,-0.16005852818489075,0.05796085670590401,0.13885103166103363,0.16048865020275116,-0.605490505695343,-0.779502809047699,0.11294884979724884,0.09282571077346802,-0.12772369384765625,-0.7489643471338546,-0.20312655499157767,-0.2626560173170495,-0.5734142659090543,0.6503820558124199,0.20304863580155294,1.2381641813964557
1781551512601778944,1.1871140003204346,-0.17720262706279755,-0.05489485710859299,0.1500387042760849,0.1596483290195465,-0.6044633984565735,-0.780471920967102,0.12518750131130219,0.008531391620635986,-0.13197314739227295,-0.7487144360470053,-0.2027026751717595,-0.2620604395655128,-0.5741624734429656,0.6490920832613802,0.20177015316281346,1.2403254564620876
1781551512611812864,1.1971478462219238,-0.38540858030319214,-0.1600658893585205,0.1507689505815506,0.15785731375217438,-0.6025693416595459,-0.7822986841201782,0.11857090890407562,-0.0876467227935791,-0.12562978267669678,-0.7486948429658018,-0.2021969205734242,-0.2607049297082426,-0.5749829303820381,0.6467166821623754,0.1991127596411094,1.2428959851794281
1781551512621847040,1.2071819305419922,-0.6873511075973511,-0.26105642318725586,0.12678584456443787,0.15537793934345245,-0.5986676216125488,-0.7857829332351685,0.06570665538311005,-0.15816831588745117,-0.07453811168670654,-0.7490917065870807,-0.20101117127803378,-0.2582693270147931,-0.5759801377493192,0.6418366566402122,0.19521813862847046,1.2459053947113539
1781551512631880960,1.2172160148620605,-0.9532570838928223,-0.3175443112850189,0.09894462674856186,0.15237268805503845,-0.5921788215637207,-0.7912691235542297,0.03363195061683655,-0.1705012321472168,-0.0020963549613952637,-0.7500071565220903,-0.1988498154467922,-0.2546059326485297,-0.5771688800373639,0.6337600516729739,0.1902387844189726,1.2492403763622066
1781551512641914880,1.2272498607635498,-0.7927172183990479,-0.28700292110443115,0.1607683151960373,0.14914585649967194,-0.5852748155593872,-0.796999990940094,0.01062890887260437,-0.07195174694061279,0.0018644928932189941,-0.7509015061236853,-0.1965524487360527,-0.25073320592168796,-0.5784868907245098,0.6252189323353848,0.18499442727856988,1.2529023574951599
1781551512651949056,1.2372839450836182,-0.615778386592865,-0.21150816977024078,0.16019760072231293,0.14618869125843048,-0.5799585580825806,-0.8014218211174011,0.02445034682750702,-0.005734741687774658,0.008590400218963623,-0.7514230694694688,-0.19487157280658648,-0.24761698874997973,-0.5797190841732591,0.6186778439456326,0.18042794621974487,1.2564276071538907
1781551512661982976,1.2473180294036865,-0.5711222290992737,-0.16274835169315338,0.1810123324394226,0.14371754229068756,-0.5755570530891418,-0.8050337433815002,0.03860972821712494,-0.10771626234054565,0.08016496896743774,-0.7517149325556416,-0.19344222943236927,-0.2450780231307752,-0.580897139175972,0.613285197975843,0.17666253377156754,1.259753494329947
1781551512672016896,1.2573518753051758,-0.6782318949699402,-0.13426198065280914,0.19070783257484436,0.14139926433563232,-0.5707877278327942,-0.8088310360908508,0.023548245429992676,-0.1751076579093933,0.10900193452835083,-0.7519502682777036,-0.19176903220813776,-0.24250593691141661,-0.5822252351734168,0.6074648645920931,0.17307032643701004,1.2633607424083915
1781551512682050816,1.2673859596252441,-0.7673889398574829,-0.09204768389463425,0.22078265249729156,0.13934825360774994,-0.5651801228523254,-0.8131134510040283,0.005732312798500061,-0.14438408613204956,0.11108708381652832,-0.752177618814617,-0.1896013389847293,-0.23978033377937769,-0.5837684185662101,0.6006515972066035,0.16972735010637002,1.267321694031382
1781551512692086016,1.277420997619629,-0.8045376539230347,-0.09307366609573364,0.2517765164375305,0.13720858097076416,-0.5590705275535583,-0.8176882266998291,0.01716458797454834,-0.11726003885269165,0.1260225772857666,-0.7523379269631627,-0.18720029282495584,-0.2368796145184214,-0.5855184621132725,0.5932643507738472,0.1662517737359627,1.2717726042357438
1781551512702119936,1.2874548435211182,-0.8805423974990845,-0.1066238284111023,0.25453367829322815,0.13498377799987793,-0.5525549054145813,-0.822473406791687,0.035624727606773376,-0.1119348406791687,0.11754786968231201,-0.7524824627142152,-0.1846403124220555,-0.23381887333945964,-0.587372882491348,0.585426517928487,0.16266916652630822,1.2764517623953373
1781551512712153856,1.2974889278411865,-0.9692794680595398,-0.14468559622764587,0.2650984227657318,0.13247433304786682,-0.5452333092689514,-0.8277506828308105,0.04500064253807068,-0.15091842412948608,0.14874982833862305,-0.7527104720243383,-0.18182599564379862,-0.23035617750289414,-0.5893235457747461,0.5766673968499472,0.15869557668574066,1.2813379766898554
1781551512722188032,1.3075230121612549,-1.0476144552230835,-0.14034676551818848,0.25203457474708557,0.12984390556812286,-0.5371586680412292,-0.8334273099899292,0.015251919627189636,-0.15058541297912598,0.15877526998519897,-0.7530070278886484,-0.1787369245170174,-0.2265821051594697,-0.5913493596528985,0.5670649259421091,0.1545526645178881,1.2863311250411456
1781551512732221952,1.3175568580627441,-1.0421749353408813,-0.13872011005878448,0.23871956765651703,0.12737271189689636,-0.5286799073219299,-0.8392102122306824,0.008781462907791138,-0.07334035634994507,0.13562744855880737,-0.7533658000811516,-0.17546379364205816,-0.22272708533402216,-0.5933338912787975,0.5570445941266443,0.1506272731367287,1.29109279950782
1781551512742255872,1.3275909423828125,-0.9501520991325378,-0.17617399990558624,0.22535449266433716,0.1247958242893219,-0.5205858945846558,-0.844639778137207,0.05104644596576691,-0.03426945209503174,0.09084033966064453,-0.7537100196594569,-0.17244268129062842,-0.21896036769346142,-0.5951816030124313,0.5475370479516078,0.1466890818792571,1.295558464256136
1781551512752290048,1.3376250267028809,-0.9575503468513489,-0.2317093014717102,0.1979881227016449,0.12195998430252075,-0.5128322243690491,-0.8497816920280457,0.07719772309064865,-0.05281108617782593,0.047032058238983154,-0.7541027385520869,-0.16971589121362507,-0.2151875382256385,-0.5968416984709135,0.5384806374677502,0.14254580510774822,1.299627379271309
1781551512762323968,1.3476588726043701,-1.035788655281067,-0.31441059708595276,0.16161440312862396,0.11869467794895172,-0.5045576095581055,-0.8551802635192871,0.08688697218894958,-0.05562305450439453,0.04487752914428711,-0.7546923113851404,-0.16697247014387953,-0.21102150185258423,-0.5983559165768416,0.528869490968049,0.13791383901062862,1.303330379769675
1781551512772357888,1.3576929569244385,-1.0696414709091187,-0.3783220648765564,0.14382874965667725,0.11493875086307526,-0.49558115005493164,-0.8609229922294617,0.08722493797540665,-0.03270864486694336,0.07771992683410645,-0.7554818241008979,-0.16414819685890167,-0.20638280094847117,-0.5997573072211014,0.5185037921349868,0.1327215903513839,1.3067401874392648
1781551512782392064,1.3677270412445068,-1.0071258544921875,-0.4429364800453186,0.09287341684103012,0.11068873852491379,-0.48683038353919983,-0.8664549589157104,0.05973668396472931,0.014815002679824829,0.12681567668914795,-0.756351206153112,-0.16164042712420557,-0.2016058041624536,-0.6009661455848418,0.508457422031567,0.12706076280956216,1.309771278162836
1781551512792425984,1.377760887145996,-0.7065284848213196,-0.35163557529449463,0.1308239996433258,0.10683973878622055,-0.47916096448898315,-0.8712003231048584,0.026049062609672546,0.08263084292411804,0.13410931825637817,-0.7572020462383167,-0.159533019568374,-0.19735512172715536,-0.601868083815174,0.4996985341042185,0.12202580074790387,1.3120204406362064
1781551512802459904,1.3877949714660645,-0.4325934052467346,-0.3662760555744171,0.06530570983886719,0.10306287556886673,-0.4743691086769104,-0.8742722868919373,0.07731125503778458,0.0963326096534729,0.10178083181381226,-0.7576430045816329,-0.1586204421262804,-0.19417369152124,-0.6025887870624922,0.49424724423477506,0.11734263266880038,1.3141590775968595
1781551512812493824,1.3978288173675537,0.10226283967494965,-0.29476842284202576,0.09037670493125916,0.09985590726137161,-0.4729768931865692,-0.8753980398178101,0.10461187362670898,0.08519002795219421,0.09999215602874756,-0.757891614936364,-0.15904768513268083,-0.19236638972067188,-0.6027432586564992,0.4926664435262764,0.11357823017181433,1.3151374639617623
1781551512822529536,1.4078645706176758,0.14698104560375214,-0.1738840937614441,-0.0169375017285347,0.0975525826215744,-0.47457456588745117,-0.8747928142547607,0.1274840533733368,0.03188657760620117,0.15849947929382324,-0.7578321578687607,-0.16047954105114562,-0.19196328750786787,-0.6025669064055496,0.49448063510937235,0.11105623643035356,1.3154574793068312
1781551512832563712,1.4178986549377441,-0.061731692403554916,-0.13389606773853302,-0.0076417382806539536,0.0963948667049408,-0.4748075604438782,-0.8747947216033936,0.1029001846909523,-0.06706255674362183,0.23284220695495605,-0.7580407189530288,-0.16101193000848568,-0.19151447652766157,-0.6023052939226821,0.49474536440633265,0.10974864766071725,1.3150818616008004
1781551512842597376,1.4279325008392334,-0.16682162880897522,-0.2550525665283203,0.1488887518644333,0.0944720134139061,-0.47391852736473083,-0.8754863142967224,0.1496991366147995,-0.29100456833839417,0.013410508632659912,-0.758084197495155,-0.16121003887356433,-0.1904420494355824,-0.602537537743212,0.49373547914875787,0.1074921167165158,1.316030717251742
1781551512852631552,1.4379665851593018,-0.26448747515678406,-0.5045055150985718,0.12134101241827011,0.09035234898328781,-0.4721277058124542,-0.8768876194953918,0.2767283320426941,-0.4227697551250458,-0.18291157484054565,-0.7581514212115456,-0.16168189702025035,-0.18818915731723335,-0.6030341402434715,0.4917028588199633,0.10267520951614736,1.3180750082305484
1781551512862665728,1.4480006694793701,-0.4573730528354645,-0.7114722728729248,-0.17292682826519012,0.08509580045938492,-0.46913519501686096,-0.8790169954299927,0.3270593583583832,-0.30106744170188904,-0.07949435710906982,-0.7590712079749826,-0.16222029759788695,-0.18486773953830707,-0.6027598297450023,0.4883112848185518,0.09650718022937245,1.3181760264064417
1781551512872699392,1.4580345153808594,-0.8622872233390808,-0.7968469858169556,-0.13549824059009552,0.07921923696994781,-0.46306735277175903,-0.8827757239341736,0.2581678330898285,-0.07186001539230347,-0.06703811883926392,-0.7608820015423876,-0.16180727404635722,-0.1800848363798087,-0.602035315833359,0.4814528381174368,0.08949906850667012,1.3167606658057343
1781551512882733568,1.4680685997009277,-0.869369626045227,-0.6954311728477478,0.156999409198761,0.07238350808620453,-0.4551682472229004,-0.8874584436416626,0.13972890377044678,-0.1796431541442871,0.1122509241104126,-0.7622377767301824,-0.1607200275994111,-0.17447018801696376,-0.6022647829645914,0.47256116708545765,0.08138255822249361,1.3177784860900081
1781551512892767488,1.478102445602417,-0.988330602645874,-0.5417672991752625,0.11885654926300049,0.06617236882448196,-0.44736865162849426,-0.8918982744216919,0.017949342727661133,-0.38450998067855835,0.0690680742263794,-0.7629790542232846,-0.15932134991328367,-0.16931500655640452,-0.6031685001113484,0.46382098708541536,0.07405704518400912,1.3204001785370663
1781551512902801408,1.4881365299224854,-1.4026356935501099,-0.5824511051177979,-0.035698674619197845,0.061034440994262695,-0.43645262718200684,-0.89765465259552,0.008637189865112305,-0.30059266090393066,0.01847374439239502,-0.7643038024977556,-0.1563641220884201,-0.1634714790399624,-0.6038767195936154,0.4516521652473957,0.0678887393791502,1.3217480314762502
1781551512912835584,1.4981706142425537,-1.37998366355896,-0.6177731156349182,-0.07721734791994095,0.05586952716112137,-0.4237363338470459,-0.9040609002113342,0.08510643243789673,-0.04243496060371399,-0.09210914373397827,-0.7660631114348838,-0.15275080639606314,-0.1569609393595399,-0.6042994072228932,0.43756631054136647,0.06171992050125513,1.3220678540593773
1781551512922869504,1.508204460144043,-1.3179455995559692,-0.6567862629890442,-0.03820018097758293,0.05031850188970566,-0.41149643063545227,-0.9100212454795837,0.11026499420404434,0.21650436520576477,-0.17739629745483398,-0.7677648977965629,-0.14947985954064105,-0.1504830050556063,-0.6046053165764286,0.4240953346848691,0.05523751636569487,1.32223466071711
1781551512932903424,1.5182385444641113,-1.3368412256240845,-0.6364763975143433,0.054144397377967834,0.04434283822774887,-0.39939582347869873,-0.9157055616378784,0.07281413674354553,0.23000803589820862,-0.05341058969497681,-0.7691888702910329,-0.14635700756615072,-0.14396818822395374,-0.6051456691519143,0.4108577196528716,0.048386978062606084,1.3231124459894228
1781551512942937600,1.5282726287841797,-1.5373873710632324,-0.5672429800033569,-0.0003995379665866494,0.03862026333808899,-0.38632267713546753,-0.9215548038482666,-0.04724147915840149,-0.029235154390335083,0.1289064884185791,-0.770531671437811,-0.14273632836256814,-0.13729145249723296,-0.6058533303247806,0.3966414156798133,0.04188321724363299,1.3242191211640175
1781551512952971520,1.538306474685669,-1.9660345315933228,-0.4894987642765045,-0.003874430665746331,0.033805638551712036,-0.37016531825065613,-0.928350567817688,-0.16593149304389954,-0.23179388046264648,0.21564310789108276,-0.7721595168573671,-0.13758944136847398,-0.12997634564960037,-0.606584725782098,0.3791869812130708,0.03639864848536438,1.324773511531106
1781551512963005440,1.5483405590057373,-2.2964205741882324,-0.4160671532154083,0.10151591151952744,0.029340749606490135,-0.3500044345855713,-0.9362884163856506,-0.2192668914794922,-0.2096574306488037,0.32172542810440063,-0.7737443179853748,-0.130651812429655,-0.12159724866922106,-0.6078354648250659,0.3575758384646489,0.03132704685905977,1.326106469929258
1781551512973039616,1.5583746433258057,-2.1469976902008057,-0.2686089873313904,0.1921861618757248,0.02559618279337883,-0.32894137501716614,-0.9440034031867981,-0.25884202122688293,-0.08721157908439636,0.2828858494758606,-0.7749266898844734,-0.12309883269470417,-0.11333568547520637,-0.6095001423700105,0.33518234696734256,0.02710786117272502,1.3283558573226897
1781551512983073536,1.568408489227295,-2.048527956008911,-0.02800438553094864,0.33578965067863464,0.023329846560955048,-0.3092727065086365,-0.9506871700286865,-0.25846779346466064,0.06920620799064636,0.23602652549743652,-0.7754536200002039,-0.11563047091104196,-0.10623562558262654,-0.6115678423473306,0.31442816203558893,0.024535057238210502,1.331684086003528
1781551512993107456,1.5784425735473633,-2.148923397064209,0.14532890915870667,0.47268491983413696,0.022796787321567535,-0.28924044966697693,-0.9569849967956543,-0.22254960238933563,0.15517672896385193,0.1693415641784668,-0.7753305620894378,-0.10743724520195379,-0.09982356877007564,-0.6142922743517575,0.2934332807866649,0.023816964352349975,1.3365331178669402
1781551513003141632,1.5884766578674316,-2.2953104972839355,0.17390570044517517,0.5142843127250671,0.023008037358522415,-0.26815590262413025,-0.9631007313728333,-0.1968056559562683,0.06944069266319275,0.13497573137283325,-0.7748454913843454,-0.09860653258134551,-0.09341508672723245,-0.6173854698403373,0.27147830162910846,0.023884999847217987,1.3422929612878447
1781551513013175552,1.598510503768921,-2.6424269676208496,0.06265001744031906,0.5134003758430481,0.022910069674253464,-0.24434518814086914,-0.9694176316261292,-0.16776175796985626,0.037619128823280334,0.13325130939483643,-0.7743555817529599,-0.08885530005717156,-0.08599950517752868,-0.6205500638856168,0.24684435824261738,0.023628418495900215,1.3482277669392164
1781551513023209472,1.6085445880889893,-2.910804033279419,-0.061470333486795425,0.467042475938797,0.021728547289967537,-0.21726764738559723,-0.9758701920509338,-0.1532745659351349,0.17645040154457092,0.1921330690383911,-0.7739940117449804,-0.07825113009708438,-0.07708217855656559,-0.6235931793884025,0.21901438063724124,0.02226213854152427,1.3539445153299972
1781551513033243392,1.6185784339904785,-3.3359127044677734,-0.07084359228610992,0.46009987592697144,0.01966591365635395,-0.1870882362127304,-0.9821462631225586,-0.2406742125749588,0.3781282901763916,0.4441213607788086,-0.7737823884583092,-0.06682026418169007,-0.0667976842451587,-0.6263656055626103,0.18819719930794027,0.02002073046047492,1.3591065034391605
1781551513043277568,1.6286125183105469,-2.3808817863464355,-0.01762351579964161,0.968804121017456,0.018203984946012497,-0.15754488110542297,-0.9873440265655518,-0.3696444034576416,0.4463784992694855,0.22559475898742676,-0.7724350644089762,-0.055462469636867254,-0.057025449719990316,-0.630092114835994,0.1582039945546552,0.018435237884607186,1.3670469411628425
1781551513053311488,1.6386466026306152,-1.4210703372955322,0.5394625067710876,0.5004627704620361,0.01962188445031643,-0.1399824470281601,-0.9899595379829407,-0.495543509721756,0.2653791904449463,-0.3392793536186218,-0.7703917918704349,-0.04794494214189689,-0.05216811263587852,-0.6336214499052053,0.1404436902828569,0.019818299861218653,1.3751872719317937
1781551513063346688,1.648681640625,-1.8299307823181152,0.5888864994049072,0.6333371996879578,0.025305861607193947,-0.12400351464748383,-0.9919590353965759,-0.2946845293045044,0.365946888923645,-0.17022663354873657,-0.7690236258215957,-0.039792683911017826,-0.04936619767293462,-0.6360677121745973,0.12432353402692974,0.025505462549587188,1.380521713334645
1781551513073380352,1.6587154865264893,-1.7334023714065552,-0.05122515186667442,0.8322601318359375,0.026789501309394836,-0.10587562620639801,-0.9940184354782104,0.17735783755779266,0.4751993715763092,-0.022964537143707275,-0.7667700052446907,-0.032120064579301784,-0.04426146567639165,-0.6395881701263992,0.10607443309459542,0.026944186651414608,1.388989629766927
1781551513083414528,1.6687495708465576,-1.5381442308425903,-0.05084431916475296,0.40221261978149414,0.02512682043015957,-0.09024728834629059,-0.9956023693084717,-0.02781236730515957,0.09671701490879059,0.15130305290222168,-0.7650614404918193,-0.02651183156160071,-0.03867738423589428,-0.6422477806093257,0.09037024390639775,0.02523245095372259,1.3955596081431112
1781551513093448704,1.678783655166626,-2.0054478645324707,0.17044958472251892,0.7266681790351868,0.025759516283869743,-0.07260573655366898,-0.9970279932022095,-0.3313625454902649,-0.07860885560512543,0.18637436628341675,-0.7635587470553226,-0.01944614710216307,-0.03328425884476944,-0.6445867708963291,0.07266968041415253,0.025830554429551573,1.401280906545582
1781551513103482368,1.6888175010681152,-2.5872626304626465,0.3435153663158417,0.839026927947998,0.027519751340150833,-0.05013733357191086,-0.9983631372451782,-0.31324058771133423,-0.07179564982652664,0.11645090579986572,-0.7610274307118743,-0.010168647728149847,-0.02674024478044679,-0.6480885873794384,0.05015836391096768,0.02755789269635896,1.4101495042977326
1781551513113516544,1.6988515853881836,-3.103532552719116,0.3800218403339386,1.060412049293518,0.03132075071334839,-0.02135474421083927,-0.9992812275886536,-0.1758977770805359,-0.05947106331586838,0.21800071001052856,-0.7579859241372382,0.0021179556261270954,-0.018838711607238313,-0.6519953799029419,0.021356368140561802,0.031333021645252,1.420400763748341
1781551513123550720,1.708885669708252,-2.8172218799591064,0.22528207302093506,0.9463600516319275,0.034096453338861465,0.008481738157570362,-0.9993825554847717,-0.034889910370111465,-0.16581511497497559,0.012947618961334229,-0.7544045087342807,0.014390387216218983,-0.010081621308297171,-0.6561745917556093,-0.008481840203461167,0.03410429131609844,1.4318894265015356
1781551513133584384,1.7189195156097412,-2.5529792308807373,0.2016846090555191,0.74689781665802,0.03652630373835564,0.03479460999369621,-0.9987267851829529,-0.05498943850398064,-0.126332089304924,-0.24541383981704712,-0.751426841637208,0.025130314597166064,-0.0022542263415956595,-0.6593338269597143,-0.03480163508963967,0.03655657773010968,1.4410596061282648
1781551513143618560,1.7289535999298096,-2.1899492740631104,0.044916026294231415,0.6829342842102051,0.037957824766635895,0.05855024605989456,-0.9975625872612,-0.0008331909775733948,0.16290056705474854,-0.27448636293411255,-0.7486570940750679,0.0345238565275063,0.005178847682515155,-0.6620376825590107,-0.05858374954308918,0.038032223737679026,1.4492609508308953
1781551513153652480,1.7389874458312988,-1.595847487449646,0.13508281111717224,0.5524466037750244,0.03917925804853439,0.07723203301429749,-0.9962430596351624,0.021657533943653107,0.2724994122982025,-0.37114280462265015,-0.746273245225674,0.0419087927589377,0.011051350748194055,-0.6642271187153573,-0.07730902087980816,0.03930675272354594,1.4561113072129994
1781551513163686400,1.7490215301513672,-1.1473625898361206,0.17879833281040192,0.5639844536781311,0.04126572981476784,0.09061631560325623,-0.9950305819511414,0.021615739911794662,0.17249098420143127,-0.19964104890823364,-0.7441081194757573,0.04757794088894269,0.014868017545565819,-0.6661969105720416,-0.09074079267387145,0.04144806944983564,1.462302083017516
1781551513173720576,1.7590556144714355,-0.939534604549408,0.2661152780056,0.5549299716949463,0.04395942762494087,0.10059099644422531,-0.9939562678337097,-0.027388382703065872,-0.11578875035047531,-0.05424624681472778,-0.7420101880747562,0.052162730648371854,0.017347231193071473,-0.6681309609387166,-0.1007614159250014,0.04419791949206751,1.4683382472193924
1781551513183754496,1.7690894603729248,-0.9644447565078735,0.26108670234680176,0.5595239400863647,0.047268956899642944,0.10970354825258255,-0.9928397536277771,-0.054608434438705444,-0.33881425857543945,0.0267142653465271,-0.7398872545461942,0.056623476553042965,0.019336618616307075,-0.6700647560578865,-0.10992479543579739,0.047573931404223745,1.4744527493833113
1781551513193788416,1.7791235446929932,-1.2556432485580444,0.19126059114933014,0.397182434797287,0.05005268752574921,0.12031090259552002,-0.9914736747741699,-0.03218464553356171,-0.343546986579895,-0.11423921585083008,-0.737954915563759,0.06146383235484435,0.022031063509734224,-0.6716840486421264,-0.12060305359295156,0.05044030390110889,1.4798862528157952
1781551513203822592,1.7891576290130615,-1.4901522397994995,0.07187454402446747,0.3229140639305115,0.05183667317032814,0.13392044603824615,-0.9896354079246521,0.07484179735183716,-0.08960893750190735,-0.19386672973632812,-0.736334837091714,0.06709007949801103,0.02609997295111817,-0.6727768902550189,-0.13432401189178136,0.05233173885890747,1.4841683041039293
1781551513213856512,1.7991914749145508,-1.5067343711853027,-0.006085769739001989,0.29602253437042236,0.05251479148864746,0.14881941676139832,-0.987468957901001,0.12959885597229004,0.10002090036869049,-0.15784043073654175,-0.7347676477926199,0.0728193035223603,0.03103001288441335,-0.6736846341061735,-0.1493742932051165,0.053131156088201674,1.4880893985966264
1781551513223890432,1.8092255592346191,-1.3758453130722046,0.04936523735523224,0.309357225894928,0.05310919135808945,0.1627950817346573,-0.9852294921875,0.047553036361932755,0.03576752543449402,-0.06452935934066772,-0.733220631465251,0.0781717710874797,0.0356990509502034,-0.6745385960419114,-0.1635228719783919,0.053853279809334395,1.4918892231779906
1781551513233924608,1.8192596435546875,-1.3251144886016846,0.12724991142749786,0.3411093056201935,0.05455633997917175,0.17595812678337097,-0.9828847050666809,-0.027044743299484253,-0.11385485529899597,0.06735736131668091,-0.73158394457917,0.08350358757093315,0.039809513014549096,-0.6754460812546159,-0.17687899672199703,0.055449449238637136,1.4959604937084312
1781551513243958528,1.8292934894561768,-1.3577136993408203,0.14057184755802155,0.3074227273464203,0.05649105831980705,0.18884317576885223,-0.9803810715675354,-0.024295013397932053,-0.21714822947978973,0.0867958664894104,-0.7299303921306485,0.08889587169973992,0.04366915143340336,-0.676307793447811,-0.1899839887861676,0.05755788779383374,1.500054990405327
1781551513253992448,1.8393275737762451,-1.357884407043457,0.07266336679458618,0.2380862683057785,0.05806786194443703,0.20218543708324432,-0.977624237537384,0.015510015189647675,-0.17887002229690552,0.025918304920196533,-0.7284029775483314,0.09434585547105093,0.04781981990501103,-0.676935199904499,-0.2035889388485802,0.05932721006283454,1.5036448633952426
1781551513264026624,1.8493616580963135,-1.1753548383712769,0.031241096556186676,0.21400783956050873,0.059002600610256195,0.21448442339897156,-0.9749436378479004,0.056979455053806305,-0.03696368634700775,-0.09442275762557983,-0.72702695127854,0.09919561287354259,0.05184982070916139,-0.6774242782043197,-0.21616393725793037,0.060445260797936474,1.506749887673979
1781551513274060544,1.8593955039978027,-0.6878839731216431,-0.0094101931899786,0.21606193482875824,0.05961589887738228,0.2237781286239624,-0.9728151559829712,0.07107563316822052,0.0777355432510376,-0.1270841360092163,-0.7258118930100695,0.1028159774876748,0.05496640143339189,-0.6779415002394922,-0.2256891903711047,0.061205297053310605,1.5095576286574655
1781551513284094464,1.869429588317871,-0.21452923119068146,-0.014372460544109344,0.150180384516716,0.059876758605241776,0.22773562371730804,-0.9718802571296692,0.06506220251321793,0.10052670538425446,-0.058393120765686035,-0.7249519912305887,0.10432923072584051,0.05634957892478265,-0.6785166311389311,-0.22975156124260282,0.0615314182518929,1.5117501871041659
1781551513294128384,1.8794634342193604,-0.044033922255039215,-0.026704493910074234,0.04443690925836563,0.0599101223051548,0.22885924577713013,-0.9716142416000366,0.0554310642182827,0.12750977277755737,0.03885972499847412,-0.724535877149459,0.1047301595718094,0.05678445108007104,-0.6788630254088664,-0.23090566405301124,0.06158243253260835,1.5128743617764593
1781551513304162560,1.8894975185394287,-0.20398123562335968,-0.0069124153815209866,-0.11728141456842422,0.05961906164884567,0.22985988855361938,-0.9713959097862244,0.03585518151521683,0.11228793859481812,0.023230016231536865,-0.7246066188321248,0.10501282627792789,0.057221970372720365,-0.6787070825824669,-0.23193371671288654,0.061297737429739825,1.5125465634484634
1781551513314196480,1.899531602859497,-0.3789783716201782,-0.0058471509255468845,-0.16136978566646576,0.059239257127046585,0.2328505963087082,-0.970706582069397,0.029276981949806213,0.09113927185535431,0.015216469764709473,-0.7249581950510261,0.10604101973663614,0.05832666123979182,-0.6780774006439797,-0.2350078237585917,0.06095135044916945,1.5111909271601496
1781551513324230400,1.9095654487609863,-0.43082770705223083,-0.023420153185725212,-0.1533491313457489,0.058701369911432266,0.23692792654037476,-0.9697521924972534,0.027724415063858032,0.0005903840065002441,0.007807612419128418,-0.7252707223706798,0.10742501803618319,0.05986460561433925,-0.6773909061836522,-0.23920251118886934,0.060458568530361766,1.5098206239434446
1781551513334264576,1.9195995330810547,-0.4481702148914337,-0.04911086708307266,-0.1222870945930481,0.05798492953181267,0.2412084937095642,-0.9687395095825195,0.021528620272874832,-0.11248534917831421,-0.04146862030029297,-0.7255001606348342,0.10882055526244114,0.0615494770792635,-0.6767712287008286,-0.24361091819577393,0.05978473154843767,1.5086447943414387
1781551513344298496,1.929633617401123,-0.5649197101593018,-0.045992039144039154,-0.03267039358615875,0.057298630475997925,0.24618645012378693,-0.9675273299217224,0.020597487688064575,-0.13093681633472443,-0.0013294816017150879,-0.7254695716159291,0.11047117630671123,0.06350168296439769,-0.6763561021265916,-0.24874363373765299,0.05915263036656754,1.5081514862179959
1781551513354332416,1.9396674633026123,-0.7201647162437439,-0.008410176262259483,-0.03885824978351593,0.05693390965461731,0.25227299332618713,-0.9659797549247742,-0.01593353971838951,-0.13027894496917725,0.04541701078414917,-0.7252036534531254,0.11263621952920702,0.06575109181922059,-0.6760692677024874,-0.255028493680936,0.05887092354118827,1.5082469285745117
1781551513364366592,1.9497015476226807,-1.0098767280578613,0.03642493858933449,-0.12214487791061401,0.05685771629214287,0.2606712877750397,-0.9637519121170044,-0.04323161765933037,-0.11224904656410217,0.032477498054504395,-0.7249945413959259,0.11579409489298638,0.06867157936022725,-0.6754694854727474,-0.26371746295861437,0.058927912847590976,1.5079170521469236
1781551513374401536,1.9597365856170654,-1.065042495727539,-0.01747770793735981,-0.08338097482919693,0.056716110557317734,0.27103734016418457,-0.9608964920043945,-0.005583904683589935,-0.08936619758605957,-0.01893138885498047,-0.7247421643288227,0.11968890962379726,0.0722933135128218,-0.6746829622063509,-0.27447053933221033,0.058955762635078006,1.507428661545384
1781551513384435456,1.9697704315185547,-0.9568126797676086,-0.07903534919023514,-0.07662826031446457,0.05603593587875366,0.280666321516037,-0.9581682682037354,0.01246076449751854,-0.08800885081291199,-0.05086493492126465,-0.7243624462511903,0.12311342737347031,0.0758878040957619,-0.6740795537928136,-0.28448826399607924,0.058415819832199796,1.5072827742026262
1781551513394469376,1.979804515838623,-0.894705593585968,-0.11343766003847122,-0.11343368142843246,0.0547574944794178,0.289569228887558,-0.9555894732475281,-0.019875895231962204,-0.03619703650474548,-0.05307745933532715,-0.7240675516413884,0.1260711974797741,0.07944370366287465,-0.6734397446037536,-0.2937767467837178,0.05723972336931336,1.506844824866654
1781551513404503552,1.9898386001586914,-0.8648289442062378,-0.10200817137956619,-0.12703444063663483,0.053341321647167206,0.2980896830558777,-0.9530463218688965,-0.029522351920604706,0.007650643587112427,-0.07950067520141602,-0.7238605395391429,0.12885460105892874,0.08290562909598233,-0.672717726977911,-0.3026907388872292,0.055910954340305935,1.5061181866210391
1781551513414537472,1.9998724460601807,-0.733837902545929,-0.08277948200702667,-0.15087106823921204,0.05202954635024071,0.3058798015117645,-0.9506474137306213,-0.01765149086713791,0.013395100831985474,-0.04355424642562866,-0.7237522083821221,0.13141381908168906,0.0860622368417579,-0.6719423269188887,-0.3108623869128129,0.05467609706275783,1.5051575739962064
1781551513424571392,2.009906530380249,-0.5635188817977905,-0.035558175295591354,-0.19399882853031158,0.050889596343040466,0.31212738156318665,-0.948676347732544,0.007948298007249832,0.033941954374313354,0.010169267654418945,-0.7238759244940205,0.13347122403592732,0.08858483532236651,-0.6710752016189394,-0.3174314677227362,0.05359137652020942,1.5037099058198617
1781551513434605568,2.0199406147003174,-0.3605996370315552,-0.03025861643254757,-0.22038356959819794,0.04994595795869827,0.3166346251964569,-0.9472317099571228,0.031932707875967026,0.06391957402229309,0.008694112300872803,-0.7242577520326338,0.13495829607025456,0.09039027472672999,-0.6701243229522231,-0.3221794547976768,0.05267955843118212,1.5017525386137753
1781551513444639488,2.0299744606018066,-0.16005639731884003,0.014089939184486866,-0.20874661207199097,0.04911677911877632,0.3191053867340088,-0.946445643901825,0.027848560363054276,0.04095625877380371,-0.06008511781692505,-0.7248346783281601,0.13571809526268283,0.09142094069247969,-0.6692066903662169,-0.3247853593634413,0.05184952493185537,1.499527154594767
1781551513454673408,2.040008544921875,-0.3670612573623657,-0.04378068447113037,-0.12577609717845917,0.04853185638785362,0.3216383457183838,-0.9456180334091187,0.012381229549646378,-0.04661393165588379,-0.0024563074111938477,-0.725196278466964,0.13656055929706828,0.09242401602198558,-0.6685054743236971,-0.3274592628136267,0.051277907237211366,1.4979618594630406
1781551513464707584,2.0500426292419434,-0.7160029411315918,-0.1257181614637375,-0.13409660756587982,0.04724236577749252,0.3265798091888428,-0.9439882040023804,-0.028489310294389725,-0.20701193809509277,-0.04882490634918213,-0.7252311126777758,0.1380651429170158,0.09457219242804621,-0.6678577806968028,-0.3326827173975585,0.05000378643921249,1.4968713736087547
1781551513474741504,2.0600764751434326,-1.4637494087219238,-0.17733022570610046,-0.1194247230887413,0.045383114367723465,0.33695122599601746,-0.9404276609420776,-0.05241741985082626,-0.25723934173583984,-0.023057997226715088,-0.7248311778023674,0.14146438860117264,0.09886345174085824,-0.6669584484473277,-0.34367688185800616,0.048220542353685635,1.4960513776802244
1781551513484775424,2.070110559463501,-2.0590593814849854,-0.24985262751579285,-0.08055402338504791,0.042999058961868286,0.35364243388175964,-0.9343918561935425,-0.09295633435249329,-0.26945969462394714,0.10147559642791748,-0.7237812933045412,0.14712122267359357,0.10563820254156323,-0.6658351656841329,-0.3614623211114172,0.04598578664562917,1.4958499727754335
1781551513494809600,2.0801446437835693,-2.457667589187622,-0.2375665307044983,0.013500564731657505,0.04050007462501526,0.37481489777565,-0.9262146353721619,-0.15161457657814026,-0.269864946603775,0.10820621252059937,-0.722053391320856,0.1544762094404648,0.11414808913397494,-0.6646398928761161,-0.3841970999608775,0.04369860837751454,1.496537769401196
1781551513504843520,2.0901784896850586,-2.4970951080322266,-0.07690201699733734,0.09300737828016281,0.03917338326573372,0.39798012375831604,-0.9165573120117188,-0.18605449795722961,-0.16314736008644104,0.05611419677734375,-0.7197618185838475,0.1630225605660886,0.12306499025510854,-0.6634920492454435,-0.4093140273803929,0.04271370334329749,1.4983498087291307
1781551513514877440,2.100212574005127,-2.1270675659179688,0.17067648470401764,0.10163868218660355,0.04004448279738426,0.41934311389923096,-0.906944215297699,-0.19357842206954956,-0.009934544563293457,0.045600831508636475,-0.7175076239157195,0.17169027324622918,0.13057698908132637,-0.6623102375751396,-0.43272161836915823,0.04412453277574919,1.5005322575538254
1781551513524911616,2.1102466583251953,-1.3426204919815063,0.22592084109783173,0.14072775840759277,0.04242928698658943,0.4351649582386017,-0.8993504643440247,-0.12471993267536163,0.14190715551376343,0.026318848133087158,-0.7156915804065715,0.1787489877300069,0.13554917738874406,-0.6614082092259291,-0.4502214954840093,0.047142745566025115,1.5027971285847932
1781551513534945536,2.1202805042266846,-0.5795300602912903,0.09588240087032318,0.10282458364963531,0.04451605677604675,0.443605899810791,-0.8951156735420227,-0.032263241708278656,0.2640509605407715,0.03139197826385498,-0.7145472376807575,0.1827880325601245,0.13795174387574602,-0.6610447271312095,-0.45961814587977307,0.049691239939675405,1.5046743382765455
1781551513544979456,2.130314588546753,-0.174871563911438,0.015006732195615768,0.10698577761650085,0.045318473130464554,0.4467243254184723,-0.8935231566429138,0.019882339984178543,0.3188091218471527,-0.03273111581802368,-0.7139146869066673,0.18425138378792,0.1388879113057023,-0.6611258726936998,-0.46310065832572433,0.05067543583219782,1.5060032093494775
1781551513555013376,2.140348434448242,-0.08378559350967407,-0.009846286848187447,0.14882910251617432,0.04594488814473152,0.4475584924221039,-0.8930736184120178,-0.014801707118749619,0.19401252269744873,-0.10356944799423218,-0.7133967970341067,0.18471550719674856,0.13908050391526314,-0.6615147322704882,-0.46403326899235775,0.05140048664738639,1.5075093687366594
1781551513565047552,2.1503825187683105,-0.5511610507965088,-0.026760289445519447,0.11440028250217438,0.04637671634554863,0.4500589966773987,-0.8917937278747559,-0.05382300540804863,-0.06622415781021118,-0.14942026138305664,-0.7126737445209276,0.18576965573979431,0.13997416586382355,-0.6618103008040611,-0.4668314096797168,0.05195705733737632,1.5091743535856108
1781551513575081472,2.160416603088379,-1.273526906967163,-0.017420051619410515,0.17685221135616302,0.046780966222286224,0.45806536078453064,-0.8876866698265076,-0.06170405447483063,-0.29270586371421814,-0.17395883798599243,-0.7113590155776607,0.189015815720084,0.14293240923145847,-0.6616734184045737,-0.4758175784724472,0.05265115537964819,1.511225139885633
1781551513585115392,2.170450448989868,-1.9123069047927856,-0.1326798051595688,0.21914108097553253,0.047155868262052536,0.47228798270225525,-0.8801820278167725,-0.018881332129240036,-0.39401039481163025,-0.24623703956604004,-0.7090802925976123,0.19470108122896435,0.14832556718016654,-0.6612837960075705,-0.4918847039046551,0.05352395965922527,1.5145061539373266
1781551513595149568,2.1804845333099365,-2.0397539138793945,-0.2617299258708954,0.20772463083267212,0.04634161666035652,0.4897248148918152,-0.8706446290016174,0.04605035483837128,-0.3080841898918152,-0.2531040906906128,-0.7062250259747731,0.2012543154793024,0.1554811069420864,-0.6607334431256194,-0.5117740871147081,0.0531766052394893,1.5181774471059708
1781551513605183488,2.190518617630005,-1.7246800661087036,-0.27757734060287476,0.21758659183979034,0.04495770484209061,0.506259024143219,-0.8612087965011597,0.06156390905380249,-0.1006956696510315,-0.13544952869415283,-0.7033546204785,0.20726411786135418,0.1625951484342495,-0.6602247535184205,-0.5308412903846877,0.0521556814331817,1.5217383545845304
1781551513615217408,2.200552463531494,-0.9350258708000183,-0.2471373975276947,0.21763771772384644,0.0436452180147171,0.5176300406455994,-0.8544905781745911,0.013651534914970398,0.03540945053100586,-0.03483736515045166,-0.700996058155061,0.21120126068380202,0.16777581339554182,-0.660189203731398,-0.5440787256046385,0.05103311844800516,1.525095192298644
1781551513625251584,2.2105865478515625,-0.2840220332145691,-0.015989400446414948,0.17923866212368011,0.04359932616353035,0.5227748155593872,-0.8513551354408264,-0.024403762072324753,0.1707829236984253,-0.040597379207611084,-0.6995846232732635,0.21309932155787423,0.17003264857270392,-0.6604989989515109,-0.5501027294249871,0.05116697642998687,1.5277792392772205
1781551513635286528,2.2206215858459473,0.34517985582351685,0.057747405022382736,0.15328402817249298,0.04458606615662575,0.5222150683403015,-0.8516475558280945,0.005279645323753357,0.2640244960784912,0.04284018278121948,-0.6990977455396062,0.2130839292075981,0.16962156070308995,-0.6611248639932976,-0.549446236136824,0.0523049705267582,1.5297227016773849
1781551513645320448,2.2306554317474365,0.6144886016845703,0.14503464102745056,0.10765902698040009,0.04619373008608818,0.5179668068885803,-0.8541525602340698,0.05739818513393402,0.3185200095176697,0.07593905925750732,-0.6992754255746879,0.211836022269513,0.16747903409729242,-0.6618838273780923,-0.544472311414595,0.054028723686112216,1.5309558067789057
1781551513655354624,2.240689516067505,0.7415338754653931,0.11706691980361938,-0.03065304644405842,0.04750934988260269,0.5119408369064331,-0.8577059507369995,0.08127482980489731,0.2380744218826294,0.09819972515106201,-0.6999799821806219,0.2098407169018405,0.16466300330415579,-0.6624809662436628,-0.5374426058899737,0.05533464043181056,1.531006014386032
1781551513665388544,2.2507236003875732,0.6734046339988708,0.08002101629972458,-0.12642218172550201,0.04789973795413971,0.5059672594070435,-0.8612216711044312,0.07549808919429779,0.10131728649139404,0.09677159786224365,-0.7010747468952433,0.20763870076325935,0.16209672169303263,-0.6626500112758765,-0.5305030219013706,0.05556111971982285,1.5295555441945878
1781551513675422464,2.2607574462890625,0.8614405989646912,-0.0058864327147603035,-0.1235148087143898,0.04753299802541733,0.4994652271270752,-0.865028977394104,0.09823420643806458,-0.035948991775512695,0.035515427589416504,-0.7023144786625709,0.20497551841612746,0.15959497667668865,-0.6627736002671476,-0.5229813786100256,0.054894398071949534,1.5275750710769187
1781551513685456640,2.270791530609131,0.8500763773918152,-0.04430173337459564,-0.08276045322418213,0.04680782929062843,0.49179792404174805,-0.8694502711296082,0.12285463511943817,-0.18257859349250793,-0.0026352405548095703,-0.7035431374718321,0.20168556257867173,0.1568368170514673,-0.6631380999342441,-0.514153448098058,0.05378419696676486,1.5258274908687617
1781551513695490560,2.280825614929199,0.7671162486076355,-0.07736340910196304,-0.10355521738529205,0.04578138887882233,0.48487210273742676,-0.873386025428772,0.11760972440242767,-0.23955655097961426,0.007403969764709473,-0.7045842513099837,0.19857623782165096,0.1545136729432172,-0.6635164261305722,-0.5062169207746559,0.05237034717803571,1.5243268796005085
1781551513705524480,2.2908594608306885,0.6912821531295776,-0.09737546741962433,-0.09667067974805832,0.04451523721218109,0.47848162055015564,-0.876968502998352,0.09928359091281891,-0.12809404730796814,0.01277172565460205,-0.7056022021885067,0.19561660211156034,0.15247917044398632,-0.6637844407138537,-0.4989247172325593,0.05071683091256354,1.5226638171212823
1781551513715558656,2.300893545150757,0.7988547086715698,-0.1254933923482895,-0.1041238009929657,0.043019797652959824,0.4721079170703888,-0.8804904222488403,0.11152121424674988,0.0891713798046112,-0.025271296501159668,-0.7065351821026895,0.192572692347683,0.1505674035175028,-0.6641183882139585,-0.4916804363560838,0.048820079897289655,1.5211752529157294
1781551513725592576,2.310927629470825,1.0136852264404297,-0.07764676958322525,-0.128607839345932,0.04151398688554764,0.46409234404563904,-0.8848134875297546,0.12068694084882736,0.25325387716293335,-0.05193883180618286,-0.7077230332337282,0.1888961566538114,0.14802530401881264,-0.6644810164753455,-0.4826096320152352,0.04688396377744625,1.5193318528617752
1781551513735626496,2.3209614753723145,1.2558752298355103,-0.011111954227089882,-0.1711616963148117,0.04048307240009308,0.4540642499923706,-0.8900487422943115,0.09983674436807632,0.316962331533432,0.0932043194770813,-0.7092529377975507,0.18463033588013855,0.14452427497316422,-0.6648192535372675,-0.4713216800210047,0.045452778344482386,1.5170604058320292
1781551513745660416,2.330995559692383,1.566182017326355,-0.15511654317378998,-0.06472819298505783,0.03926768898963928,0.44164806604385376,-0.8963286280632019,0.03710254654288292,0.30797043442726135,0.4222381114959717,-0.7108843741762083,0.17934177106913402,0.1402576589017895,-0.6654379607401412,-0.45743476816759887,0.04378148171193198,1.5149733683210143
1781551513755694592,2.341029644012451,2.167001724243164,-0.18857036530971527,-0.012544085271656513,0.03733917325735092,0.4245927333831787,-0.9046142101287842,-0.09161468595266342,0.2293837070465088,0.3468749523162842,-0.7125256754866106,0.17191445479027975,0.13467860052263853,-0.666794124492198,-0.4385120017175041,0.04125293612949595,1.5137044492557126
1781551513765728512,2.3510634899139404,1.4956308603286743,0.42905449867248535,-0.3016299605369568,0.03769490122795105,0.407026469707489,-0.912638247013092,-0.20133015513420105,0.183275043964386,0.02242523431777954,-0.7146735279586711,0.16524427459882038,0.1279656671540993,-0.667503465604509,-0.4191962979728689,0.041279761782311374,1.5113504021087003
1781551513775762432,2.361097574234009,1.082378625869751,0.21665595471858978,-0.026379473507404327,0.04047923907637596,0.39636552333831787,-0.917199969291687,-0.05112987384200096,0.24873030185699463,0.150445818901062,-0.7166372418922197,0.16224403408198435,0.12278795956601539,-0.6671064660912824,-0.407554716157362,0.04410487270752443,1.5083528320536976
1781551513785796608,2.371131658554077,1.586074709892273,-0.21715673804283142,0.002243649447336793,0.0404447503387928,0.38367760181427,-0.9225810170173645,0.1689973771572113,0.03654944896697998,0.0552104115486145,-0.7175337333010774,0.15724962025734,0.11824573473289844,-0.6681585520236514,-0.3937754140891457,0.04381064687395718,1.5083025254720348
1781551513795830528,2.3811655044555664,0.8633785843849182,-0.20171599090099335,0.08156270533800125,0.038177501410245895,0.37193402647972107,-0.927473783493042,-0.1254577785730362,-0.21533307433128357,0.5922229290008545,-0.7184473466094561,0.15188585431995916,0.11486430093328885,-0.6690070193172143,-0.3810916503079654,0.04113966564455438,1.5074952354076123
1781551513805864448,2.3911995887756348,0.5992342829704285,0.23272307217121124,0.4736279249191284,0.039087895303964615,0.36551418900489807,-0.9299846887588501,-0.3913675546646118,-0.27737942337989807,0.1599498987197876,-0.7179174968322363,0.14954417642865736,0.1124464351591604,-0.6705123138167673,-0.3741851682827589,0.042005965305520414,1.510489895162765
1781551513815898368,2.401233434677124,0.44650354981422424,0.649552047252655,0.3285841941833496,0.04507825896143913,0.3600499927997589,-0.9318433403968811,-0.26721569895744324,-0.2247655689716339,-0.3016771674156189,-0.71724795218017,0.14935688892445095,0.10849360460012324,-0.6719204300100559,-0.3683214705371879,0.048337680271349825,1.5145666214554807
1781551513825931520,2.411266565322876,0.13020339608192444,0.11159931868314743,0.6128425598144531,0.05056669935584068,0.3572636842727661,-0.9326336979866028,0.07952973991632462,-0.11190235614776611,0.4134686589241028,-0.7161389448003342,0.15000351153123018,0.1057453751208389,-0.6733957775108974,-0.36533659016718345,0.054166212282201004,1.5193025200042145
1781551513835965696,2.4213006496429443,-0.17468354105949402,-0.0705699548125267,0.7837674021720886,0.0527898445725441,0.35706016421318054,-0.9325884580612183,0.080922931432724,-0.33395835757255554,0.23562800884246826,-0.7136889490746186,0.15032402889057841,0.10539659734694186,-0.6759751562656034,-0.3651186857289031,0.056545378708228886,1.5269739727871685
1781551513845999616,2.4313347339630127,-0.4590681493282318,0.2645167112350464,0.8686327934265137,0.056655123829841614,0.3595432937145233,-0.9314069151878357,-0.11195297539234161,-0.5765843391418457,-0.05818659067153931,-0.7107019956102313,0.15220967972511304,0.1054929603110963,-0.6786796957096878,-0.36777842551644024,0.06075261411881148,1.536011496364464
1781551513856033536,2.441368579864502,-1.1721875667572021,0.19116179645061493,0.8133413195610046,0.06217923015356064,0.3662717640399933,-0.9284281134605408,-0.007171299308538437,-0.5205838680267334,-0.11528831720352173,-0.707314455979286,0.1563038186542105,0.10656017776905675,-0.6811168828764861,-0.3749991876192254,0.06687272444575992,1.5457559663551093
1781551513866067712,2.4514026641845703,-1.8349127769470215,-0.13342614471912384,0.6555458307266235,0.06526448577642441,0.3804168403148651,-0.9225093722343445,0.2555973529815674,-0.2350158393383026,-0.21997720003128052,-0.7035845852477289,0.16240148250798178,0.11122528230807036,-0.682805573418261,-0.390246987777842,0.07062901265301805,1.5547874551155465
1781551513876101632,2.4614367485046387,-1.3478610515594482,-0.32649001479148865,0.5674444437026978,0.06521409004926682,0.3949398398399353,-0.9163894653320312,0.2667866349220276,-0.0596432089805603,-0.08927154541015625,-0.6999974867779487,0.167544049617162,0.11719326985621879,-0.6842501465888302,-0.4060023792824519,0.07104439743368106,1.562674543980279
1781551513886136832,2.4714717864990234,-0.9298321604728699,-0.10694620013237,0.5193706750869751,0.06525332480669022,0.4050084352493286,-0.911981463432312,-0.013403944671154022,-0.015970349311828613,0.01999843120574951,-0.6970702693817296,0.17105747175002317,0.12144384853230564,-0.6856266262300326,-0.41698804857845106,0.07142941941266454,1.5693625268914806
1781551513896170496,2.4815056324005127,-0.4414108395576477,0.2960880696773529,0.4852880537509918,0.06815354526042938,0.4107612669467926,-0.9091920852661133,-0.2935411334037781,-0.10605853796005249,-0.15477269887924194,-0.6947546685150289,0.17399870008840768,0.12299755955942882,-0.6869585918628156,-0.4232888764407973,0.0748206251286964,1.57559518536708
1781551513906204672,2.491539716720581,-0.42206433415412903,0.4876772165298462,0.18916372954845428,0.07345836609601974,0.4143323600292206,-0.9071563482284546,-0.28058117628097534,-0.11493965983390808,-0.4007202386856079,-0.6934700025083838,0.1771384829168168,0.12265315362404665,-0.6875155820909871,-0.4272091080425542,0.0808002274542961,1.5797088778540225
1781551513916238592,2.5015735626220703,-0.25857365131378174,0.1666850745677948,-0.10486575961112976,0.07680589705705643,0.4174758791923523,-0.9054362177848816,0.019477061927318573,0.2197006344795227,-0.3029988408088684,-0.6932397530864295,0.17958401337513613,0.1226028948346526,-0.6871221352307361,-0.43066577861315347,0.08462491929090292,1.5804526980913793
1781551513926272512,2.5116076469421387,0.44651952385902405,-0.12653028964996338,-0.29179704189300537,0.07589736580848694,0.41723766922950745,-0.9056226015090942,0.12925705313682556,0.5172716379165649,-0.31389033794403076,-0.6940034655134255,0.17929138949983128,0.12265108115165237,-0.6864186724422987,-0.43040365375400363,0.08361144836825919,1.5780939384810568
1781551513936306688,2.521641731262207,1.3604490756988525,0.07336551696062088,-0.2567543685436249,0.07426218688488007,0.4088924527168274,-0.909555971622467,-0.11994700133800507,0.3153659701347351,-0.39381927251815796,-0.6957941127895594,0.1756699866057272,0.11984183575058402,-0.6860382983289192,-0.42124010247056276,0.08146593874926114,1.5741023152115279
1781551513946340608,2.5316755771636963,1.5386334657669067,0.3188287913799286,-0.20862917602062225,0.07522489130496979,0.39548030495643616,-0.9153887629508972,-0.2981710433959961,-0.11401668190956116,-0.3396008610725403,-0.6979934440993879,0.1710575159587431,0.11421451445394129,-0.6859296853882553,-0.40659072602047963,0.08199383915386382,1.570274171948077
1781551513956374528,2.5417096614837646,1.5717322826385498,0.2595893144607544,-0.226957306265831,0.07722222059965134,0.3813232183456421,-0.9212108254432678,-0.17715203762054443,-0.22170105576515198,-0.11060374975204468,-0.7002208713801317,0.1665449968100894,0.10796928306453554,-0.6857813690888095,-0.3912272369400085,0.08363134833666482,1.5665414696068714
1781551513966408704,2.551743745803833,1.7953702211380005,0.08399592339992523,-0.2862938940525055,0.07776252180337906,0.3660377264022827,-0.927345335483551,-0.015521928668022156,0.09859240055084229,-0.14533227682113647,-0.7025489972333845,0.16109010157668488,0.10186908077612594,-0.6856366760807092,-0.37474768299311284,0.08365925604204387,1.5623020763434776
1781551513976442624,2.5617775917053223,2.090240240097046,0.06993349641561508,-0.39924120903015137,0.07720119506120682,0.3480810523033142,-0.9342802166938782,-0.03339320421218872,0.4142785668373108,-0.03237926959991455,-0.705322533179152,0.15427791103174465,0.0951745968209963,-0.6853177034051717,-0.35552336213391583,0.08244442577511638,1.556847674503135
1781551513986476544,2.5718116760253906,2.3170483112335205,0.10587579011917114,-0.27257755398750305,0.07681696116924286,0.32766467332839966,-0.9416660666465759,-0.16994136571884155,0.40170541405677795,0.2765049934387207,-0.7082212040436708,0.14661655820191685,0.08758161832664701,-0.685022491640129,-0.3338307224253597,0.08139535323103425,1.5512188097930284
1781551513996510720,2.581845760345459,2.3134710788726807,0.27916327118873596,-0.1608443409204483,0.07771125435829163,0.30536139011383057,-0.9490602612495422,-0.3092176020145416,0.047025084495544434,0.00029927492141723633,-0.7106904911982621,0.13866290106814785,0.07900929124781919,-0.685163641305583,-0.31031793156077037,0.08170004951212206,1.5470113718769447
1781551514006544640,2.5918796062469482,1.650146722793579,0.501859724521637,-0.1600179523229599,0.0813324972987175,0.2865090072154999,-0.9546191096305847,-0.1845276951789856,-0.1935829520225525,0.03822201490402222,-0.7127761588803344,0.13298323640270884,0.07075243512219415,-0.6850254095563485,-0.29058107939706707,0.08499364087093161,1.543539113081083
1781551514016578560,2.6019136905670166,1.1488111019134521,0.08232785016298294,-0.16806310415267944,0.083816759288311,0.27323243021965027,-0.9582895040512085,0.1440274715423584,-0.12127017974853516,0.31755775213241577,-0.7143357817314853,0.12897602891520382,0.06496481182967985,-0.6847401819081215,-0.27675172008534044,0.08724294495429487,1.5406527795014358
1781551514026612736,2.611947774887085,0.8217291235923767,-0.04657527431845665,-0.13383908569812775,0.08315453678369522,0.26399219036102295,-0.9609336256980896,0.17598548531532288,-0.07147204875946045,0.2510337233543396,-0.715523030112547,0.12535300005108121,0.06180458278474697,-0.6844660469068001,-0.2671588993859082,0.0863201177726104,1.5380430430752938
1781551514036646656,2.621981620788574,0.4534269869327545,0.18261370062828064,0.09629344940185547,0.08366820961236954,0.25768527388572693,-0.9625995755195618,-0.08093688637018204,-0.21895846724510193,0.17118722200393677,-0.7160212498041524,0.12319552740985062,0.0593555145202964,-0.6845533657708769,-0.2606257970349637,0.08670111333735654,1.5372378296447768
1781551514046680576,2.6320157051086426,-0.07132439315319061,0.3990094065666199,0.23768334090709686,0.08707074820995331,0.25565028190612793,-0.9628403782844543,-0.11508587747812271,-0.3868606388568878,0.052790939807891846,-0.7156120195393978,0.12359429918352396,0.057482639314388066,-0.6850691375298288,-0.25852029238469226,0.09018582374044451,1.5389224704725442
1781551514056714752,2.642049789428711,-0.43293240666389465,0.17617204785346985,0.1745605617761612,0.090650275349617,0.25804126262664795,-0.9618717432022095,0.1124899834394455,-0.43789660930633545,0.2785831689834595,-0.7148074256910353,0.12569403219766878,0.0571414030552754,-0.6855555281063408,-0.26099425698988626,0.09396608213185256,1.5413662904848715
1781551514066748672,2.6520836353302,-0.6453874111175537,-0.0826488509774208,0.10473274439573288,0.09130971878767014,0.2632216513156891,-0.9604045748710632,0.23646432161331177,-0.2574690878391266,0.22311514616012573,-0.7139960545536612,0.1278131160357838,0.05883476706628592,-0.6858658574481705,-0.26636008886417945,0.09478930965094956,1.5433203997145377
1781551514076782592,2.6621177196502686,-0.665465772151947,-0.08848397433757782,0.053963568061590195,0.09052880108356476,0.26941999793052673,-0.9587582349777222,0.13214269280433655,-0.06118330359458923,0.06193822622299194,-0.713267944044046,0.12981362455223316,0.06139455622964612,-0.6860232956648283,-0.27279069564062225,0.09414384672281194,1.544790976930513
1781551514086816512,2.672151565551758,-0.7406721115112305,0.012347299605607986,0.01826229691505432,0.09027726203203201,0.27615484595298767,-0.9568638801574707,0.0010008066892623901,-0.09927496314048767,0.1149144172668457,-0.7126793840450338,0.13221926116527982,0.06392278238165451,-0.6859445509954165,-0.27979107261103536,0.09406857560849166,1.5458265546495467
1781551514096850688,2.682185649871826,-0.6783728003501892,-0.04066465422511101,-0.030048776417970657,0.09025554358959198,0.28300896286964417,-0.9548611640930176,0.00109882652759552,-0.20123711228370667,0.09774446487426758,-0.7122072507113434,0.13476646338816714,0.06638835073880216,-0.6857049903976193,-0.28692987287658145,0.09424216149422235,1.546507716530843
1781551514106885632,2.692220687866211,-0.6054309010505676,-0.16977789998054504,-0.11715597659349442,0.08896344900131226,0.28925183415412903,-0.9531100988388062,0.022273115813732147,-0.08025223016738892,-0.05709797143936157,-0.7120014203884116,0.13666028503902808,0.06905727788203536,-0.6852803273865781,-0.29344515693228307,0.09307049536927496,1.5463179334168453
1781551514116919808,2.7022547721862793,-0.3234969973564148,-0.13725018501281738,-0.13173891603946686,0.0870031788945198,0.2939334213733673,-0.9518579840660095,-0.055570073425769806,0.11135527491569519,-0.11344963312149048,-0.712042403686185,0.13775138366516654,0.07138325544938891,-0.6847807424865465,-0.29833944378724564,0.09115025273272939,1.5454754325257942
1781551514126953728,2.7122886180877686,0.11097003519535065,-0.04984470456838608,-0.1553150862455368,0.08574680238962173,0.295089989900589,-0.9516140818595886,-0.13871005177497864,0.175002783536911,-0.15324431657791138,-0.7124202641066268,0.13778568756612206,0.07216687331385571,-0.6842985355252312,-0.2995497152832271,0.08986401263912365,1.544103413170338
1781551514136987648,2.722322702407837,0.39712509512901306,-0.039151180535554886,-0.16765271127223969,0.08482179790735245,0.29257655143737793,-0.9524726867675781,-0.15272340178489685,0.15433812141418457,-0.17510604858398438,-0.7131527541820528,0.13657404641576032,0.07149256802104376,-0.6838489643801271,-0.2969201868667138,0.08882000282078871,1.5421424961594767
1781551514147021824,2.7323567867279053,0.46466338634490967,-0.017824850976467133,-0.16475199162960052,0.08405724167823792,0.28861096501350403,-0.9537494778633118,-0.15459862351417542,0.10602706670761108,-0.16447556018829346,-0.7140184978617651,0.1348787680714809,0.0702351277626233,-0.683412234127016,-0.29277574621266295,0.08790632221496762,1.5399689647247485
1781551514157055744,2.7423906326293945,0.48787921667099,-0.05508314073085785,-0.17237448692321777,0.0832575261592865,0.2840823829174042,-0.9551782011985779,-0.1499994695186615,0.052297621965408325,-0.13500124216079712,-0.6846868050001668,0.12985763003981832,0.07448420030327704,-0.7132974115047053,-0.288049248140269,0.08694464259328132,1.6243392221994515
1781551514167089664,2.752424716949463,0.514689564704895,-0.06778854876756668,-0.17385947704315186,0.08207640796899796,0.2794428765773773,-0.9566478729248047,-0.13799986243247986,0.09369555115699768,-0.1680927276611328,-0.6571808491353384,0.12486485162211078,0.07800536065599653,-0.7392138793128306,-0.28321381343808116,0.08558624973391793,1.700362519570526
1781551514177123584,2.762458562850952,0.6436949372291565,-0.009001797996461391,-0.15419335663318634,0.0812443345785141,0.2740887701511383,-0.9582664966583252,-0.1194828525185585,0.1702776551246643,-0.1156318187713623,-0.6315127509430968,0.11999475616691123,0.0804238955090076,-0.7617906332999946,-0.27764206661748675,0.08458033550355135,1.7690844688701541
1781551514187157504,2.7724926471710205,0.7532597780227661,0.010519172996282578,-0.13192853331565857,0.08088044077157974,0.267404168844223,-0.9601840376853943,-0.06734590232372284,0.14371338486671448,-0.05013090372085571,-0.6075756181960087,0.1151354896434724,0.08155860478581822,-0.7816290374305314,-0.27069809999656513,0.08403593370102723,1.8315281634872342
1781551514197191680,2.782526731491089,0.8003956079483032,0.015729913488030434,-0.12630127370357513,0.08064884692430496,0.25992298126220703,-0.962255597114563,0.0018401667475700378,0.03356456756591797,-0.05454432964324951,-0.5853237356650239,0.11037487149938292,0.08178994578800734,-0.7990769948941004,-0.26294245344560857,0.08361687053771395,1.8882429424989218
1781551514207225600,2.792560577392578,0.7489172220230103,0.020573671907186508,-0.08352531492710114,0.08053318411111832,0.25252482295036316,-0.9642331600189209,0.05598720908164978,-0.06745097041130066,0.0539700984954834,-0.5645436542707172,0.10597285576567651,0.08156693368850872,-0.8144980581198206,-0.25528876425771296,0.08332704685788174,1.9401080574362468
1781551514217259520,2.8025946617126465,0.6520189046859741,0.028483260422945023,-0.05860239267349243,0.08057387173175812,0.24564464390277863,-0.9660054445266724,0.08176438510417938,-0.16594800353050232,0.20999354124069214,-0.5450101465807169,0.10204070565836157,0.08114775887831632,-0.8282311088797515,-0.24818464911001406,0.08321670452313028,1.987963945463616
1781551514227293696,2.812628746032715,0.38831934332847595,-0.014490840025246143,-0.029080184176564217,0.08056866377592087,0.2405131459236145,-0.967296302318573,0.08213580399751663,-0.222278892993927,0.2636677622795105,-0.5267242871590606,0.09881125074126408,0.08116765545033927,-0.8403628923073426,-0.24289447743124168,0.08310082295111187,2.031981417510032
1781551514237327616,2.822662591934204,0.0898362547159195,-0.09868653863668442,0.005326790735125542,0.07998216897249222,0.23832790553569794,-0.9678856730461121,0.09077893942594528,-0.18151943385601044,0.16287773847579956,-0.5093559365365747,0.09628231246255325,0.08238254589118843,-0.8511752655204385,-0.24064378054753793,0.08244863537803789,2.073060425729259
1781551514247361536,2.8326966762542725,-0.0028001994360238314,-0.142752543091774,-0.032324980944395065,0.07877173274755478,0.23787158727645874,-0.9680971503257751,0.07244286686182022,-0.06866687536239624,0.12140220403671265,-0.49310931371819544,0.09404999348907568,0.08429719276497409,-0.8607507004473561,-0.24017395396877617,0.08118873094381035,2.1109113335378837
1781551514257395712,2.842730760574341,-0.18353456258773804,-0.1379595249891281,-0.02579544112086296,0.07725688070058823,0.23887816071510315,-0.9679713845252991,0.037016190588474274,0.11581239104270935,0.020980417728424072,-0.4779149343828471,0.09213467844241068,0.08674968242891208,-0.8692428252198836,-0.24121039607403064,0.07964435535754831,2.1458615873664004
1781551514267429632,2.85276460647583,-0.008241569623351097,-0.05922608822584152,-0.02356051653623581,0.07623559981584549,0.23995646834373474,-0.967785656452179,0.01928441971540451,0.13286152482032776,-0.054431140422821045,-0.463740497586034,0.09051976271530421,0.08895705649831284,-0.8768338181730604,-0.2423210113574596,0.07861089787398882,2.1782002156994706
1781551514277463552,2.8627986907958984,-0.022668445482850075,-0.0364236980676651,-0.0032672297675162554,0.07576709985733032,0.2398950308561325,-0.9678376317024231,0.004738271236419678,-0.04848878085613251,0.0843842625617981,-0.45062509790370464,0.08895810140719657,0.09037493505706688,-0.8836605357585345,-0.24225772562328532,0.07812558767856226,2.207951216864577
1781551514287497728,2.872832775115967,-0.23940634727478027,-0.024114569649100304,0.07187226414680481,0.07551784068346024,0.2411234974861145,-0.9675518274307251,-0.026704974472522736,-0.1837504506111145,0.0952526330947876,-0.4381188282762538,0.08784523483893103,0.09223504872041305,-0.8898471413980277,-0.24352333352782551,0.07789251947264565,2.2361064968055486
1781551514297531648,2.882866621017456,-0.33509692549705505,0.012253422290086746,0.10750402510166168,0.07568888366222382,0.24397476017475128,-0.966823399066925,-0.06380230188369751,-0.23016557097434998,-0.014957547187805176,-0.42588938227261547,0.08729319325626618,0.09470054456695269,-0.8955612318526773,-0.24646236624415524,0.07812680829846061,2.263470656103059
1781551514307565568,2.8929007053375244,-0.22413204610347748,0.058335963636636734,0.10172363370656967,0.07627163827419281,0.24674618244171143,-0.9660739898681641,-0.08182583749294281,-0.13851560652256012,-0.12849998474121094,-0.41433404634886994,0.08694362246724877,0.09697324070608394,-0.9007576756450335,-0.24932118250241772,0.07878667740030665,2.289219606748926
1781551514317599744,2.9029347896575928,0.22164861857891083,0.08801981806755066,0.07298892736434937,0.07722177356481552,0.2467610090970993,-0.9659947156906128,-0.059353746473789215,0.1052287220954895,-0.25849252939224243,-0.40362612165199435,0.08623118034272317,0.09781014342121619,-0.9055844625213557,-0.24933647383137458,0.07977053022329407,2.31303677996366
1781551514327634688,2.9129695892333984,0.7085173726081848,0.1296708583831787,-0.01736334152519703,0.07827971130609512,0.24220721423625946,-0.9670615196228027,-0.02249358594417572,0.33997663855552673,-0.32943201065063477,-0.40374073206034344,0.08576084339064086,0.09546896750123916,-0.90582793842605,-0.2446401523095283,0.08076985103709035,2.312958437071839
1781551514337668608,2.923003673553467,1.1443524360656738,0.2197292596101761,-0.03586219251155853,0.07990621030330658,0.23321057856082916,-0.9691376686096191,-0.0036733001470565796,0.36758899688720703,-0.25187063217163086,-0.3947481193680818,0.08369262705085656,0.09179711036673349,-0.9103531050433317,-0.23537800399969083,0.08226475839685186,2.3330248932340476
1781551514347702784,2.933037757873535,1.294362187385559,0.29021328687667847,-0.048215799033641815,0.08231934905052185,0.22099417448043823,-0.9717947840690613,-0.01225098967552185,0.16647225618362427,-0.12013942003250122,-0.3864451854400774,0.08149646615667364,0.08637670193656666,-0.9146351908939665,-0.2228337335042539,0.08450683217084622,2.3515285030395674
1781551514357736704,2.9430716037750244,1.1020910739898682,0.2710750102996826,-0.08889824151992798,0.0849146768450737,0.20929086208343506,-0.9741595387458801,-0.0374598428606987,-0.04113900661468506,-0.10907715559005737,-0.378864619087883,0.07967054285552348,0.08107297601701444,-0.918445121688423,-0.21084970105208983,0.08694734831106862,2.3683166204604285
1781551514367770624,2.9531056880950928,0.9181331396102905,0.23776736855506897,-0.09957218915224075,0.08720538765192032,0.19947178661823273,-0.9760155081748962,-0.05850359797477722,-0.13555271923542023,-0.07177501916885376,-0.37169720376653,0.07820553738610476,0.07665605827224191,-0.9218725031373158,-0.20081884199294742,0.08911173361202245,2.3840558143504618
1781551514377804800,2.963139772415161,0.6747953295707703,0.2282714694738388,-0.09363893419504166,0.08928614854812622,0.19169721007347107,-0.9773843288421631,-0.09758693724870682,-0.14689742028713226,0.03381139039993286,-0.36501225933126974,0.07714912960302599,0.0731835987521619,-0.924909788061817,-0.19289113631870225,0.09109928433717436,2.3986467971154077
1781551514387838720,2.9731736183166504,0.39805135130882263,0.2259681075811386,-0.08920956403017044,0.09130053967237473,0.1865074187517166,-0.9782020449638367,-0.13475757837295532,-0.1849662810564041,0.05708998441696167,-0.35846426848032314,0.0766123035760866,0.07091927109779703,-0.927687726025881,-0.18760598320754748,0.09306543391342555,2.412888687814025
1781551514397872640,2.9832077026367188,0.0859544426202774,0.2607422173023224,-0.09861771762371063,0.09347797185182571,0.18424005806446075,-0.9784260392189026,-0.14700579643249512,-0.30469292402267456,0.10070997476577759,-0.3522203909483885,0.07674806931830154,0.0699766081356335,-0.9301364105076325,-0.1852986224784075,0.09525002719403014,2.426470208049114
1781551514407906816,2.993241786956787,0.04077364131808281,0.23150548338890076,-0.11659272015094757,0.09573885053396225,0.18378829956054688,-0.9782923460006714,-0.12128207087516785,-0.4448204040527344,0.1462763547897339,-0.3462252380750736,0.07728592580128348,0.06986206706535145,-0.9323487590343956,-0.18483902113642664,0.09755259686697887,2.4395122450589075
1781551514417940736,3.0032756328582764,-0.1521635800600052,0.15334956347942352,-0.17352578043937683,0.09737534821033478,0.18440371751785278,-0.9780150055885315,-0.07521959394216537,-0.4264691472053528,0.1557493805885315,-0.3407325720796688,0.07775964024116702,0.07032741162106305,-0.9342959345484895,-0.18546513735077017,0.09923722167325062,2.4514187581022227
1781551514427974656,3.0133097171783447,-0.030486421659588814,0.11318296194076538,-0.20171427726745605,0.09825453162193298,0.18574979901313782,-0.977672278881073,-0.006518691778182983,-0.17221525311470032,0.1205403208732605,-0.3356138872516048,0.0780270234465437,0.07124359636263038,-0.9360552843366029,-0.18683488210710483,0.1001621299288043,2.4624585106774695
1781551514438008576,3.023343563079834,0.18502482771873474,0.12284211814403534,-0.2688765525817871,0.09899047017097473,0.18511486053466797,-0.9777184724807739,0.07080933451652527,0.13876819610595703,0.07778561115264893,-0.33108485795715914,0.07792313233080939,0.07119520994323637,-0.937679087056867,-0.18618873837153288,0.1009025564060147,2.4721718736148635
1781551514448042752,3.0333776473999023,0.3687230050563812,0.035314399749040604,-0.32714197039604187,0.09925588220357895,0.18260718882083893,-0.9781630039215088,0.16643014550209045,0.3404640555381775,-0.037202537059783936,-0.327167907828111,0.07732501565006282,0.07028040115485353,-0.9391712744855044,-0.18363758388313906,0.10112558755238102,2.4804892665020875
1781551514458076672,3.0434117317199707,0.2687322199344635,-0.08362890034914017,-0.3645588755607605,0.09837895631790161,0.17967714369297028,-0.9787939786911011,0.2154790759086609,0.3036450147628784,0.027347445487976074,-0.32377705331616063,0.0761585374467184,0.06930276926718605,-0.9405134169793333,-0.1806582425124015,0.10017395584959622,2.487577107737674
1781551514468110592,3.05344557762146,0.025835439562797546,-0.12919025123119354,-0.321560800075531,0.09664908796548843,0.17847475409507751,-0.9791862368583679,0.12377937138080597,0.06807674467563629,0.2567894458770752,-0.32047432455320024,0.07488716998942394,0.06927326524987719,-0.9417480540034784,-0.17943610040097294,0.09838480188097735,2.4944404715898085
1781551514478144768,3.0634796619415283,-0.38637158274650574,-0.11973084509372711,-0.16165873408317566,0.09495706856250763,0.18036650121212006,-0.9790051579475403,-0.03878946602344513,-0.14481352269649506,0.03413516283035278,-0.3167430782543544,0.07411334818669585,0.07074346046258562,-0.9429615316096313,-0.1813590533524907,0.09669097533833555,2.5022695585743127
1781551514488178688,3.0735137462615967,-0.9445940852165222,-0.13763979077339172,-0.05595441162586212,0.09353671222925186,0.18696151673793793,-0.9779040217399597,-0.12928804755210876,-0.14966903626918793,-0.05696231126785278,-0.3123334903651141,0.0741724894938388,0.07447436136453546,-0.9441397125318677,-0.18806820137047098,0.09536008685098057,2.511632334045572
1781551514498212608,3.083547592163086,-1.1242681741714478,-0.11892403662204742,0.012013722211122513,0.09214237332344055,0.19738762080669403,-0.975985586643219,-0.14388492703437805,-0.027603089809417725,0.05374443531036377,-0.3075296977984004,0.07479622987803074,0.08007945881174428,-0.945208066209504,-0.1986923984656955,0.09413055884920986,2.5218730942991736
1781551514508246784,3.0935816764831543,-0.9624891877174377,-0.055085666477680206,0.050724096596241,0.09137918800115585,0.2077421396970749,-0.9739060997962952,-0.08968546986579895,-0.06379072368144989,0.003614962100982666,-0.3027001585185745,0.0756611926545878,0.08557070979675815,-0.9462164255265357,-0.20926616690441294,0.09355362516147724,2.532189305057743
1781551514518280704,3.1036157608032227,-0.7797207236289978,-0.05868985503911972,0.017877470701932907,0.0909523144364357,0.2159760296344757,-0.9721533060073853,-0.0128730908036232,-0.2072480022907257,0.053406357765197754,-0.2981108193521799,0.07633064762193983,0.08998325912441114,-0.9472098183556615,-0.2176913489760148,0.09328603651870884,2.5419722953353925
1781551514528314624,3.113649606704712,-0.8348398804664612,-0.0985773503780365,-0.08405022323131561,0.09010836482048035,0.22387653589248657,-0.970443069934845,0.04300931096076965,-0.17564350366592407,0.00912410020828247,-0.29399912946623713,0.07675742169840516,0.09426958696457323,-0.9480432915396699,-0.22579015347443496,0.09258733083595833,2.550682579689277
1781551514538349568,3.1236846446990967,-0.6384341716766357,-0.16833020746707916,-0.21017539501190186,0.0885016992688179,0.2313193529844284,-0.9688440561294556,0.0757133960723877,-0.0682944506406784,-0.059613585472106934,-0.2905564446752684,0.07678177794051741,0.09839983449855591,-0.9486828319526703,-0.23343359395779273,0.09109490457356116,2.557876171878897
1781551514548383744,3.133718729019165,-0.5275587439537048,-0.20330975949764252,-0.3255653977394104,0.08597465604543686,0.23699897527694702,-0.9676982164382935,0.054055243730545044,-0.01835578680038452,-0.06317031383514404,-0.28791580240555503,0.07615074594167826,0.10174456551130312,-0.9491856652252659,-0.2392756468828293,0.08861183301738264,2.563234889293502
1781551514558417664,3.1437525749206543,-0.5318475365638733,-0.18931351602077484,-0.3986843526363373,0.08320352435112,0.2425539642572403,-0.96656334400177,0.03499104827642441,0.0013882815837860107,-0.0732315182685852,-0.28585325283949986,0.07542977024978983,0.10501744250550202,-0.9495102608456867,-0.24499757151835436,0.08587012803353025,2.5673252505704465
1781551514568451584,3.1537866592407227,-0.1534978300333023,-0.24836193025112152,-0.5223532915115356,0.07998565584421158,0.24647517502307892,-0.9658427834510803,0.06250091642141342,-0.05445857346057892,-0.10117381811141968,-0.28442375011247056,0.0743038776688079,0.10750600304692563,-0.9497497541519552,-0.24904153281591102,0.08262582156416397,2.569995422167323
1781551514578485760,3.163820743560791,0.13231875002384186,-0.3034837543964386,-0.6694180965423584,0.07579251378774643,0.2467954456806183,-0.9660991430282593,0.09786776453256607,-0.058807164430618286,-0.04407846927642822,-0.2839367343960443,0.07226205373078834,0.10829882941697921,-0.9499629312393796,-0.24937201701845468,0.07829174964467574,2.5705296819568173
1781551514588519680,3.1738545894622803,0.3189466595649719,-0.38574185967445374,-0.7178269028663635,0.07071635127067566,0.24512265622615814,-0.9669095277786255,0.09589435905218124,-0.08337949216365814,0.04578220844268799,-0.28404482043690377,0.06955914106294528,0.10819774279051275,-0.9501437848250418,-0.24764620330863654,0.07300648912891045,2.5696978050307315
1781551514598553600,3.1838886737823486,0.2889237701892853,-0.44392409920692444,-0.7594504952430725,0.06482070684432983,0.24238321185112,-0.9680127501487732,0.08119064569473267,-0.2322056144475937,0.0008954405784606934,-0.284405511364508,0.06632880601722972,0.10767600733800499,-0.950326205162293,-0.24482156952867665,0.06686283913758059,2.5682449951223765
1781551514608587776,3.193922758102417,-0.04256412386894226,-0.5277153849601746,-0.8215407729148865,0.0582658089697361,0.24161632359027863,-0.968621015548706,0.1276167631149292,-0.24131114780902863,0.10608744621276855,-0.28499436784062954,0.06310501642359388,0.10820006988928614,-0.9503098022077027,-0.2440311798947339,0.06008096605610223,2.566238995352424
1781551514618621696,3.2039566040039062,-0.43153664469718933,-0.6033466458320618,-0.9204133152961731,0.050626110285520554,0.24439744651317596,-0.9683526754379272,0.26336926221847534,-0.046551987528800964,0.12325990200042725,-0.2858377644158179,0.05992427828239283,0.11060175637266847,-0.9499858059870205,-0.24689824068518176,0.05223309904717211,2.5635356239691585
1781551514628655616,3.2139906883239746,-0.5719895958900452,-0.7970902323722839,-0.9142147898674011,0.0416143462061882,0.24989327788352966,-0.9673787355422974,0.3694879412651062,0.013641268014907837,0.24975788593292236,-0.28684888521363067,0.056517481418054696,0.11452690559360668,-0.9494246321836726,-0.25257004039972114,0.04299113230628301,2.5602336452389673
1781551514638689792,3.224024772644043,-0.8102146983146667,-0.8341536521911621,-0.8948776125907898,0.031224489212036133,0.25656789541244507,-0.966021716594696,0.36889147758483887,-0.15918630361557007,0.25207823514938354,-0.2876410069323809,0.05260679324483784,0.11925464289329152,-0.9488274680918475,-0.2594695598560645,0.032311512430929494,2.557112623807581
1781551514648723712,3.2340586185455322,-1.9060559272766113,-1.0429236888885498,-1.0024727582931519,0.019727159291505814,0.2692607045173645,-0.9628652334213257,0.1949029564857483,-0.2574504315853119,0.624013364315033,-0.28874138870024724,0.049132958163205315,0.12709572661076518,-0.9476607581641924,-0.27262530009014596,0.020485109320091177,2.5528971765365647
1781551514658757632,3.2440927028656006,-1.576817274093628,-1.210776448249817,-0.3937620222568512,0.006250616163015366,0.2867516577243805,-0.9579845666885376,-0.03635620325803757,-0.125542551279068,-0.0780872106552124,-0.28825188426136883,0.04523684602821129,0.13770020661830482,-0.9465216039443995,-0.2908343675539586,0.006524663996589872,2.5513182786351574
1781551514668791808,3.254126787185669,-2.3900489807128906,-0.05395915359258652,-0.6319032311439514,-0.0013299521524459124,0.305080384016037,-0.952325701713562,0.0021691820584237576,0.08162310719490051,-0.633398175239563,-0.2868475690023233,0.04418021265967989,0.14793671837917816,-0.9454529408007518,-0.3100228362452739,-0.0013965298552233165,2.5522336569425432
1781551514678825728,3.264160633087158,-2.370511770248413,-0.289218932390213,-0.9835467338562012,-0.0041173845529556274,0.3293945789337158,-0.9441834092140198,0.5109533071517944,0.2934386730194092,0.9460297226905823,-0.28791802601876054,0.04678368453621694,0.16037330283757179,-0.9429713120073256,-0.3356622990553922,-0.004360761654781733,2.5481736704056126
1781551514688859648,3.2741947174072266,-1.8649731874465942,-1.5400596857070923,-0.9183128476142883,-0.016917379572987556,0.34815165400505066,-0.9372855424880981,0.8675491213798523,0.17040303349494934,-0.0024727582931518555,-0.2887014512841731,0.04366641234725161,0.17161137039748503,-0.9409007883404975,-0.35559868801494987,-0.018047373907839385,2.542918066726873
1781551514698893568,3.284228563308716,-2.3307840824127197,-1.5746221542358398,-1.0603916645050049,-0.035441603511571884,0.36805886030197144,-0.9291267395019531,0.3885299861431122,-0.2597367465496063,-0.4844169020652771,-0.2893219653796261,0.037957166826054455,0.18437969264228232,-0.9385393304180607,-0.3769204767183329,-0.03812658168672199,2.5362699710579895
1781551514708927744,3.294262647628784,-1.744779109954834,-1.0328762531280518,-0.8466261625289917,-0.05159332603216171,0.3865298628807068,-0.9208326935768127,-0.2568325698375702,-0.5214938521385193,0.11388689279556274,-0.2899744916719525,0.03320745339979182,0.1961655670097211,-0.9361256148983116,-0.3968660254380258,-0.05597047184545257,2.529561535997819
1781551514718961664,3.3042967319488525,-1.7134954929351807,-0.5279667973518372,-0.9406117796897888,-0.06162268668413162,0.402077853679657,-0.9135294556617737,-0.19782249629497528,-0.19919699430465698,-0.2529286742210388,-0.29105222076086007,0.031083940945685333,0.20559441226497646,-0.9338380419959653,-0.41378510937446383,-0.06735357596523975,2.5231876400227695
1781551514728996864,3.3143317699432373,-1.213218331336975,-1.0181777477264404,-1.09788179397583,-0.07271487265825272,0.41462957859039307,-0.9070804119110107,0.3750525116920471,0.26540887355804443,-0.27326321601867676,-0.29277086654445644,0.028133241313289915,0.2137014618250188,-0.9315715411754231,-0.42753571378549565,-0.07999258601988092,2.5152140885489884
1781551514739030528,3.3243656158447266,-1.02299165725708,-1.2846413850784302,-1.3162424564361572,-0.08848097175359726,0.42419418692588806,-0.9012382626533508,0.6176862716674805,0.5379334688186646,-0.12210768461227417,-0.29508035910463615,0.022589741665432674,0.22106690649277735,-0.9292721002879242,-0.4380718695566638,-0.09786349130246305,2.504852587340519
1781551514749064704,3.334399700164795,-0.23414313793182373,-1.298254132270813,-1.3180201053619385,-0.10602028667926788,0.42830222845077515,-0.8973945379257202,0.4413169026374817,0.48862892389297485,-0.2569786310195923,-0.29970470883624756,0.01586880728553904,0.22594451585830602,-0.9267547992542435,-0.4426131295251079,-0.11759723208710463,2.4895524260162287
1781551514759098880,3.3444337844848633,-0.15127968788146973,-0.9442090392112732,-1.228866457939148,-0.12170638889074326,0.42842864990234375,-0.8953415155410767,0.11450424045324326,0.16632843017578125,-0.20100247859954834,-0.30436074719180845,0.009421652827122142,0.2285617299515787,-0.9246812143308853,-0.44275301044827575,-0.1351048336718435,2.475175865547649
1781551514769132544,3.3544676303863525,-0.23243525624275208,-0.6613197922706604,-1.0548886060714722,-0.13369455933570862,0.4285458028316498,-0.8935738801956177,0.07697764039039612,-0.10708889365196228,0.0013161897659301758,-0.308709872162598,0.004715105413596244,0.23063139295283258,-0.9227594793674315,-0.44288268677181225,-0.14851614203271288,2.462406540699588
1781551514779166720,3.364501714706421,-0.4033276438713074,-0.7030210494995117,-0.9762587547302246,-0.14393523335456848,0.4299715757369995,-0.8912951946258545,0.35414034128189087,-0.2226351499557495,-0.027344942092895508,-0.3126165064896305,0.000992468799401877,0.2331339117784887,-0.9208249827225652,-0.4444613036868472,-0.16010770758377874,2.45076732677897
1781551514789200640,3.37453556060791,-0.7810565233230591,-0.9413323998451233,-1.0204885005950928,-0.1555883139371872,0.4335450530052185,-0.88759845495224,0.5709783434867859,-0.213131844997406,-0.01218181848526001,-0.31619711239425186,-0.0030923494558466502,0.23704687968145643,-0.9185960026052391,-0.448423066048765,-0.1735283347674548,2.43889707301045
1781551514799234560,3.3845696449279785,-1.0085227489471436,-1.162359595298767,-1.0740100145339966,-0.16954992711544037,0.4401994049549103,-0.881746768951416,0.5810642242431641,-0.04470685124397278,0.07162714004516602,-0.31980814769645494,-0.007698069455312801,0.24303778646373805,-0.9157490181694924,-0.45582075507125613,-0.18996996388286946,2.4254257417162406
1781551514809268736,3.394603729248047,-0.8262777924537659,-1.2416355609893799,-1.0934319496154785,-0.18514637649059296,0.4462866485118866,-0.8755278587341309,0.45995718240737915,0.0446801483631134,-0.03697824478149414,-0.3233098490127092,-0.013178083856045679,0.24912328326046182,-0.9128168406635616,-0.4626115185092054,-0.2083980486729908,2.411538098003388
1781551514819302656,3.404637575149536,-0.8851403594017029,-1.1739877462387085,-1.0909485816955566,-0.200672909617424,0.45160987973213196,-0.8693554401397705,0.24663236737251282,0.03540489077568054,-0.07290530204772949,-0.3268582039342529,-0.018707748973340058,0.25489664664493966,-0.9098578631449127,-0.4685688723710138,-0.22685609525830655,2.3974625223899144
1781551514829337088,3.4146721363067627,-0.7405328154563904,-1.011490821838379,-1.041111707687378,-0.21502934396266937,0.4566209018230438,-0.8632842898368835,0.13363896310329437,0.05053547024726868,-0.020703136920928955,-0.33038560024241725,-0.023695527665874412,0.26037738616936984,-0.9069110036825967,-0.4741933056021204,-0.24411531999579,2.3836169753885663
1781551514839371264,3.424706220626831,-0.6253604292869568,-0.8423761129379272,-1.0421024560928345,-0.22781726717948914,0.46015647053718567,-0.8581115007400513,0.14598438143730164,0.009753197431564331,-0.03410041332244873,-0.33397649803769786,-0.0281485261082919,0.2648620572504027,-0.9041656959326935,-0.47817143920142646,-0.25950052380851285,2.3703434610088654
1781551514849405184,3.4347403049468994,-0.630729615688324,-0.7915701866149902,-1.0724138021469116,-0.2396368384361267,0.46294301748275757,-0.8533803224563599,0.2256292700767517,-0.07739919424057007,0.03361713886260986,-0.3377507472513887,-0.03219069456545114,0.26883751645099047,-0.9014513319616928,-0.48131256090328417,-0.2737586929148539,2.3570413983969374
1781551514859439104,3.4447741508483887,-0.8437076807022095,-0.8365933299064636,-1.1145577430725098,-0.2516343593597412,0.46659189462661743,-0.8479222655296326,0.2773454189300537,-0.08123117685317993,0.12386220693588257,-0.34173529178788636,-0.03605409581568009,0.27338428241761925,-0.8984309737135836,-0.4854335881562766,-0.2884870213526093,2.342756515710491
1781551514869473280,3.454808235168457,-1.0144823789596558,-0.8158150911331177,-1.0848416090011597,-0.2638591527938843,0.47156229615211487,-0.841431736946106,0.26530876755714417,-0.013127237558364868,0.13272202014923096,-0.3457262898909081,-0.039722722105970665,0.2787583808860553,-0.8950918014584741,-0.49106159614465217,-0.30387172860606304,2.327704421322571
1781551514879507200,3.4648423194885254,-1.0602378845214844,-0.7829695343971252,-1.0541231632232666,-0.27574315667152405,0.47753438353538513,-0.8342221975326538,0.20814672112464905,0.04681864380836487,0.04976785182952881,-0.3496136077752457,-0.043009731711359654,0.28467363307859955,-0.8915612323719737,-0.49784629624837795,-0.3192337748715554,2.312376223773979
1781551514889541120,3.4748761653900146,-0.9457957148551941,-0.7005366683006287,-1.009545087814331,-0.2868290841579437,0.4830254316329956,-0.827294111251831,0.21520432829856873,0.0705786943435669,-0.031165361404418945,-0.35338316859701585,-0.045995468441218476,0.2902367464042513,-0.8881257989642058,-0.5041066791983453,-0.333738648865271,2.2975071232808086
1781551514899575296,3.484910249710083,-0.7828733325004578,-0.7024930715560913,-0.9483357667922974,-0.29741376638412476,0.4873441755771637,-0.820999801158905,0.25998395681381226,0.036856263875961304,0.04599064588546753,-0.3569302433499002,-0.049007378118383606,0.2951243291809482,-0.8849297748390589,-0.5090457193662337,-0.3475531025617365,2.283543593780998
1781551514909609216,3.4949443340301514,-0.6666122674942017,-0.7067165970802307,-0.9034063816070557,-0.3077152669429779,0.4903962016105652,-0.8153667449951172,0.2337711751461029,-0.034097373485565186,0.07412528991699219,-0.3601686987501342,-0.05221320822186421,0.2993165747671098,-0.8820215396222371,-0.5125443200288496,-0.360868677916947,2.270707566446371
1781551514919643136,3.5049781799316406,-0.7180435061454773,-0.7379100918769836,-0.838986337184906,-0.31789568066596985,0.4932873547077179,-0.8096974492073059,0.12409380078315735,-0.0796063244342804,0.04189044237136841,-0.3631222471299699,-0.055462291888650726,0.3034389552143586,-0.8791991372212756,-0.5158648657734339,-0.37411986827889077,2.258461174145442
1781551514929677312,3.515012264251709,-0.727641224861145,-0.6562181711196899,-0.7758942246437073,-0.32756876945495605,0.4964481294155121,-0.803889274597168,0.0033500194549560547,-0.09926185011863708,0.003947257995605469,-0.3657826932089719,-0.058486041576199264,0.30762759689440794,-0.876440387366061,-0.5195022701077908,-0.3869379239019045,2.24680644924628
1781551514939712256,3.5250473022460938,-0.8269867300987244,-0.619137167930603,-0.7264518141746521,-0.3364810049533844,0.5003392696380615,-0.7977725863456726,-0.0678463876247406,-0.017627477645874023,0.08155560493469238,-0.368355175222776,-0.06099315887230145,0.3120793608940927,-0.8736135973980367,-0.5239905576657029,-0.39913636154152005,2.2351710294782636
1781551514949746176,3.535081148147583,-0.7344198226928711,-0.4554412066936493,-0.6960795521736145,-0.34427329897880554,0.5041713714599609,-0.7920145988464355,-0.04490208625793457,0.10294532775878906,-0.012733936309814453,-0.37085064446774846,-0.0629779309502161,0.3162696530274682,-0.8709058843055114,-0.5284222180803536,-0.41004148310472144,2.2240664555948446
1781551514959780096,3.5451152324676514,-0.5672920346260071,-0.42605161666870117,-0.6735861897468567,-0.35122478008270264,0.5069711804389954,-0.787160336971283,0.04766643047332764,0.09990137815475464,-0.05993133783340454,-0.37336599544388793,-0.06475626616951671,0.3197287277925765,-0.8684342828660176,-0.531667306034349,-0.41968283971804954,2.2136668301215594
1781551514969814272,3.5551493167877197,-0.4238358438014984,-0.402004599571228,-0.6125803589820862,-0.35774946212768555,0.508480966091156,-0.783238410949707,0.12787583470344543,-0.02505207061767578,0.015400946140289307,-0.3748754274855467,-0.06697234413075784,0.32232823710790476,-0.8666530934898865,-0.5334197400562882,-0.4284586275153498,2.206339578444977
