time,seconds_elapsed,rotationRateX,rotationRateY,rotationRateZ,gravityX,gravityY,gravityZ,accelerationX,accelerationY,accelerationZ,quaternionW,quaternionX,quaternionY,quaternionZ,pitch,roll,yaw
1781555365959234816,0.04526662826538086,-0.2802920341491699,-0.18534038960933685,0.04601111263036728,-0.5273289084434509,0.11590506136417389,-0.8417186737060547,0.0005955100059509277,-0.04890371859073639,-0.0040302276611328125,-0.9073710565795802,-0.03231811783126718,0.2794570032106589,-0.31230942643759946,-0.11616615593041861,-0.5596705569810305,0.6295639888959649
1781555365969269760,0.055301666259765625,-0.19487139582633972,-0.11751340329647064,0.011472579091787338,-0.5286171436309814,0.11811894923448563,-0.8406020998954773,0.006934404373168945,-0.005158126354217529,-0.014759838581085205,-0.9071392891654019,-0.03141646528778696,0.2805565238132638,-0.3120889294664985,-0.11839535694200527,-0.561366928801385,0.6285351357710758
1781555365979304448,0.06533646583557129,-0.11967331171035767,-0.1297607570886612,0.13057687878608704,-0.5295697450637817,0.1196259930729866,-0.8397889733314514,0.003919720649719238,0.025790266692638397,-0.022500455379486084,-0.9069182596928778,-0.030860653737769406,0.2813416481399476,-0.3120799542815855,-0.11991316531884719,-0.5626151269002402,0.6281472217343919
1781555365989339648,0.07537150382995605,-0.058662690222263336,-0.17500905692577362,0.021436795592308044,-0.5308794379234314,0.12103869765996933,-0.8387590050697327,0.0021013617515563965,0.02626965194940567,-0.044434964656829834,-0.9065158349178504,-0.03052918307981316,0.28229146131195526,-0.3124236724185727,-0.12133620339351155,-0.5642846280447095,0.6285757371435348
1781555365999374592,0.08540654182434082,-0.0015373497735708952,-0.14538991451263428,0.016035638749599457,-0.5321316719055176,0.12119576334953308,-0.8379424214363098,0.015423297882080078,-0.007502526044845581,-0.030740439891815186,-0.9063271339971845,-0.030659899908854368,0.28299959787795764,-0.3123176905814035,-0.12149443724831227,-0.5657905727482972,0.6283496684292968
1781555366009409792,0.09544157981872559,0.028006428852677345,-0.24560266733169556,0.04686359316110611,-0.5337463617324829,0.12137118726968765,-0.836889386177063,-0.00264585018157959,-0.024172700941562653,-0.05265223979949951,-0.9059689220886363,-0.030946156623331656,0.28389725071077054,-0.31251394538182103,-0.12167116610089192,-0.5677325087821568,0.6288005833931141
1781555366019444736,0.10547661781311035,0.05151361599564552,-0.2694920301437378,0.021728677675127983,-0.5358955264091492,0.1211213544011116,-0.8355510830879211,0.041877031326293945,0.030169524252414703,-0.020375430583953857,-0.9055471855300067,-0.03153005264322338,0.2850093444587344,-0.3126656405221856,-0.12141947940159253,-0.570282937604278,0.6292925234574467
1781555366029479680,0.11551165580749512,-0.03700133413076401,-0.27362778782844543,0.04353197664022446,-0.538128137588501,0.12124607712030411,-0.8340967893600464,0.03147530555725098,-0.0008847489953041077,-0.004587292671203613,-0.9051028635528959,-0.0319397249148666,0.28623670130909007,-0.3127892856199125,-0.12154512143103735,-0.5729671160439984,0.6296251154215055
1781555366039514880,0.12554669380187988,-0.13029693067073822,-0.27784088253974915,0.058443550020456314,-0.5403742790222168,0.1222081333398819,-0.8325027227401733,-0.0028232932090759277,-0.018936648964881897,0.005766332149505615,-0.9046386558761459,-0.0319270141556892,0.2876270039285297,-0.312858234216981,-0.12251438640860567,-0.5757395158228585,0.6296068092986066
1781555366049549568,0.13558149337768555,-0.22098661959171295,-0.27120521664619446,0.07288267463445663,-0.5425958633422852,0.12402328103780746,-0.8307875394821167,-0.015112876892089844,-0.03518660366535187,0.0171736478805542,-0.9041627567944898,-0.031473474018069575,0.2891636938102707,-0.3128635611066575,-0.12434345073136924,-0.5785586003716569,0.6292082055437046
1781555366059584512,0.1456165313720703,-0.2864074409008026,-0.2783190608024597,0.07368455082178116,-0.5447784066200256,0.1265951246023178,-0.8289693593978882,-0.018316686153411865,-0.048958420753479004,0.006535887718200684,-0.9036885525676126,-0.030614774353552556,0.29082308742670393,-0.31278048581194795,-0.12693573554546464,-0.5814030325375991,0.6283970996563432
1781555366069620736,0.15565252304077148,-0.27575212717056274,-0.27274468541145325,0.07674319297075272,-0.5469865798950195,0.12936268746852875,-0.8270858526229858,-0.009165763854980469,-0.03752003610134125,0.00047147274017333984,-0.9032072946405075,-0.029655068552312203,0.29253657995578175,-0.3126652299144138,-0.12972623778145786,-0.5843071904520862,0.6274550939536649
1781555366079655680,0.16568756103515625,-0.1689511239528656,-0.23447637259960175,0.07567793130874634,-0.5490097403526306,0.13168121874332428,-0.8253777027130127,0.006422519683837891,-0.02078033983707428,-0.011948347091674805,-0.902744046805255,-0.028907170973391582,0.2940672080014266,-0.31263733650983644,-0.1320647823406038,-0.5869600864365895,0.6268197901955759
1781555366089690624,0.17572259902954102,-0.06519807875156403,-0.23708388209342957,0.0859350934624672,-0.5508360862731934,0.1330968737602234,-0.8239325284957886,0.007196009159088135,0.0008600503206253052,-0.024150967597961426,-0.9022905270905485,-0.028621918832713103,0.2953210440109409,-0.3127908506636703,-0.13349299823875982,-0.589301973493318,0.6268302222580548
1781555366099725824,0.18575763702392578,0.03583798557519913,-0.2295423299074173,0.09090854972600937,-0.5526671409606934,0.13368399441242218,-0.8226102590560913,0.007409632205963135,0.028928935527801514,-0.02071249485015869,-0.9018014976208123,-0.02880927189873918,0.2964201412951895,-0.3131441703812353,-0.134085413005538,-0.5915795275894864,0.627517710983594
1781555366109760768,0.19579267501831055,0.08008480817079544,-0.24070431292057037,0.07414554804563522,-0.5544605851173401,0.13363845646381378,-0.8214099407196045,0.019304335117340088,0.03980821371078491,-0.002869844436645508,-0.9013173382974672,-0.029327209587208723,0.297380138153182,-0.3135796198597754,-0.13403946775167372,-0.5937570872732388,0.6285670434184182
1781555366119795456,0.2058274745941162,0.06615088880062103,-0.2576151192188263,0.0647595003247261,-0.5564067363739014,0.13341936469078064,-0.8201285600662231,0.03158074617385864,0.02182355523109436,-0.0072945356369018555,-0.9008266354546407,-0.029946289337371715,0.29839394261357366,-0.31396783586668403,-0.13381840237033554,-0.5961081032138483,0.6295694162233411
1781555366129830656,0.21586251258850098,0.04549460485577583,-0.25886762142181396,0.05806538090109825,-0.5584622025489807,0.13326017558574677,-0.8187562227249146,0.03429228067398071,0.004419893026351929,0.01527416706085205,-0.9003352726936181,-0.03053576685606784,0.29948196978591785,-0.3142844126623925,-0.13365777133239654,-0.598601721157676,0.6304024689422083
1781555366139865600,0.22589755058288574,-0.028016360476613045,-0.24010270833969116,0.06533847004175186,-0.5604223608970642,0.13353845477104187,-0.8173703551292419,0.01751464605331421,-0.01606103777885437,0.020129084587097168,-0.8998641854091989,-0.03087079784905918,0.3006024419097597,-0.31453088800884726,-0.1339385622065748,-0.6010237144889065,0.6309514758427284
1781555366149900800,0.2359325885772705,-0.11583169549703598,-0.24341286718845367,0.07547952234745026,-0.5622983574867249,0.1345280408859253,-0.8159183859825134,0.0020413994789123535,-0.031012415885925293,0.014114737510681152,-0.8993991583680843,-0.030818949162546086,0.3018128733339966,-0.3147067834591562,-0.13493716077489726,-0.6034137322640943,0.6311342949806197
1781555366159935744,0.24596762657165527,-0.2019583284854889,-0.2600688338279724,0.07801565527915955,-0.5642536282539368,0.13626371324062347,-0.8142788410186768,0.011488735675811768,-0.036547526717185974,0.016503572463989258,-0.8989168804961429,-0.03038520562625858,0.3032116868171213,-0.31478216614572707,-0.1366889637202493,-0.6059780175210655,0.6308781684400091
1781555366169971712,0.25600361824035645,-0.2411068081855774,-0.25009796023368835,0.07837171852588654,-0.5662527680397034,0.13857297599315643,-0.812499463558197,0.02671724557876587,-0.03969602286815643,0.02551215887069702,-0.8984341081761258,-0.029642975041921114,0.30474837350644013,-0.3147473695884254,-0.13902034542191927,-0.6086605379024167,0.630207475451982
1781555366180006656,0.2660386562347412,-0.2301047444343567,-0.2360132932662964,0.10095585882663727,-0.5681069493293762,0.14100387692451477,-0.8107850551605225,0.02518397569656372,-0.04444624483585358,0.01636672019958496,-0.8979576403623768,-0.028823740060164617,0.3062297419958759,-0.3147455016986777,-0.14147534487066338,-0.6111872176572382,0.6295637648311825
1781555366190041856,0.276073694229126,-0.21892693638801575,-0.22730621695518494,0.12795232236385345,-0.5697972774505615,0.14348024129867554,-0.8091628551483154,0.015308141708374023,-0.03579896688461304,-0.01169896125793457,-0.8974522085288071,-0.028002801878650476,0.3076270638638598,-0.31489848720125846,-0.14397715313059523,-0.613526612070385,0.6292405563964409
1781555366200076544,0.28610849380493164,-0.20804312825202942,-0.25778928399086,0.12612806260585785,-0.5715634822845459,0.14594824612140656,-0.8074740171432495,0.0350186824798584,-0.019605472683906555,-0.01619541645050049,-0.896905606307638,-0.027223774955607863,0.30906612888755475,-0.31511469153897903,-0.14647141133464098,-0.615969278472889,0.629059384931669
1781555366210111744,0.2961435317993164,-0.1830805242061615,-0.28046903014183044,0.11985231190919876,-0.5735908150672913,0.14823408424854279,-0.8056178689002991,0.04112011194229126,-0.02147933840751648,-0.004547417163848877,-0.8963135119242153,-0.026586055023126783,0.3106191126292607,-0.3153266398993203,-0.14878238698010363,-0.6187268031706687,0.628928315976699
1781555366220146688,0.30617856979370117,-0.18504486978054047,-0.264404833316803,0.13750961422920227,-0.5756030678749084,0.15047210454940796,-0.8037656545639038,0.016154825687408447,-0.03061431646347046,-0.009161591529846191,-0.8957070452304423,-0.025984965242962597,0.31215691852329214,-0.3155815645307566,-0.15104579718659375,-0.6214715600963455,0.6289027414336332
1781555366230181632,0.31621360778808594,-0.1984642744064331,-0.24950766563415527,0.1629830151796341,-0.5774340033531189,0.15287737548351288,-0.8019965291023254,-0.008503437042236328,-0.03442341089248657,-0.010930657386779785,-0.8950916963927382,-0.025298027439691458,0.31362675690375885,-0.31592566546004364,-0.15347922202117092,-0.6240201782767268,0.6290156786280622
1781555366240216832,0.3262486457824707,-0.2583816647529602,-0.2506541609764099,0.16149431467056274,-0.579194188117981,0.15558525919914246,-0.8002045750617981,-0.008787989616394043,-0.04242606461048126,0.006686508655548096,-0.894467392834308,-0.02445235011717884,0.31511870480607324,-0.3162759180547883,-0.15621989616713586,-0.6265262033080043,0.6290448405012574
1781555366250251776,0.33628368377685547,-0.3942399024963379,-0.24693544209003448,0.1685974895954132,-0.5809215903282166,0.15914510190486908,-0.7982499003410339,-0.010325968265533447,-0.05273030698299408,0.018571555614471436,-0.8938543527049259,-0.02312697186586791,0.31676518538625786,-0.31646374898390406,-0.15982466360720826,-0.6291044432169421,0.6284469895250909
1781555366260286464,0.34631848335266113,-0.5460078120231628,-0.2361067682504654,0.17635634541511536,-0.582567572593689,0.16390091180801392,-0.7960851192474365,-0.004224419593811035,-0.06270463764667511,0.028766393661499023,-0.8932454633508877,-0.02113655554166944,0.31860743942677233,-0.31647281069390887,-0.16464376013098578,-0.6317448770589346,0.6270758771722028
1781555366270321664,0.3563535213470459,-0.7127251625061035,-0.22779597342014313,0.18583106994628906,-0.5841177701950073,0.16998018324375153,-0.7936707139015198,0.0042228102684021,-0.07285800576210022,0.032150328159332275,-0.8926508830121578,-0.018392636855366823,0.3206655022477333,-0.31624322793025306,-0.1708095563771923,-0.6344612437570334,0.6247531681197127
1781555366280357120,0.36638903617858887,-0.884829044342041,-0.21472863852977753,0.21109728515148163,-0.5855216979980469,0.17748233675956726,-0.7909894585609436,0.01241689920425415,-0.07796454429626465,0.03302443027496338,-0.8920483871819745,-0.014851328621647833,0.3229314328058961,-0.31582331217339776,-0.1784275847760121,-0.6372251327766788,0.6215498056438937
1781555366290392064,0.37642407417297363,-1.0373361110687256,-0.21287241578102112,0.23124834895133972,-0.5867987871170044,0.18642482161521912,-0.787980318069458,0.024222493171691895,-0.08409938216209412,0.03856015205383301,-0.8914127000186736,-0.010513805575362556,0.32542173914597156,-0.31523569140457697,-0.18752190138588073,-0.6400921961893073,0.6175058444788544
1781555366300427264,0.3864591121673584,-1.1576696634292603,-0.21576061844825745,0.24737246334552765,-0.5880391597747803,0.19651666283607483,-0.7845961451530457,0.033138155937194824,-0.08207577466964722,0.037739455699920654,-0.8907240066383663,-0.005544540269704537,0.32813289728166745,-0.3144975431555699,-0.19780404335760507,-0.6431682965800745,0.6127437073481191
1781555366310462208,0.39649415016174316,-1.2596924304962158,-0.19615362584590912,0.2731987237930298,-0.5891509652137756,0.20754046738147736,-0.7809149026870728,0.033258020877838135,-0.06775470077991486,0.029160141944885254,-0.8899858439699464,-4.7814320758570455e-05,0.330972103797611,-0.31366024078331717,-0.20906001285810655,-0.6463346265007043,0.607437936817163
1781555366320497152,0.40652894973754883,-1.432277798652649,-0.16767936944961548,0.2704775035381317,-0.5899869799613953,0.21961848437786102,-0.7769705057144165,0.025106608867645264,-0.05427424609661102,0.029381394386291504,-0.8892324310654541,0.0060954573154382,0.33388260941380765,-0.31265169594234987,-0.2214233906155422,-0.6494537566010398,0.601382329107039
1781555366330532096,0.4165639877319336,-1.6036157608032227,-0.17055411636829376,0.28026703000068665,-0.5906650424003601,0.2330891489982605,-0.7725181579589844,0.010281682014465332,-0.0478779673576355,0.032268524169921875,-0.8884507441627828,0.013093135932970814,0.33700072406718484,-0.31131081858971194,-0.23525313480246282,-0.6527778798893744,0.5940989240976623
1781555366340567040,0.42659902572631836,-1.736227035522461,-0.17950233817100525,0.3058895766735077,-0.5913246273994446,0.24772778153419495,-0.7674413323402405,0.011643171310424805,-0.05511605739593506,0.024658679962158203,-0.887550590486033,0.020753030233902344,0.34036544768956906,-0.30979798085163285,-0.2503342303511848,-0.6565015748179058,0.5860011243743074
1781555366350602240,0.4366340637207031,-1.8981010913848877,-0.1928425133228302,0.3040141761302948,-0.5919630527496338,0.26347678899765015,-0.7616821527481079,0.012190103530883789,-0.062335461378097534,0.01716005802154541,-0.8865323854454078,0.029074595159768755,0.3439674368051555,-0.30806064697266344,-0.26662459123030063,-0.660669732816203,0.5769669020137844
1781555366360637184,0.4466691017150879,-2.0059292316436768,-0.2169899344444275,0.30547332763671875,-0.5927061438560486,0.28016579151153564,-0.7551202774047852,0.007745206356048584,-0.057494282722473145,0.004021644592285156,-0.8853795913853599,0.03797954823541689,0.34784684852066555,-0.3060443864775427,-0.2839668057279653,-0.6654756175622547,0.5668950105615421
1781555366370672128,0.45670413970947266,-2.037182331085205,-0.2162778079509735,0.3017424941062927,-0.5934665203094482,0.297245055437088,-0.7479591369628906,0.003134489059448242,-0.04416278004646301,-0.018383026123046875,-0.884100456899265,0.047168752794205404,0.3518458951972601,-0.3038847608835056,-0.3018059809069374,-0.6707328775470206,0.5562462689537221
1781555366380708096,0.46674013137817383,-2.015949249267578,-0.19375678896903992,0.29586195945739746,-0.59408038854599,0.3141891658306122,-0.740509033203125,-0.0033011436462402344,-0.02819371223449707,-0.034393250942230225,-0.8827595850313013,0.0563925705901559,0.35576025776201287,-0.3016455568201254,-0.31960244925487746,-0.6761171774107817,0.5453337709408018
1781555366390743040,0.4767749309539795,-1.9969611167907715,-0.1773393154144287,0.30959081649780273,-0.594487726688385,0.33080801367759705,-0.7329054474830627,-0.00483173131942749,-0.010281890630722046,-0.03856360912322998,-0.8813587189998805,0.06552685178527237,0.35951842386869914,-0.2994320756631805,-0.33715967414512815,-0.681495797414646,0.5344604574873042
1781555366400777984,0.48680996894836426,-2.04343843460083,-0.171860933303833,0.3231993317604065,-0.5946733355522156,0.34746503829956055,-0.7250046133995056,0.007530391216278076,0.005791187286376953,-0.048570215702056885,-0.8798571012691365,0.07475725848616828,0.36319284836436533,-0.29724378598136,-0.35486634829448427,-0.6869574844049969,0.5234941472044374
1781555366410813184,0.496845006942749,-2.1349258422851562,-0.1857622265815735,0.32260942459106445,-0.5948058366775513,0.3644739091396332,-0.7164947390556335,0.027117908000946045,0.014768034219741821,-0.06245112419128418,-0.8782226463833661,0.08428492801217422,0.36694505586852694,-0.29491070765938626,-0.3730677974196984,-0.6928630398976907,0.5118975756978181
1781555366420848128,0.5068800449371338,-2.2784512042999268,-0.20432020723819733,0.34731024503707886,-0.5949264764785767,0.38222697377204895,-0.7070820331573486,0.04086458683013916,0.0009059607982635498,-0.06031298637390137,-0.8763847268081891,0.09432964035366816,0.37089202749149025,-0.29238812913533907,-0.3922050546889308,-0.6994698571501151,0.4993770475759363
1781555366430883072,0.5169150829315186,-2.423251152038574,-0.22409217059612274,0.37860825657844543,-0.5949923992156982,0.4009634256362915,-0.696571946144104,0.03868746757507324,-0.019234299659729004,-0.0629342794418335,-0.8742836995377128,0.10503459660153948,0.3750756915659508,-0.2896793318431283,-0.4125682679954904,-0.7069113056660272,0.48579141330198927
1781555366440918272,0.5269501209259033,-2.5678720474243164,-0.2684415578842163,0.43506139516830444,-0.5950202941894531,0.4206996262073517,-0.6848084330558777,0.0164070725440979,-0.048675090074539185,-0.060095131397247314,-0.871847014684848,0.11639305862928359,0.3795371323096749,-0.2868569756380597,-0.43421637853859324,-0.7153565615626054,0.47121372392357
1781555366450953216,0.5369851589202881,-2.705937147140503,-0.32277774810791016,0.5140970945358276,-0.5949746966362,0.44149670004844666,-0.6716291904449463,-0.0006216168403625488,-0.09191784262657166,-0.02517867088317871,-0.8689841628755568,0.12841030492693103,0.38431261923265125,-0.2840443426803267,-0.4572660557273165,-0.7249521879805922,0.45580346190677046
1781555366460988160,0.5470199584960938,-2.8292620182037354,-0.3569974899291992,0.5766017436981201,-0.594775915145874,0.4632020592689514,-0.6570277810096741,-0.0069696903228759766,-0.13170486688613892,-0.014542043209075928,-0.8656729966448338,0.14102166964030222,0.38935716447667,-0.2812902488063375,-0.4816048228891048,-0.7357093763017242,0.43963230353740823
1781555366471023104,0.5570549964904785,-2.9617836475372314,-0.3850060999393463,0.6312095522880554,-0.5943214297294617,0.4856437146663666,-0.641040027141571,-0.01743394136428833,-0.17961344122886658,-0.0064057111740112305,-0.8619555463644624,0.15422837096082734,0.3945802968924438,-0.2784828622689676,-0.5070993844187948,-0.7475984480572162,0.4224094473755214
1781555366481059072,0.5670909881591797,-3.132878065109253,-0.4141187071800232,0.6616606712341309,-0.5935864448547363,0.5088362097740173,-0.6234909296035767,-0.015559673309326172,-0.20784133672714233,-0.00849759578704834,-0.8578071823611116,0.16811743799292356,0.3999888300925292,-0.2755221264294888,-0.5338323943502598,-0.7608323664927468,0.4037405222248038
1781555366491094016,0.5771260261535645,-3.2237775325775146,-0.4239022135734558,0.6653683185577393,-0.5927141308784485,0.5323877334594727,-0.6043617725372314,-0.0031110048294067383,-0.2072535753250122,-0.0004355311393737793,-0.8532447837863043,0.18253587046612138,0.40558570428526786,-0.2723125984829071,-0.5614188050904735,-0.775668388999585,0.38336861601698347
1781555366501129216,0.5871610641479492,-3.2922229766845703,-0.4298059046268463,0.6609150171279907,-0.5916224122047424,0.5557374358177185,-0.5840709209442139,0.010735571384429932,-0.2240418791770935,0.026987791061401367,-0.8483768051085273,0.19721587739414156,0.4111817696036967,-0.2688722178358324,-0.5892497589837881,-0.7918211032234849,0.36149233584777424
1781555366511164160,0.597196102142334,-3.3572380542755127,-0.4456685185432434,0.6824602484703064,-0.5903528332710266,0.5788623094558716,-0.5624961853027344,0.02773076295852661,-0.22652161121368408,0.030925750732421875,-0.8431316096426033,0.2121248698064566,0.4168392410657155,-0.26528682156082606,-0.6173327519454557,-0.809556767701759,0.3381347928331139
1781555366521199104,0.6072311401367188,-3.4244515895843506,-0.4192795157432556,0.7309311032295227,-0.5885862112045288,0.6017980575561523,-0.5398196578025818,0.023492276668548584,-0.21829897165298462,0.05037879943847656,-0.8375456576521648,0.2273433719152696,0.4223803639975658,-0.2615854916460435,-0.6457505810405405,-0.8285885260138866,0.31328118279929357
1781555366531234048,0.6172659397125244,-3.4357552528381348,-0.3810405135154724,0.809807300567627,-0.5859667062759399,0.6245313286781311,-0.5163366198539734,0.007017791271209717,-0.22726881504058838,0.07285523414611816,-0.831642786249627,0.24284623039145015,0.4276182815210968,-0.25795047799950965,-0.6745312754556163,-0.8484821573751145,0.2873629970774789
1781555366541268992,0.6273009777069092,-3.517371892929077,-0.3241042494773865,0.8503861427307129,-0.58242267370224,0.6469481587409973,-0.49218085408210754,0.00017780065536499023,-0.23917227983474731,0.029213905334472656,-0.8254652604288213,0.2586078884742761,0.4324714301911805,-0.25435728991516654,-0.7035753966119642,-0.8691784555204282,0.2602883836192497
1781555366551304192,0.637336015701294,-3.66709303855896,-0.3638966977596283,0.8362074494361877,-0.5784710049629211,0.669133186340332,-0.46651074290275574,0.015101194381713867,-0.20929425954818726,0.00891488790512085,-0.8188657845331868,0.27484603545088876,0.43726912823636715,-0.2504283135401444,-0.7330417350045849,-0.8921318837254735,0.23048536771670247
1781555366561339136,0.6473710536956787,-3.7707135677337646,-0.43260011076927185,0.8269833326339722,-0.5746095776557922,0.6908069849014282,-0.43887320160865784,0.06878072023391724,-0.14677011966705322,0.015808045864105225,-0.8116938400776903,0.2913971253086668,0.44232466257935893,-0.24615007953195253,-0.7626045874901536,-0.9185364686003499,0.1974139970756732
1781555366571374080,0.6574060916900635,-3.8112452030181885,-0.4952552318572998,0.7986507415771484,-0.570833146572113,0.711631715297699,-0.40954864025115967,0.11168086528778076,-0.0866774320602417,0.014727413654327393,-0.803968296139509,0.30802056909916986,0.4476036310618252,-0.2416805099728947,-0.7918180046637794,-0.9484495993487231,0.16134856216406923
1781555366581410048,0.6674420833587646,-3.749173641204834,-0.5192133188247681,0.7619718313217163,-0.5672057867050171,0.7310912013053894,-0.37918776273727417,0.11133414506912231,-0.038037002086639404,0.023627400398254395,-0.795850868764981,0.32436208179044373,0.45298494241828724,-0.237097878330016,-0.8199199663035871,-0.981512542698585,0.1227310131150341
1781555366591445248,0.6774771213531494,-3.7650210857391357,-0.49067234992980957,0.7619121670722961,-0.5634436011314392,0.7490666508674622,-0.34846869111061096,0.08204412460327148,-0.009595274925231934,0.005451083183288574,-0.787553697922691,0.3403902743954377,0.45814857927900254,-0.23236502842809076,-0.8466521190369033,-1.0169120454956402,0.0817539399782915
1781555366601480192,0.6875121593475342,-3.848698616027832,-0.4245615005493164,0.8235699534416199,-0.5589434504508972,0.7662355303764343,-0.3169627785682678,0.05631893873214722,-0.015747249126434326,-0.020531117916107178,-0.7789283579843883,0.35664486055218897,0.46295037279062656,-0.22749087045613878,-0.8729620003513575,-1.0549383770540313,0.03764030638206759
1781555366611515136,0.6975469589233398,-4.044155120849609,-0.37395983934402466,0.853883683681488,-0.5535445213317871,0.7828450798988342,-0.28415146470069885,0.04011678695678711,-0.06540733575820923,-0.04441601037979126,-0.7698470935518948,0.3734961462459814,0.46735949927918075,-0.22228631348784877,-0.8992252553929095,-1.0965410526800055,-0.01102692735409058
1781555366621550080,0.7075819969177246,-4.155642509460449,-0.5047457814216614,0.8052465915679932,-0.548119306564331,0.7984422445297241,-0.24910901486873627,0.036003828048706055,-0.11010301113128662,-0.06075119972229004,-0.7600221925511497,0.3907621393389435,0.47196445483623467,-0.21661212551384493,-0.9247034321182312,-1.1442234516082688,-0.06580651747699465
1781555366631585024,0.7176170349121094,-4.112105846405029,-0.5872843861579895,0.8908699154853821,-0.5426568388938904,0.812598466873169,-0.21262016892433167,0.043587684631347656,-0.14258503913879395,-0.06652413308620453,-0.7495055430618665,0.4078005624321088,0.4768528288208327,-0.21107234076594109,-0.9485967365547876,-1.1973673187938554,-0.12475531614604192
1781555366641620224,0.7276520729064941,-4.1063313484191895,-0.54988032579422,0.9860076308250427,-0.5360012650489807,0.825724184513092,-0.17573395371437073,0.04117399454116821,-0.16591876745224,-0.031373634934425354,-0.7385565224684432,0.4248177376580529,0.48131373421057877,-0.20591595889596961,-0.9714848350044082,-1.2539788663563496,-0.18684102962146507
1781555366651655168,0.7376871109008789,-4.020801067352295,-0.5063003301620483,1.0347099304199219,-0.5282752513885498,0.8376562595367432,-0.13877055048942566,-0.0024101734161376953,-0.15918952226638794,-0.005501314997673035,-0.7272826832497308,0.44167946685812526,0.48531842668659186,-0.20110980903738226,-0.9929779640440085,-1.3139139241525886,-0.2519874305616389
1781555366661690112,0.7477221488952637,-4.010520935058594,-0.4959760010242462,1.0599391460418701,-0.5200827717781067,0.8479851484298706,-0.10215194523334503,-0.016019463539123535,-0.11505979299545288,0.00695241242647171,-0.715974692623252,0.4583274206562195,0.4887330585801159,-0.19610241115084368,-1.0121721564969224,-1.3768504560677448,-0.32092287532784136
1781555366671725056,0.7577569484710693,-3.6358470916748047,-0.44122594594955444,0.9992491006851196,-0.5115806460380554,0.8566197156906128,-0.06699083745479584,0.015273332595825195,-0.031455039978027344,-0.015040390193462372,-0.7048724989642897,0.4741087510336423,0.4916558480790594,-0.19144209970213902,-1.0286819660583466,-1.4405884624379912,-0.39032397606123687
1781555366681760000,0.7677919864654541,-3.0711660385131836,-0.598895251750946,0.9182900786399841,-0.5036194324493408,0.8632025122642517,-0.0353391058743,0.052645981311798096,0.011888980865478516,-0.0950930118560791,-0.6945659824410833,0.48776273737433024,0.49438644781539137,-0.1877435059784716,-1.04157905189683,-1.500740903099539,-0.4541624172746941
1781555366691795968,0.7778279781341553,-2.5533652305603027,-0.640139639377594,0.940338134765625,-0.4957466721534729,0.8684313893318176,-0.00787939690053463,0.06451809406280518,0.04920166730880737,-0.10421168804168701,-0.6852093311169071,0.4991399413076878,0.4969100728921856,-0.18554732497230728,-1.0520297042053992,-1.5549036665053064,-0.5093876299490677
1781555366701831168,0.78786301612854,-2.2678425312042236,-0.5822755098342896,1.041125774383545,-0.48709312081336975,0.8732009530067444,0.016138793900609016,0.04301658272743225,0.032026708126068115,-0.019724607467651367,-0.6766837184086726,0.5092445226096691,0.49873782014568485,-0.1844716857312442,-1.0617321378992317,-1.6039170817448691,-0.5586006500439115
1781555366711866112,0.7978980541229248,-2.0676472187042236,-0.5996561050415039,1.2191513776779175,-0.47703036665916443,0.8780662417411804,0.037971675395965576,0.015345185995101929,-0.04530256986618042,0.0501784086227417,-0.6686109287035084,0.5188606415856543,0.49976941905456146,-0.18431944677178536,-1.0718061231598048,-1.6502289626144084,-0.6049248467844947
1781555366721901056,0.8079330921173096,-1.8244210481643677,-0.47413769364356995,1.1261301040649414,-0.46657949686050415,0.8826032280921936,0.057577215135097504,0.011364012956619263,-0.1309095025062561,0.02581202983856201,-0.661160069259178,0.5277985665086334,0.5002172326424038,-0.18460436443503747,-1.0813711557274754,-1.693578383032187,-0.6484308719026078
1781555366731936256,0.8179681301116943,-1.7429920434951782,-0.49583208560943604,1.2875992059707642,-0.4556979537010193,0.8869261741638184,0.07550665736198425,0.0086611807346344,-0.18097835779190063,-0.02396249771118164,-0.6541321678710591,0.5361850609404716,0.5002588404633833,-0.18535843162491708,-1.0906474846161662,-1.7349989830078119,-0.6898349219939751
1781555366741970944,0.8280029296875,-1.7487177848815918,-0.53551185131073,1.6199389696121216,-0.4417712986469269,0.8922138810157776,0.09376765787601471,0.03800851106643677,-0.19943439960479736,0.0014471933245658875,-0.6465122201713409,0.5451323788884546,0.499714437748466,-0.18745143557322622,-1.102223808729178,-1.779946199624839,-0.7337943671180162
1781555366752006144,0.8380379676818848,-1.5815343856811523,-0.47126907110214233,1.5376896858215332,-0.4272273778915405,0.8973252773284912,0.11083462834358215,0.04613912105560303,-0.27757424116134644,-0.017801761627197266,-0.6392374811800575,0.5539917150215159,0.498508269206667,-0.18962646155497906,-1.113671580415953,-1.824628286404951,-0.7784070608878466
1781555366762041088,0.8480730056762695,-1.6561145782470703,-0.4733940064907074,1.6407926082611084,-0.41237491369247437,0.9020833969116211,0.12724977731704712,0.03201910853385925,-0.3685598373413086,-0.025504112243652344,-0.632067684170389,0.5625894874510877,0.49710959992389203,-0.19200404832611953,-1.1245729554193966,-1.8701040309412154,-0.8236876233660901
1781555366772076032,0.8581080436706543,-1.6926947832107544,-0.6868014931678772,1.9013011455535889,-0.39576616883277893,0.9068607091903687,0.14482104778289795,0.09162795543670654,-0.3277285099029541,0.039856091141700745,-0.6241984469027951,0.5717475392493371,0.495494979616143,-0.19484843736142285,-1.1357741511694415,-1.9215878913863975,-0.87456127001115
1781555366782112000,0.8681440353393555,-1.6194801330566406,-0.5457658171653748,1.8162672519683838,-0.377627432346344,0.9116435647010803,0.16218511760234833,0.12018105387687683,-0.2776711583137512,0.041687652468681335,-0.61605370554046,0.5808897565453055,0.493618929037498,-0.19845772027467795,-1.147265569557805,-1.9764592146657052,-0.9279825477818533
1781555366792147200,0.8781790733337402,-1.4712835550308228,-0.5724931955337524,1.8312203884124756,-0.36000514030456543,0.9157207608222961,0.1784719079732895,0.10919636487960815,-0.22948700189590454,0.029841110110282898,-0.6082931961361507,0.5895833430245355,0.49155613741583437,-0.20185047681484145,-1.1572980141681193,-2.031036723382996,-0.9815712739941446
1781555366802182144,0.888214111328125,-1.3359891176223755,-0.636721670627594,1.8449625968933105,-0.3419533967971802,0.9195932149887085,0.19343245029449463,0.12787264585494995,-0.17372840642929077,0.08027969300746918,-0.600774781385306,0.5977114067035814,0.4893437407125117,-0.2057994530320464,-1.1670438458641288,-2.085589857912896,-1.0343957933046815
1781555366812217344,0.8982491493225098,-1.1700600385665894,-0.7003037333488464,1.8684217929840088,-0.3234318196773529,0.9232524037361145,0.20735670626163483,0.1418675184249878,-0.130726158618927,0.08742785453796387,-0.5933731354494323,0.605332215172337,0.4870844539681748,-0.2103091691251979,-1.1764617040069818,-2.140899497640514,-1.087056600270045
1781555366822252032,0.9082839488983154,-0.9689779877662659,-0.7498427629470825,1.8808521032333374,-0.3044954240322113,0.9268628358840942,0.21956245601177216,0.1151643693447113,-0.12284684181213379,0.05398187041282654,-0.5863449012934678,0.6122950941982321,0.48464001387896777,-0.21544920958030495,-1.1859678309171366,-2.19552358753239,-1.13827629643921
1781555366832286976,0.9183189868927002,-0.683553159236908,-0.7608628273010254,1.8900724649429321,-0.2852356433868408,0.9305604100227356,0.22955971956253052,0.06523445248603821,-0.11407798528671265,0.02719983458518982,-0.579876953938369,0.6184711683150782,0.48194737529620413,-0.22127523778834574,-1.1959404332954737,-2.248461662269169,-1.1871078149931051
1781555366842322176,0.928354024887085,-0.38127589225769043,-0.825288712978363,1.9443902969360352,-0.2655145525932312,0.9346036314964294,0.23668090999126434,0.04264470934867859,-0.037264883518218994,-0.0259266197681427,-0.5741767984755269,0.6237136854698572,0.4788754480817888,-0.22799225948343574,-1.2071431039545715,-2.2988422701856637,-1.2326349034798985
1781555366852357120,0.9383890628814697,-0.16599953174591064,-0.8816878199577332,2.028611421585083,-0.24477078020572662,0.939059317111969,0.2413603961467743,0.024204999208450317,0.028820931911468506,-0.04209589958190918,-0.5689856453637991,0.6282404417086089,0.4753884180223101,-0.2357438131975917,-1.2198835813097895,-2.3491792646343,-1.277211938325697
1781555366862392064,0.9484241008758545,0.03469069302082062,-0.9324460625648499,2.06455397605896,-0.22316816449165344,0.9437211155891418,0.24410314857959747,0.01795269548892975,0.010258316993713379,-0.04677654802799225,-0.5641517947102324,0.6322061592458518,0.4715579986949865,-0.24429722685839955,-1.2337062710709186,-2.400967189451311,-1.3225386067452185
1781555366872427264,0.9584591388702393,0.1416166126728058,-0.9773421287536621,2.065028429031372,-0.20123818516731262,0.9483330249786377,0.2452910840511322,0.021169200539588928,-0.045928239822387695,-0.06107175350189209,-0.559615655248011,0.6356342925642574,0.46756239042858666,-0.2533471545824855,-1.2479398817405192,-2.454532507034932,-1.369074296449555
1781555366882463232,0.9684951305389404,0.25185495615005493,-1.0375746488571167,2.064337730407715,-0.179061159491539,0.9527650475502014,0.2453073114156723,0.0453789085149765,-0.030951201915740967,-0.047858625650405884,-0.5552275649572653,0.6385945237751435,0.46351989296108786,-0.2628090847838747,-1.2622138563118845,-2.5110499499056655,-1.4178943534804342
1781555366892497920,0.9785299301147461,0.3577297329902649,-1.1401156187057495,2.077134609222412,-0.15654970705509186,0.9569984078407288,0.24422626197338104,0.08339907228946686,0.02012878656387329,-0.04718944430351257,-0.5509031424107489,0.6410838283075142,0.4594830300188789,-0.27275027337097,-1.2764722281839727,-2.5715683929015283,-1.4698379879394767
1781555366902533120,0.9885649681091309,0.4619735777378082,-1.2355809211730957,2.075875759124756,-0.13367393612861633,0.9610282182693481,0.2419845461845398,0.11234214901924133,0.031968116760253906,-0.04481038451194763,-0.5466083401407202,0.6430521211907438,0.45549559927237926,-0.2832441075180339,-1.2906977600467295,-2.6369033898703513,-1.5255160880029268
1781555366912568064,0.9986000061035156,0.5383626818656921,-1.2888281345367432,2.0995280742645264,-0.11046308279037476,0.9647961258888245,0.23867611587047577,0.11563584208488464,0.01671016216278076,-0.03663457930088043,-0.5423331293662155,0.6445954053355659,0.45148070265699175,-0.2941711965876951,-1.3046670738200932,-2.708132362941429,-1.5863097886752158
1781555366922603008,1.0086350440979004,0.575221061706543,-1.2907072305679321,2.141810655593872,-0.08683159947395325,0.9682121276855469,0.23457512259483337,0.10262443125247955,0.004352569580078125,-0.02871882915496826,-0.5380268011271635,0.6459287478866184,0.44728471128140784,-0.3053515793167796,-1.3179813284077486,-2.7870672406708903,-1.654558874550168
1781555366932638208,1.0186700820922852,0.6180161833763123,-1.264961838722229,2.1851253509521484,-0.06280303001403809,0.9712293744087219,0.22971507906913757,0.08805634826421738,-0.01648712158203125,-0.008035466074943542,-0.5337341446980619,0.647152161502521,0.4427771688797421,-0.3166547074813931,-1.330339819249212,-2.8747189053213935,-1.731695280007922
1781555366942673152,1.02870512008667,0.6818439364433289,-1.2196987867355347,2.232854127883911,-0.03840482234954834,0.9738234281539917,0.22403785586357117,0.08981169760227203,-0.051704347133636475,0.011542558670043945,-0.5295087308371305,0.6482921960890635,0.4378768705755678,-0.32802680144377316,-1.3414862686566256,-2.9718216106803053,-1.8186736394122747
1781555366952708352,1.0387401580810547,0.7904406785964966,-1.1578062772750854,2.2858104705810547,-0.013680743984878063,0.9760435819625854,0.21714438498020172,0.08669405430555344,-0.054824769496917725,0.02925454080104828,-0.525532968530332,0.6492881355443855,0.43243162525211826,-0.33947440539357887,-1.3514669527528294,-3.0786728343538843,-1.9160541398399131
1781555366962743040,1.0487749576568604,0.905319333076477,-1.1093850135803223,2.28391170501709,0.011206247843801975,0.9778806567192078,0.20886315405368805,0.09041728079319,-0.033270061016082764,0.025344014167785645,-0.5218726574712935,0.6500302073889257,0.426488338475545,-0.35102326637349873,-1.3600766744338704,3.0879905046548664,-2.023634964454975
1781555366972777984,1.0588099956512451,1.003889560699463,-1.1283276081085205,2.278433084487915,0.03584965318441391,0.9793089628219604,0.19916963577270508,0.1068200021982193,0.008331298828125,-0.012356311082839966,-0.51857220543616,0.65037811738375,0.4202298472359667,-0.36262650663213025,-1.3670182272283107,2.963504010497169,-2.13946945032591
1781555366982813952,1.0688459873199463,1.1040318012237549,-1.3582888841629028,2.5322446823120117,0.0628729909658432,0.9801793694496155,0.18787026405334473,0.1468895673751831,0.07862794399261475,-0.02135111391544342,-0.5146859814949316,0.650274309264903,0.41361631166523927,-0.37571684830266716,-1.371364893857977,2.8186469867175927,-2.273522309632521
1781555366992849152,1.078881025314331,1.0320279598236084,-1.2054753303527832,2.2020785808563232,0.08781875669956207,0.9803088307380676,0.17686855792999268,0.14408431947231293,0.0938335657119751,-0.031131863594055176,-0.5110609704862966,0.6500212802668994,0.4073163563195358,-0.3877917203707983,-1.3720194095880394,2.680733008585952,-2.4015503760739954
1781555367002884096,1.0889160633087158,1.0458825826644897,-1.317739486694336,2.2573068141937256,0.11203934997320175,0.9798889756202698,0.16512075066566467,0.11795637756586075,0.043731629848480225,-0.08527147769927979,-0.5075292681462794,0.6493364661838833,0.4011515065232019,-0.39981707456739407,-1.3699042846936098,2.5454220218763792,-2.5266022097624155
1781555367012919296,1.0989511013031006,1.0011433362960815,-1.358530879020691,2.2578980922698975,0.13632544875144958,0.9786978960037231,0.1535114347934723,0.13363303244113922,0.01963883638381958,-0.0756915956735611,-0.5035626120875394,0.6485490463860145,0.3951453509097272,-0.41190893884115837,-1.3640203400623667,2.4154204932563488,-2.645641773003258
1781555367022954240,1.1089861392974854,0.9950758814811707,-1.40904700756073,2.2793197631835938,0.16064076125621796,0.9768022298812866,0.14160452783107758,0.09657663106918335,0.022450029850006104,-0.09750665724277496,-0.49933402931589815,0.6475789688589724,0.38915773795814207,-0.424102841351276,-1.354981536182282,2.2932948649415588,-2.7562935812649156
1781555367032988928,1.119020938873291,0.9797837138175964,-1.4991695880889893,2.340763568878174,0.18520940840244293,0.9741400480270386,0.12941595911979675,0.10585196316242218,0.02389150857925415,-0.10387279093265533,-0.4947404825073179,0.6464496357848484,0.38315904121314703,-0.4364902999066399,-1.3428831309733975,2.180686092580947,-2.8567717333737317
1781555367043024128,1.1290559768676758,0.9642894864082336,-1.5342426300048828,2.3546013832092285,0.2100272923707962,0.9706777334213257,0.11693370342254639,0.10778279602527618,0.022166013717651367,-0.09105478227138519,-0.489758322649873,0.6451562784583291,0.37714748770619166,-0.449076882291461,-1.3280343826085887,2.07881075303166,-2.9458239231911842
1781555367053059072,1.1390910148620605,0.9420070648193359,-1.5629862546920776,2.3818390369415283,0.23474843800067902,0.9664554595947266,0.10419680178165436,0.09310190379619598,0.05071061849594116,-0.11438966542482376,-0.4845394929343889,0.6437329885280667,0.3710879170085125,-0.461652540235219,-1.3110512041999456,1.9885373645609943,-3.023007880317891
1781555367063094016,1.1491260528564453,0.9275397062301636,-1.6454753875732422,2.3864169120788574,0.25940170884132385,0.9614542126655579,0.09119464457035065,0.13480907678604126,0.08935749530792236,-0.11069536954164505,-0.4789850279682931,0.6421184506327164,0.36507700056497466,-0.47431633121170025,-1.2922429501811117,1.9088580975927485,-3.0889634136744593
1781555367073129216,1.15916109085083,0.8836420178413391,-1.6782233715057373,2.3541738986968994,0.28360918164253235,0.9557675719261169,0.07793661952018738,0.18478983640670776,0.07607746124267578,-0.07950831204652786,-0.4731672315753819,0.6402471411748644,0.359237953061941,-0.48697479111763287,-1.272258566185725,1.838979260642749,3.1387404996936032
1781555367083165184,1.1691970825195312,0.798325777053833,-1.6607911586761475,2.3395302295684814,0.30726388096809387,0.9494106769561768,0.06487103551626205,0.18525931239128113,0.05966830253601074,-0.04268479347229004,-0.4670747994698587,0.6383023561535867,0.35356133613481044,-0.4994052345968748,-1.2513538669811277,1.7788655810940373,3.093295734018991
1781555367093200128,1.179232120513916,0.8307687044143677,-1.635077953338623,2.299008846282959,0.33029788732528687,0.9424425363540649,0.052011989057064056,0.17843011021614075,0.07014590501785278,0.008153434842824936,-0.46082880363365636,0.6363494345900248,0.34794452481611654,-0.5114985312410698,-1.2298615690755526,1.726983720158948,3.0559597636920612
1781555367103235328,1.1892671585083008,0.9117580652236938,-1.5378257036209106,2.203531503677368,0.352217435836792,0.9351320266723633,0.038351304829120636,0.17161676287651062,0.08641326427459717,0.009118791669607162,-0.4550189081247324,0.6341169826261849,0.34215684244945266,-0.5232418648890809,-1.208631455475256,1.6792543568022709,3.0221014594516213
1781555367113270016,1.1993019580841064,1.0994994640350342,-1.438188910484314,2.129295825958252,0.3729725778102875,0.9275407791137695,0.023654203861951828,0.13854774832725525,0.1611279845237732,0.0076568108052015305,-0.4498826170082642,0.631609353303343,0.3360010814177816,-0.5345825464332209,-1.1877777782211734,1.6341322591747907,2.9896773835873405
1781555367123304960,1.2093369960784912,1.3385636806488037,-1.321925401687622,2.0001134872436523,0.392334908246994,0.9197962880134583,0.006945228204131126,0.12371733784675598,0.25976914167404175,0.020032286643981934,-0.44586048145701174,0.6285443670091329,0.32924852725503906,-0.5456517934788654,-1.1675610175813094,1.5884967722675514,2.9553102512651273
1781555367133340160,1.219372034072876,1.3941614627838135,-1.2551496028900146,1.9022865295410156,0.4102073609828949,0.9119290113449097,-0.01074681244790554,0.1029457151889801,0.36652863025665283,0.03586280345916748,-0.44266613228806756,0.625141839087762,0.3222177441264829,-0.556255461766397,-1.1479606652814034,1.5446038297247642,2.92144981540822
1781555367143375104,1.2294070720672607,1.520188331604004,-1.141463041305542,1.7510703802108765,0.42667919397354126,0.9039333462715149,-0.02914082631468773,0.08349835872650146,0.39725977182388306,0.06962239742279053,-0.4401502264329814,0.6214394059220089,0.31502801671677766,-0.5664256980208884,-1.128878961227713,1.5026054117102243,2.8885141685693054
1781555367153410304,1.2394421100616455,1.6308295726776123,-1.0358483791351318,1.5751100778579712,0.44125857949256897,0.8960926532745361,-0.048049140721559525,0.05631524324417114,0.3561961054801941,0.04070967808365822,-0.43857056391965965,0.6174598260916443,0.3077641852641277,-0.5759169864823248,-1.110886784761587,1.4623325593725343,2.8558883978425307
1781555367163445248,1.2494771480560303,1.8106651306152344,-0.9286286234855652,1.4303903579711914,0.45412591099739075,0.8883366584777832,-0.06802695244550705,0.03505560755729675,0.4096064567565918,0.033114850521087646,-0.4380585631632777,0.6130609833743581,0.30023783033976487,-0.5849087076460756,-1.0937100876693768,1.4221043734839731,2.8218825454048075
1781555367173479936,1.259511947631836,1.644518494606018,-0.8948067426681519,1.355075716972351,0.46572571992874146,0.8805896043777466,-0.08753068000078201,0.00587773323059082,0.5269727110862732,0.04903274029493332,-0.4378982314970648,0.6086502632891646,0.2928814074706836,-0.5933047878293648,-1.0771050276488054,1.385018827464639,2.790250846486028
1781555367183515904,1.269547939300537,1.8620710372924805,-0.814399242401123,1.20101797580719,0.4762322008609772,0.8728053569793701,-0.10683518648147583,-0.021062523126602173,0.5470402240753174,0.09378892183303833,-0.4380618584613792,0.6041408813070236,0.28565048885397465,-0.6012648659207939,-1.0609209933467938,1.3501156587469993,2.7602651878542566
1781555367193551104,1.2795829772949219,2.228531837463379,-0.6756575107574463,0.9898422956466675,0.48488351702690125,0.865109920501709,-0.12834706902503967,-0.041142672300338745,0.476107120513916,0.006673455238342285,-0.4398937732153864,0.598898402526155,0.2777537946236998,-0.6088243443502183,-1.0453694367175879,1.3120340215402078,2.7250443955220893
1781555367203586048,1.2896180152893066,2.3349974155426025,-0.7669285535812378,0.9809473156929016,0.492258220911026,0.8571963310241699,-0.1513156145811081,-0.05048573017120361,0.5365567207336426,0.031045854091644287,-0.4426886107681615,0.5930549141300407,0.2694959428774303,-0.6161855823420191,-1.0298006462612332,1.2725729103879573,2.687486935170974
1781555367213621248,1.2996530532836914,2.315842628479004,-0.6684441566467285,0.8916893601417542,0.49922245740890503,0.8485872745513916,-0.17514756321907043,-0.03073185682296753,0.4970242977142334,0.08382368087768555,-0.4458400969198273,0.5868358102157569,0.26086385242192184,-0.623538629418833,-1.013309216726647,1.233372739379939,2.6497895137909144
1781555367223656192,1.3096880912780762,2.0264477729797363,-0.6749638915061951,0.7993066906929016,0.5051892399787903,0.8402220010757446,-0.19700488448143005,-0.05571109056472778,0.29811418056488037,0.11378341913223267,-0.4487067890805877,0.5809404725158597,0.25299352917936446,-0.6302100436465541,-0.9976924929132225,1.1989727428710584,2.6169514933757396
1781555367233691136,1.319723129272461,1.7232331037521362,-0.6691045761108398,0.7622008919715881,0.5103098750114441,0.832459568977356,-0.21585798263549805,-0.04227709770202637,0.160048246383667,0.13970139622688293,-0.4507117577960359,0.575621162294912,0.24643718241434012,-0.6362293386151371,-0.9835319875754377,1.1706260529202612,2.591190801786678
1781555367243726080,1.3297579288482666,1.5179944038391113,-0.6743797659873962,0.6852640509605408,0.5147832036018372,0.8250543475151062,-0.23298853635787964,-0.027509033679962158,0.0461156964302063,0.05891627073287964,-0.4522900185842462,0.5706135843673678,0.24063638964217895,-0.6418162170412647,-0.9702983467838333,1.145786147327664,2.5694210523601244
1781555367253761024,1.3397929668426514,1.2258682250976562,-0.6243066787719727,0.638333261013031,0.5186681747436523,0.8183221220970154,-0.2476537972688675,-0.03603261709213257,-0.036721110343933105,0.03396967053413391,-0.45329471981349956,0.5661953650394412,0.23578784878775175,-0.6468005299532892,-0.9584857030328889,1.125326275532977,2.55242073659494
1781555367263795968,1.3498280048370361,0.8532156944274902,-0.6474607586860657,0.5898357629776001,0.5220772624015808,0.8124464750289917,-0.2595495283603668,-0.01810997724533081,-0.0544050931930542,0.04025024175643921,-0.45354071551925484,0.5624709255126753,0.23205967065012717,-0.6512108148623632,-0.9483360137712622,1.1094331374891921,2.540676081187436
1781555367273830912,1.3598628044128418,0.32667168974876404,-0.6937115788459778,0.5694516897201538,0.5249955654144287,0.807841420173645,-0.26790285110473633,0.004896402359008789,-0.05938255786895752,0.06866884231567383,-0.45255167844438376,0.5595945350475038,0.23000549944897325,-0.655094226636803,-0.9404805702747793,1.098946301239236,2.5360149782929797
1781555367283866880,1.369898796081543,-0.11337839812040329,-0.7453441619873047,0.551956057548523,0.5275746583938599,0.8046122193336487,-0.2725149989128113,0.016416490077972412,-0.10200589895248413,0.09536042809486389,-0.45012108651875044,0.5576289689716942,0.2297660539361896,-0.6585200659838589,-0.9350221462627609,1.0940020742413374,2.5389502592447615
1781555367293901824,1.3799338340759277,-0.5982339978218079,-0.6924192905426025,0.45658665895462036,0.529670000076294,0.8028597235679626,-0.27361661195755005,0.0026938915252685547,-0.17938560247421265,0.06458646059036255,-0.4466526151300734,0.5565779584271558,0.23111180393531036,-0.661294072485205,-0.932076700169967,1.0939733469553157,2.547976452761401
1781555367303937024,1.3899688720703125,-1.166115403175354,-0.6738632321357727,0.3993540108203888,0.5312802791595459,0.8030445575714111,-0.2699272334575653,-0.0324704647064209,-0.17830395698547363,0.09550398588180542,-0.44196659810498723,0.5568679626788309,0.23438101233467182,-0.6630453634808472,-0.9323867980056146,1.1007140994750102,2.564656264541493
1781555367313971712,1.4000036716461182,-1.4350658655166626,-0.7012903094291687,0.3409636616706848,0.532425045967102,0.8045737147331238,-0.2630300223827362,-0.03503429889678955,-0.10564488172531128,0.11782735586166382,-0.43622153432227273,0.5578923318865742,0.2392511974221486,-0.6642483272342585,-0.9349572865718122,1.1119420395454522,2.5873073414674708
1781555367324006912,1.410038709640503,-1.6709697246551514,-0.6957412958145142,0.2561987042427063,0.5330276489257812,0.8069897890090942,-0.2542617917060852,-0.02127838134765625,-0.05261051654815674,0.054798901081085205,-0.43003323493682316,0.5592825190118719,0.24509624410106406,-0.6649829917787113,-0.9390370829172067,1.1257058285241168,2.613117030109509
1781555367334041856,1.4200737476348877,-1.9318753480911255,-0.6911605596542358,0.1773023009300232,0.5330435037612915,0.8103403449058533,-0.24333778023719788,-0.02249962091445923,-0.0023722052574157715,0.08002299070358276,-0.4233743740783026,0.5610949616484642,0.2519991174866686,-0.6651489226733044,-0.9447327061969811,1.142544841334218,2.6425664313086297
1781555367344076800,1.4301087856292725,-2.159200668334961,-0.6630402207374573,0.0966910719871521,0.5325501561164856,0.814487636089325,-0.23021811246871948,-0.035098373889923096,0.0007894635200500488,0.09967917203903198,-0.4162657236238763,0.5633404484630646,0.25988166417979747,-0.664704483297052,-0.9518455660793887,1.162764059174686,2.675788037897202
1781555367354112000,1.4401438236236572,-2.310197114944458,-0.6109471917152405,0.03619789704680443,0.5316572189331055,0.819113552570343,-0.21539199352264404,-0.05144786834716797,-0.013541042804718018,0.11282241344451904,-0.40888882702318763,0.5659001608672235,0.26844182178490467,-0.6637062672715881,-0.9598639703713974,1.1858726377771918,2.7119544668549116
1781555367364146944,1.450178861618042,-2.483535051345825,-0.5564405918121338,-0.0017737181624397635,0.5305680632591248,0.8240182995796204,-0.19872474670410156,-0.046132028102874756,-0.00015050172805786133,0.10376930236816406,-0.4012193585994359,0.568858479884786,0.27755658847960685,-0.6621068749283884,-0.9684673167785552,1.2124194581574659,2.751366534831989
1781555367374181888,1.4602138996124268,-2.5819225311279297,-0.5023055672645569,0.013249972835183144,0.5296065211296082,0.8288275003433228,-0.18044953048229218,-0.025242507457733154,0.043700575828552246,0.10819917917251587,-0.39314998530203543,0.5721693069873224,0.28704968447937534,-0.6600438784983341,-0.977008784992779,1.2424092096433426,2.794145583244198
1781555367384217856,1.470249891281128,-2.5257256031036377,-0.49621090292930603,-0.01466048788279295,0.5287466645240784,0.8332054018974304,-0.16185098886489868,0.003098428249359131,0.08252030611038208,0.06759744882583618,-0.38508597602768435,0.5754942010923351,0.29644717603797865,-0.6577494328728247,-0.9848794126749026,1.2737498086082646,2.8378784364242886
1781555367394252800,1.4802846908569336,-2.4575181007385254,-0.4781442880630493,-0.029848763719201088,0.5278036594390869,0.8371617794036865,-0.1434689611196518,0.0070168375968933105,0.10665524005889893,-0.0010164827108383179,-0.37720056848218425,0.5786446822752255,0.3056727800361082,-0.6553275015797742,-0.9920732727144698,1.3053865042380246,2.8815615823325342
1781555367404287744,1.4903197288513184,-2.4933557510375977,-0.3857094347476959,-0.06435214728116989,0.5268562436103821,0.8407168984413147,-0.12496925890445709,-0.01428312063217163,0.11111092567443848,-0.03141806274652481,-0.36947412049264045,0.5817800421136934,0.31471789430938385,-0.6526663297356907,-0.9986058128687472,1.3379024039257257,2.925512638481001
1781555367414322944,1.5003547668457031,-2.552225351333618,-0.2962581217288971,-0.08775787055492401,0.5258151888847351,0.8440409302711487,-0.10541926324367523,-0.029446840286254883,0.09466445446014404,-0.005145899951457977,-0.3617994560625617,0.5851848199929334,0.32380409945860006,-0.6494695584233916,-1.0047742254410768,1.372932250106934,2.971108078526218
1781555367424357888,1.510389804840088,-2.6413259506225586,-0.22250960767269135,-0.1276450902223587,0.5246548056602478,0.8470832705497742,-0.0847780629992485,-0.028835713863372803,0.09128648042678833,-0.0044553279876708984,-0.35407406755962106,0.5888183484963202,0.33302240162168034,-0.6457713315248617,-1.0104728774280944,1.4105928253292477,3.018749156399704
1781555367434392832,1.5204248428344727,-2.6783077716827393,-0.1837437003850937,-0.19463211297988892,0.5231083035469055,0.8499294519424438,-0.06306993216276169,-0.024206876754760742,0.08497655391693115,0.006536126136779785,-0.34634115056559583,0.5925895278031235,0.3424947946259683,-0.641547245594178,-1.0158514048449991,1.4508078487405724,3.0685137665347595
1781555367444428032,1.5304598808288574,-2.6123206615448,-0.16211536526679993,-0.225089892745018,0.5212050080299377,0.8524229526519775,-0.04147949814796448,-0.007212698459625244,0.06884169578552246,-0.021783411502838135,-0.33887866878566864,0.5961994499291194,0.3518614323640214,-0.6371036550076276,-1.020602052111825,1.4913798702651093,3.1181757278190494
1781555367454462720,1.540494680404663,-2.6694233417510986,-0.13354256749153137,-0.2415309101343155,0.5191797018051147,0.8544418215751648,-0.019537976011633873,0.012940049171447754,0.050648510456085205,-0.04355710744857788,-0.3313899942552187,0.5997725039923578,0.36125331146378425,-0.6324157795302527,-1.0244754959677342,1.5331816810833838,-3.114282633186268
1781555367464497920,1.5505297183990479,-2.653479814529419,-0.14290252327919006,-0.26258745789527893,0.5170192122459412,0.8559696078300476,0.0027111985255032778,0.017740368843078613,0.03221410512924194,-0.010508418083190918,-0.32386502503905384,0.6032835639290134,0.37068118483659007,-0.6274997465367795,-1.0274232635700218,1.5760401816036875,-3.0625952229597577
1781555367474533888,1.560565710067749,-2.7077512741088867,-0.09109724313020706,-0.26913297176361084,0.5147338509559631,0.8569859862327576,0.02498442865908146,0.018606603145599365,0.03908640146255493,0.013971328735351562,-0.31636295716691654,0.6066627937097202,0.38006903222738214,-0.6224326044968153,-1.0293923205344642,1.6192967980550468,-3.0105894595904608
1781555367484568832,1.5706007480621338,-2.6671321392059326,-0.03564038127660751,-0.29959848523139954,0.512326180934906,0.857459306716919,0.04780949652194977,0.004809558391571045,0.1020592451095581,0.05921567231416702,-0.30890740287309887,0.6101440510301868,0.3893956673042951,-0.6169859171977761,-1.0303115011469801,1.6638453274030638,-2.957893936238133
1781555367494603776,1.5806357860565186,-2.502105474472046,-0.030114319175481796,-0.3406068980693817,0.5095735192298889,0.8575729727745056,0.07002554833889008,-0.013907015323638916,0.15162807703018188,0.03191840648651123,-0.3018608991585745,0.6133983538473227,0.3984410016648721,-0.6114468801169326,-1.0305324287708941,1.7073608843846648,-2.906799358707786
1781555367504638976,1.5906708240509033,-2.3620264530181885,-0.04837748035788536,-0.3452756702899933,0.5066124796867371,0.8573972582817078,0.0906284749507904,-0.002675771713256836,0.16677254438400269,-0.00325668603181839,-0.29539688639632317,0.6162050416115464,0.40694665860325996,-0.6061570256596208,-1.0301909023809386,1.7478149756239285,-2.8591988649779236
1781555367514673920,1.600705862045288,-2.21303129196167,-0.08203531056642532,-0.3472866415977478,0.5036895871162415,0.8568753600120544,0.109825499355793,0.01552128791809082,0.10303992033004761,-0.01813541352748871,-0.2892818020700059,0.6186209032246324,0.41499509507193777,-0.6011683615343943,-1.0291777353181712,1.785478296566904,-2.8144962016360804
1781555367524708864,1.6107409000396729,-2.190176486968994,-0.1003543958067894,-0.3541533350944519,0.500831663608551,0.8559705018997192,0.12838448584079742,0.015098631381988525,-0.002714097499847412,-0.028393596410751343,-0.28322845476844816,0.6207869871631854,0.42286612513584537,-0.5963133137466847,-1.0274249787550183,1.8217355268786553,-2.771033519661528
1781555367534743808,1.6207756996154785,-2.208911657333374,-0.07180623710155487,-0.3729794919490814,0.49785637855529785,0.8547468781471252,0.14678794145584106,0.01294681429862976,-0.02294456958770752,0.030915841460227966,-0.2772635673797395,0.6228378647247581,0.430658759853707,-0.5913805097672692,-1.0250629988706577,1.8575124262538876,-2.7281691402926933
1781555367544778752,1.6308107376098633,-2.133775472640991,0.021364450454711914,-0.38210055232048035,0.49467942118644714,0.8531883358955383,0.16541463136672974,-0.008030861616134644,0.02197951078414917,0.08664524555206299,-0.27146609574876035,0.6249563497162013,0.4383342046648845,-0.5861730754920795,-1.0220676517126637,1.8934953550418014,-2.6857336882304286
1781555367554813952,1.640845775604248,-2.084949493408203,0.06855393201112747,-0.40183109045028687,0.4912353754043579,0.8514641523361206,0.18356725573539734,-0.028710901737213135,0.06073695421218872,0.08083702623844147,-0.2661543560279976,0.6270587096648629,0.4456242805721465,-0.5808427990158157,-1.0187709259576354,1.928413541227022,-2.6453687149696288
1781555367564849920,1.6508817672729492,-2.0416529178619385,0.10887952148914337,-0.43215277791023254,0.48747795820236206,0.8495131731033325,0.20172442495822906,-0.022679954767227173,0.0669143795967102,0.06736433506011963,-0.2610419068475819,0.6291249308794375,0.4528399667670686,-0.5753216344308594,-1.0150618867724335,1.9631529601173785,-2.6056138134062614
1781555367574884864,1.660916805267334,-1.894167423248291,0.09465983510017395,-0.3923715651035309,0.4837121069431305,0.8473705649375916,0.21905677020549774,-0.004555612802505493,0.014476358890533447,0.04844510555267334,-0.25623679968226887,0.6310407683701728,0.45969112790309913,-0.5699248746577533,-1.0110136890270716,1.996031075557128,-2.568120595707888
1781555367584919808,1.6709518432617188,-1.8152379989624023,0.0712575763463974,-0.33896133303642273,0.48042958974838257,0.8449358940124512,0.23509742319583893,0.02127939462661743,-0.04169797897338867,0.007242679595947266,-0.25161332392269575,0.6327662530881286,0.4659995462442179,-0.5649266011847792,-1.0064453504367168,2.0258863464233174,-2.5337734963696565
1781555367594955008,1.6809868812561035,-1.721796989440918,0.07385416328907013,-0.3035343587398529,0.4775245189666748,0.8421410918235779,0.2505367398262024,0.02967756986618042,-0.050744056701660156,-0.0011470615863800049,-0.2470363631883184,0.6344511801984873,0.4719534587175634,-0.5600934116615752,-1.001241404630524,2.0539746528584284,-2.5013752023525266
1781555367604989696,1.6910216808319092,-1.595542311668396,0.07379584014415741,-0.26926958560943604,0.47490888833999634,0.8392446637153625,0.2648211121559143,0.013570815324783325,-0.048900306224823,-0.024251073598861694,-0.24275237975903613,0.6360014436315683,0.4774020481639968,-0.5555725173115558,-0.9958925779862594,2.079474873724216,-2.4719213034291325
1781555367615024896,1.701056718826294,-1.4792386293411255,0.09564986824989319,-0.2635350227355957,0.47244131565093994,0.836314857006073,0.2781670093536377,0.001084744930267334,0.005360066890716553,-0.03839036822319031,-0.23877713167565395,0.6374562514367507,0.4824241132313684,-0.5512731407359419,-0.9905267093655208,2.1029296762941763,-2.4449420101588997
1781555367625059840,1.7110917568206787,-1.4169158935546875,0.09525652229785919,-0.24373334646224976,0.4699980318546295,0.8334347009658813,0.29066914319992065,-0.007671982049942017,0.03454625606536865,-0.05887293815612793,-0.23511898821868105,0.6388000559288978,0.4871027230383908,-0.5471604320337018,-0.9852942212132118,2.124669913940444,-2.420053555844367
1781555367635094784,1.7211267948150635,-1.3189842700958252,0.08415087312459946,-0.1973157823085785,0.4678894579410553,0.8303640484809875,0.30261415243148804,0.0025848448276519775,-0.019282996654510498,-0.053926438093185425,-0.23152470601788697,0.640129335301537,0.4914687279529726,-0.5432212846548149,-0.9797607155270334,2.144893462018616,-2.396865375918944
1781555367645129984,1.7311618328094482,-1.1339004039764404,0.03714980557560921,-0.1540125161409378,0.4662366509437561,0.8273646831512451,0.3131954073905945,0.009807109832763672,-0.036638855934143066,-0.05825147032737732,-0.22817877559385435,0.6412902274311257,0.4953226647247105,-0.5397563146550968,-0.9743994152668912,2.162311267249766,-2.376604404269245
1781555367655164928,1.741196870803833,-0.8682615160942078,0.018367329612374306,-0.0927041545510292,0.46510809659957886,0.8247592449188232,0.3216312527656555,0.004053860902786255,-0.010214567184448242,-0.05687609314918518,-0.2253633175775261,0.6421951456720643,0.49839845862803417,-0.5370249014394,-0.9697762790819374,2.175807874195374,-2.3606135590306545
1781555367665200896,1.7512328624725342,-0.5669282674789429,0.03524111583828926,-0.03075583465397358,0.4645227789878845,0.8227017521858215,0.3276890814304352,-0.006454020738601685,-0.017831265926361084,-0.04833120107650757,-0.22327612941093722,0.6429218768921993,0.5004957523977225,-0.535073008607111,-0.9661474499014032,2.1851584089458287,-2.349579603502342
1781555367675236096,1.761267900466919,-0.29536551237106323,0.03032691963016987,0.012727992609143257,0.4643537402153015,0.8213379979133606,0.33132946491241455,-0.01618790626525879,-0.054538190364837646,-0.04017654061317444,-0.22201392047170126,0.6434637011772908,0.501616584525826,-0.5338960532082141,-0.9637526717649678,2.190544011114893,-2.343428529262947
1781555367685270784,1.7713027000427246,-0.25448358058929443,0.02383546344935894,-0.00014439629740081728,0.4643559455871582,0.8204001188278198,0.3336418569087982,-0.010742723941802979,-0.050090789794921875,-0.027596384286880493,-0.22119555839141203,0.6438602054826382,0.502259850564579,-0.533152420921298,-0.9621104807056091,2.193833759541998,-2.339754355081195
1781555367695305728,1.7813377380371094,-0.1871679425239563,0.012081868946552277,-0.008387678302824497,0.46419557929039,0.8196847438812256,0.3356183171272278,-0.02028682827949524,-0.04090660810470581,-0.02943548560142517,-0.2205559023492595,0.64415662535373,0.5028632011023034,-0.532490420663607,-0.9608604783559871,2.196799289977367,-2.3364546090837663
1781555367705340928,1.7913727760314941,-0.12305978685617447,-0.07040741294622421,0.0035531367175281048,0.4642876088619232,0.8191671371459961,0.3367527723312378,-0.0037772655487060547,-0.07754409313201904,-0.060202449560165405,-0.21998688938455868,0.6442493097746512,0.503308267042913,-0.5321930747584942,-0.9599574280052409,2.1983081489064134,-2.334263153194145
1781555367715375872,1.801407814025879,-0.11514487117528915,-0.09249740839004517,0.01117776706814766,0.4646426737308502,0.8187599182128906,0.33725282549858093,0.024401545524597168,-0.08417129516601562,-0.05070805549621582,-0.2193957741332102,0.6441615542327089,0.5036688447564655,-0.5322021262984726,-0.9592477496947739,2.1986500922521524,-2.332796864209853
1781555367725410816,1.8114428520202637,-0.15621161460876465,-0.055171601474285126,0.01102996151894331,0.4649761915206909,0.8182571530342102,0.3380123972892761,-0.00010192394256591797,-0.1185348629951477,-0.0247952938079834,-0.21874635421872243,0.6441366248640668,0.5040775844079776,-0.5321126231149966,-0.958372653055922,2.199378634183879,-2.3309968529073144
1781555367735446016,1.8214778900146484,-0.24918709695339203,0.0015601199120283127,-0.013026638887822628,0.4650684595108032,0.8175880908966064,0.33950093388557434,-0.024791449308395386,-0.1447213888168335,-0.006371051073074341,-0.21804106863133957,0.6442793786687802,0.5046330883216265,-0.5317025274601447,-0.9572097293557348,2.2013754283485722,-2.328220599875347
1781555367745480704,1.831512689590454,-0.35097044706344604,0.047176606953144073,-0.05248669534921646,0.46468842029571533,0.8167216777801514,0.34209737181663513,-0.023999273777008057,-0.09992468357086182,0.007603555917739868,-0.21723003005300176,0.6445924142213794,0.5055188408611624,-0.5308130825062757,-0.9557066215196126,2.2053980375276625,-2.3236338295753787
1781555367755516672,1.8415486812591553,-0.5056374669075012,0.07096090167760849,-0.08700339496135712,0.4639279544353485,0.815603494644165,0.345777690410614,-0.017181068658828735,-0.05251133441925049,0.01002684235572815,-0.21621379101541086,0.6450271757925852,0.5067827835012283,-0.5294930514250641,-0.953771386960015,2.2112995281104024,-2.3171220978037903
1781555367765551872,1.85158371925354,-0.6629599928855896,0.10233533382415771,-0.13225209712982178,0.4627276659011841,0.8140221834182739,0.3510708510875702,-0.03859442472457886,-0.012844324111938477,-0.0004391968250274658,-0.21479528932171665,0.6456303167461597,0.5086225735152503,-0.5275674887936662,-0.9510437082264144,2.2198413698363146,-2.3077298643674493
1781555367775586816,1.8616187572479248,-0.5848934650421143,0.08504675328731537,-0.1649186909198761,0.46114566922187805,0.812483012676239,0.35667335987091064,-0.04743415117263794,0.04271101951599121,-0.012038379907608032,-0.21339895373366174,0.6461782710771956,0.5106763449692112,-0.5254751580524153,-0.9483986775760689,2.2291376515348564,-2.2975006691265825
1781555367785621760,1.8716537952423096,-0.5738799571990967,0.034800365567207336,-0.23011021316051483,0.4593977630138397,0.8113031387329102,0.36158108711242676,-0.01710650324821472,0.11037349700927734,-0.007165193557739258,-0.21219280705052537,0.6464487194881847,0.5127324739178326,-0.5236254924194581,-0.9463776705143128,2.2376071017111974,-2.287765243810658
1781555367795656960,1.8816888332366943,-0.48770618438720703,0.09558063000440598,-0.34572869539260864,0.45679643750190735,0.8106609582901001,0.36628642678260803,-0.014428913593292236,0.19257384538650513,0.03903278708457947,-0.21135019441392366,0.6464300735182203,0.515045015157197,-0.5217162623136817,-0.9452800920010338,2.2466698877225433,-2.2773342550366693
1781555367805691904,1.891723871231079,-0.31785884499549866,0.2083388715982437,-0.42162585258483887,0.4531252086162567,0.8109410405158997,0.3702051639556885,-0.04318267107009888,0.2493157982826233,0.10692185163497925,-0.21145671266428614,0.6462577266993603,0.5171590963809745,-0.5197916461546159,-0.9457585655179611,2.2558199733974242,-2.267929043402974
1781555367815727104,1.9017589092254639,-0.07873892784118652,0.37209266424179077,-0.5069857835769653,0.44821897149086,0.812298059463501,0.37319087982177734,-0.07869693636894226,0.299106240272522,0.13245484232902527,-0.21276146221486272,0.6460058293261269,0.5189141600313597,-0.5178195167881993,-0.9480814989300435,2.2651066007239096,-2.2600533740361
1781555367825761792,1.9117937088012695,0.05845274776220322,0.5391218066215515,-0.54967200756073,0.4422559142112732,0.8146273493766785,0.3752228617668152,-0.11193358898162842,0.3101591467857361,0.11983329057693481,-0.21529678625120038,0.6458243248156782,0.5201176506893027,-0.5157867317903404,-0.9520864216216628,2.2743777840626773,-2.254259338614733
1781555367835796736,1.9218287467956543,0.11320840567350388,0.6363316178321838,-0.6300113201141357,0.43514302372932434,0.817589521408081,0.37709107995033264,-0.09786280989646912,0.3175421953201294,0.11326533555984497,-0.21868136038749225,0.6457070914482327,0.5211601452825141,-0.5134518879874023,-0.9572122058511903,2.28484388575198,-2.2487457289707553
1781555367845832704,1.9318647384643555,-0.13553324341773987,0.6584100127220154,-0.7793397903442383,0.426906019449234,0.8205767869949341,0.38000720739364624,-0.056636154651641846,0.27183061838150024,0.0991189181804657,-0.22216112290046514,0.6455694693009361,0.5227271411349165,-0.5105301309526843,-0.9624194777154842,2.2981385288357212,-2.2405410079098345
1781555367855867904,1.9418997764587402,-0.11946451663970947,0.6752234101295471,-0.913402259349823,0.41731980443000793,0.823653519153595,0.38397789001464844,-0.015006601810455322,0.29928654432296753,0.14428135752677917,-0.22563274828630583,0.6451809600906744,0.5251004484213851,-0.5070511616708786,-0.9678236851369939,2.3146086113781115,-2.228620092851145
1781555367865902848,1.951934814453125,-0.12390080839395523,0.747419536113739,-1.0835939645767212,0.4063294529914856,0.827289879322052,0.38792768120765686,-0.013583481311798096,0.368327796459198,0.15482747554779053,-0.22962158613758546,0.6444808265252883,0.5278335901825203,-0.5032992349929115,-0.974266241449863,2.3330301012386845,-2.214889731743933
1781555367875938048,1.9619698524475098,0.03517752140760422,0.8885883688926697,-1.1640625,0.3937179744243622,0.8316439390182495,0.3916051685810089,-0.03405305743217468,0.4514371156692505,0.20513558387756348,-0.234466332870699,0.643571025147128,0.5306777885651768,-0.49922239314588907,-0.9820615732330572,2.3535041070388907,-2.200029325145699
1781555367885972992,1.9720048904418945,-0.031684599816799164,1.054297924041748,-1.1934731006622314,0.3800174593925476,0.8363091945648193,0.39518842101097107,-0.04584991931915283,0.3837531805038452,0.20735067129135132,-0.2400774539389328,0.6428268161244818,0.5332615599336533,-0.49474102946900167,-0.9905163751804292,2.3757622356350154,-2.1850545041924567
1781555367896007680,1.9820396900177002,-0.0190803911536932,1.1264952421188354,-1.2072021961212158,0.36544468998908997,0.8406661152839661,0.39966315031051636,-0.032253772020339966,0.27998507022857666,0.23234057426452637,-0.24588279067297217,0.6423523111015585,0.5359245095874816,-0.48960196539392975,-0.9985121115064386,2.4008884205659218,-2.1682679134312415
1781555367906042880,1.992074728012085,-0.02828747034072876,1.1849100589752197,-1.208390474319458,0.3503096401691437,0.8450208306312561,0.40400880575180054,0.012529164552688599,0.21622806787490845,0.22004514932632446,-0.25199034758172484,0.6419119987308474,0.5384732007669973,-0.48424840582036116,-1.006604126313754,2.4272635999671675,-2.1509043099754033
1781555367916077824,2.0021097660064697,-0.0258320365101099,1.2721552848815918,-1.190516471862793,0.3349299728870392,0.8491262197494507,0.4084198474884033,0.0334782600402832,0.20159411430358887,0.21955567598342896,-0.25823126743444386,0.6416466121673319,0.5408322752960724,-0.4786509907881115,-1.0143288429841162,2.454737395829853,-2.133182350980772
1781555367926112768,2.0121448040008545,0.08363959938287735,1.2623225450515747,-1.2299306392669678,0.319349080324173,0.8532103300094604,0.412369042634964,0.04731959104537964,0.16712957620620728,0.1659848392009735,-0.26466814445618003,0.6413588179649486,0.5429948255110287,-0.4730393644163126,-1.0221098550372276,2.4826416394925,-2.1154040520671615
1781555367936148992,2.0221807956695557,0.05176075920462608,1.2363685369491577,-1.252544641494751,0.3034605085849762,0.8574211597442627,0.41562050580978394,0.06595474481582642,0.09329283237457275,0.10934275388717651,-0.27125692127318196,0.6407934606010499,0.54515502299444,-0.467556780772902,-1.0302373897264536,2.5109246003523342,-2.096963137257975
1781555367946183936,2.0322158336639404,-0.04612026363611221,1.2197118997573853,-1.2771046161651611,0.2873731553554535,0.8612112998962402,0.4192036986351013,0.09276905655860901,0.024393558502197266,0.1003427505493164,-0.2776236862567596,0.6401926000707868,0.5474991228191213,-0.46186928994980714,-1.0376482132282567,2.540650042317384,-2.076799070859299
1781555367956218880,2.042250871658325,-0.15639138221740723,1.142586350440979,-1.3066680431365967,0.27118122577667236,0.8643727898597717,0.42346280813217163,0.11591902375221252,-0.05167430639266968,0.08685225248336792,-0.2835059765470472,0.6395087275854373,0.5502363038982121,-0.45595294548080706,-1.0439017836823064,2.572003057282161,-2.0542128534522193
1781555367966253824,2.052285671234131,-0.2605750560760498,1.0815107822418213,-1.2875503301620483,0.25511500239372253,0.8669372200965881,0.4281780421733856,0.12038859724998474,-0.09603255987167358,0.05947762727737427,-0.28887839344347704,0.638712484869032,0.5532950278382726,-0.4499559419342604,-1.0490241216940066,2.604255883262927,-2.0298034044962874
1781555367976288768,2.0623207092285156,-0.4301654100418091,1.0603820085525513,-1.1903915405273438,0.23963633179664612,0.8685448169708252,0.43382543325424194,0.11432184278964996,-0.11566078662872314,0.012692511081695557,-0.29355638304199055,0.6381510008985023,0.5564854133343675,-0.44374765185861786,-1.0522585275876897,2.6369243157035913,-2.0045547702502553
1781555367986323712,2.0723557472229004,-0.7126327753067017,1.00802743434906,-1.0360493659973145,0.2253739833831787,0.8686894178390503,0.4411178231239319,0.1137830913066864,-0.22022157907485962,-0.017183005809783936,-0.2971369311452331,0.6381579365710127,0.5597440099326009,-0.437207771480506,-1.052550472182244,2.6692507287326097,-1.9793407362360411
1781555367996358912,2.082390785217285,-1.1616897583007812,0.8661393523216248,-1.0631611347198486,0.21213306486606598,0.8667906522750854,0.45130181312561035,0.14605170488357544,-0.3966064453125,-0.09589415788650513,-0.29908029913311385,0.638706883193607,0.563652752504896,-0.43000000673378874,-1.0487301105202835,2.702193278527575,-1.9523630313871423
1781555368006393856,2.09242582321167,-1.3096389770507812,0.5855716466903687,-1.213539481163025,0.19880922138690948,0.8632646799087524,0.46394890546798706,0.20579279959201813,-0.38761788606643677,-0.1836603581905365,-0.2994816289547034,0.6389110151875043,0.5690054153910639,-0.4222986863469129,-1.0417022723345484,2.736748238019394,-1.9208150056581803
1781555368016429824,2.102461814880371,-1.1545593738555908,0.537758469581604,-1.1673003435134888,0.18574482202529907,0.8596984148025513,0.47583329677581787,0.20643654465675354,-0.13811033964157104,-0.16635456681251526,-0.2995927997703189,0.6384735084531239,0.5746896799687168,-0.4151234173852758,-1.034678973319799,2.769426802738619,-1.8892923271083861
1781555368026465024,2.112496852874756,-0.8981238007545471,0.7105893492698669,-1.105357050895691,0.17302531003952026,0.8568633198738098,0.4856416583061218,0.11768516898155212,0.0034425854682922363,-0.13809210062026978,-0.3004928612950685,0.6380072426840675,0.5794545539301086,-0.4085135593115168,-1.0291543542401518,2.799332525563046,-1.8617118484527864
1781555368036499968,2.1225318908691406,-0.8997735977172852,0.802889347076416,-1.2134251594543457,0.15935362875461578,0.8544065356254578,0.494566410779953,0.06862792372703552,-0.07976365089416504,-0.11446991562843323,-0.30222376434658493,0.6375460903360632,0.583796352257725,-0.401718318155389,-1.02440762106271,2.82988740590268,-1.8349904784489661
1781555368046534656,2.1325666904449463,-0.9943568706512451,0.8353681564331055,-1.4047576189041138,0.14396879076957703,0.8516284227371216,0.5039860606193542,0.13055206835269928,0.002390742301940918,0.024044275283813477,-0.3042132164776749,0.6367593033238265,0.5886685138804129,-0.3942857765451364,-1.0190843329158688,2.8633429436656654,-1.8054111696361241
1781555368056569856,2.142601728439331,-0.7474943399429321,0.9334293603897095,-1.316955327987671,0.1277758926153183,0.848878800868988,0.512911319732666,0.20672725141048431,0.3093242645263672,0.1253332495689392,-0.30659228754453915,0.6357612246308224,0.5935177635462995,-0.3867110938944395,-1.0138605114997672,2.8974434500653956,-1.775550068366223
1781555368066604800,2.152636766433716,-0.7731919884681702,1.2139142751693726,-1.2447264194488525,0.11143205314874649,0.846575140953064,0.5204744935035706,0.1065550222992897,0.3142068386077881,0.137728750705719,-0.30988368877055067,0.6351826324255012,0.5973108559709678,-0.3791238994246257,-1.0095174866058705,2.930679706209259,-1.7490623978903377
1781555368076640000,2.1626718044281006,-0.8834090232849121,1.2907946109771729,-1.435747504234314,0.09335232526063919,0.8436685800552368,0.5286858677864075,-0.03004360944032669,0.13785302639007568,0.1667029857635498,-0.3136568711535722,0.6348424867449681,0.6010972780365091,-0.37050836802288795,-1.0040802808416203,2.9668198913067068,-1.721502526017938
1781555368086674944,2.1727068424224854,-0.849425196647644,1.2367955446243286,-1.6211894750595093,0.07365890592336655,0.8402073383331299,0.5372394323348999,0.014918379485607147,0.25886809825897217,0.12767761945724487,-0.31744466198717364,0.6338904394246851,0.6056423303725385,-0.36139901158131565,-0.997665489742473,3.005335916264921,-1.6906790840247863
1781555368096709888,2.18274188041687,-0.8375978469848633,1.4194062948226929,-1.6603622436523438,0.05264001339673996,0.836773693561554,0.5450127720832825,-0.013638541102409363,0.37871092557907104,0.07792723178863525,-0.3217893547956395,0.6325390627506697,0.6102464453693469,-0.35205859884921575,-0.9913641409246358,3.0453064052058245,-1.658759114071382
1781555368106745856,2.1927778720855713,-0.8775085210800171,1.5551749467849731,-1.6886497735977173,0.030353643000125885,0.8326976895332336,0.5528954267501831,-0.06987390667200089,0.35779303312301636,0.055045247077941895,-0.3265712693862283,0.6314257755025467,0.6146130611797238,-0.3419115870287419,-0.9839618530997426,3.086748282703342,-1.627178932088255
1781555368116780800,2.202812671661377,-0.8206692337989807,1.5331518650054932,-1.7589499950408936,0.007344367913901806,0.828240692615509,0.5603243708610535,-0.02168763056397438,0.27290982007980347,0.009530305862426758,-0.3315643732122926,0.6301233595209791,0.6189561753620304,-0.33151603920657663,-0.975960865277516,3.128486053850984,-1.5956335478657457
1781555368126815744,2.2128477096557617,-0.5747808814048767,1.4886832237243652,-1.7785778045654297,-0.01588812842965126,0.8241322040557861,0.5661745667457581,0.04970160499215126,0.22048449516296387,-0.05672943592071533,-0.3369265674884198,0.6282786349093201,0.6231799394404156,-0.3215481190989598,-0.9686683526276337,-3.1135377713875427,-1.5641833816344832
1781555368136850944,2.2228827476501465,-0.31658291816711426,1.4400568008422852,-1.74783456325531,-0.03881833702325821,0.8211491107940674,0.5693917870521545,0.0760803073644638,0.18094122409820557,-0.09226477146148682,-0.3429424846248831,0.6257983533649368,0.6269547890152165,-0.31256116853844296,-0.9634216037212516,-3.0735228895606497,-1.533353959322408
1781555368146885888,2.2329177856445312,-0.25697073340415955,1.411311149597168,-1.6241685152053833,-0.060901790857315063,0.8187334537506104,0.5709344148635864,0.07706084847450256,0.03237110376358032,-0.15261483192443848,-0.34920530704099095,0.6231560583073805,0.6301934084260329,-0.30428330883394,-0.9592017175511578,-3.0353241187774107,-1.5042579530634663
1781555368156920832,2.242952823638916,-0.3420054614543915,1.3091691732406616,-1.4674713611602783,-0.08142180740833282,0.8159305453300476,0.5723878145217896,0.11663910001516342,-0.1713382601737976,-0.26899731159210205,-0.35493591293076493,0.6208271718860342,0.6330620270937113,-0.2963554975373421,-0.9543368886443164,-3.0002912667268666,-1.4781374763207789
1781555368166956032,2.252987861633301,-0.3689587712287903,1.1325852870941162,-1.3572635650634766,-0.09992760419845581,0.8125720620155334,0.5742310285568237,0.1496865153312683,-0.30981022119522095,-0.26315009593963623,-0.3597567661770944,0.618785777506969,0.6357827361357122,-0.28889374471988205,-0.9485514445687167,-2.969298170253721,-1.4550920274123296
1781555368176990976,2.2630228996276855,-0.2386697381734848,1.0482250452041626,-1.2573574781417847,-0.11686033010482788,0.8093819618225098,0.5755384564399719,0.14965146780014038,-0.25893646478652954,-0.16292554140090942,-0.3641498372712839,0.6166886962248018,0.638329282594278,-0.2821802017635992,-0.9430989582895108,-2.9412707235066815,-1.4339123406018874
1781555368187026944,2.2730588912963867,-0.02166898362338543,1.0523475408554077,-1.1346267461776733,-0.1325463503599167,0.8070874214172363,0.5753616690635681,0.10753719508647919,-0.05040419101715088,-0.09434372186660767,-0.36873736483068675,0.6145898865053049,0.6402812797985752,-0.2763183339484555,-0.9392023910776077,-2.9151724152134766,-1.4145894367655452
1781555368197061888,2.2830936908721924,0.15935565531253815,1.0877946615219116,-1.0788942575454712,-0.14769117534160614,0.8059937357902527,0.5732028484344482,0.03654615581035614,0.09296256303787231,-0.19072604179382324,-0.3739569852812693,0.6123556726392662,0.6415777013025589,-0.27120982999713905,-0.9373523528135258,-2.8894181180397025,-1.3960146979227663
1781555368207096832,2.293128728866577,0.21373102068901062,1.0151880979537964,-1.0701961517333984,-0.16239920258522034,0.8054282665252686,0.570010781288147,0.006606921553611755,0.10259193181991577,-0.2627444267272949,-0.3793906374632223,0.6099725573086441,0.6426031868748133,-0.26656614585416444,-0.9363976872521815,-2.864040900338683,-1.377674393857305
1781555368217131776,2.303163766860962,0.2652890086174011,0.8633474707603455,-1.1188122034072876,-0.17664557695388794,0.8049253225326538,0.566472589969635,0.06281502544879913,0.07364511489868164,-0.21611571311950684,-0.38462246580824616,0.6072257396424026,0.6438269992055718,-0.2623530745594193,-0.9355495811837279,-2.83931439434935,-1.3587273648699452
1781555368227166976,2.3131988048553467,0.29571083188056946,0.7791710495948792,-1.0581985712051392,-0.1901157796382904,0.8044937252998352,0.5627126097679138,0.0956944078207016,-0.047337472438812256,-0.1835622787475586,-0.38954084037221537,0.6042004012663515,0.6452117347403175,-0.25865330052880214,-0.9348226530725506,-2.81577731095066,-1.3396360160603613
1781555368237201920,2.3232338428497314,0.19442282617092133,0.7688839435577393,-0.9646185636520386,-0.2026122808456421,0.8040301203727722,0.5590024590492249,0.09963071346282959,-0.17423886060714722,-0.13837873935699463,-0.39416805043797715,0.6013980776196781,0.6463912099073289,-0.25520637622827186,-0.9340425066812835,-2.7938669717515827,-1.322051876153233
1781555368247236864,2.333268880844116,0.045208849012851715,0.6764490604400635,-0.8599814176559448,-0.21410980820655823,0.8027626276016235,0.55653315782547,0.12023772299289703,-0.2489144206047058,-0.10810786485671997,-0.3980721652646941,0.5991438736240386,0.6475285326419261,-0.25153922307663235,-0.9319138660009694,-2.7743271217457686,-1.3069549674693988
1781555368257271808,2.343303680419922,-0.15605528652668,0.5530938506126404,-0.7875260710716248,-0.22413267195224762,0.8007467985153198,0.5554898977279663,0.161174938082695,-0.3428458571434021,-0.08908981084823608,-0.4009800840789561,0.5973183055001162,0.6488110627331228,-0.24793141911665403,-0.9285408924045896,-2.7580842903156633,-1.2943662095359474
1781555368267306752,2.3533387184143066,-0.3550456166267395,0.4061174690723419,-0.7209894061088562,-0.23287087678909302,0.797579288482666,0.5564517974853516,0.1812351495027542,-0.3628716468811035,-0.03893470764160156,-0.40271213977511483,0.5959783980146802,0.6504118952237241,-0.24412517416819882,-0.9232715110307906,-2.7452468340851395,-1.2843671722331549
1781555368277344256,2.3633761405944824,-0.6322178244590759,0.3208029568195343,-0.6371272802352905,-0.2402777373790741,0.7932791709899902,0.5594417452812195,0.1713385283946991,-0.3413137197494507,0.004080712795257568,-0.40326176010700643,0.5951602413460696,0.6523075543834707,-0.24012326668189662,-0.9161760365318512,-2.735920383468269,-1.2771163310813631
1781555368287379200,2.373411178588867,-0.8888589143753052,0.27911674976348877,-0.5411051511764526,-0.24668245017528534,0.7874934077262878,0.5648030638694763,0.13573573529720306,-0.3339104652404785,-0.002043485641479492,-0.40266084374512245,0.5951269227734735,0.6543893920259763,-0.2355056637450982,-0.9067313958984933,-2.7298048894140368,-1.2731968397600413
1781555368297414400,2.383446216583252,-1.104346752166748,0.21602874994277954,-0.4245883524417877,-0.25187721848487854,0.780598521232605,0.5720349550247192,0.12171974778175354,-0.3356064558029175,-0.04244816303253174,-0.40106537749549703,0.5958754864133916,0.6564677353594414,-0.23049759881123105,-0.8956228387849479,-2.72681949105902,-1.2726435272121757
1781555368307449344,2.3934812545776367,-1.4190562963485718,0.01200983114540577,-0.4893585443496704,-0.2560870349407196,0.7722370624542236,0.5814371109008789,0.1486346423625946,-0.3221181631088257,-0.08982950448989868,-0.3982603438449224,0.5970578108698374,0.6589692822834509,-0.2251001606107459,-0.8823547630770465,-2.726718796123564,-1.2741726794828325
1781555368317484032,2.4035160541534424,-1.7424253225326538,-0.021087270230054855,-0.2560688555240631,-0.2591274678707123,0.7618147134780884,0.5937093496322632,0.12933626770973206,-0.2995498776435852,-0.009358882904052734,-0.3939134215790042,0.5989077546278968,0.6619397169508398,-0.21903740639186906,-0.8661099044596847,-2.7300595926643347,-1.2784985089242817
1781555368327519232,2.413551092147827,-1.7456812858581543,-0.12753461301326752,-0.2198469191789627,-0.26023778319358826,0.750832736492157,0.6070637106895447,0.15190041065216064,-0.26708340644836426,-0.03914695978164673,-0.3886451507050782,0.6014815032003795,0.6646441661855755,-0.21312682373064284,-0.8493219622854734,-2.7366067829127516,-1.2859673845087012
1781555368337554176,2.423586130142212,-1.801240086555481,-0.2228028029203415,-0.09540939331054688,-0.26050621271133423,0.7392884492874146,0.6209582090377808,0.14849147200584412,-0.22090160846710205,-0.14268672466278076,-0.3828162698184168,0.6041791103834429,0.6674179330100466,-0.2072983507292507,-0.8320130894162815,-2.7443702351808286,-1.294047195275227
1781555368347589376,2.4336211681365967,-1.705589771270752,-0.2804621160030365,-0.013382170349359512,-0.2590930163860321,0.7281248569488525,0.6345905661582947,0.1077868640422821,-0.19676804542541504,-0.1676868200302124,-0.37663075090002224,0.6071689228865167,0.6698068139338594,-0.202123874288937,-0.8155823216623764,-2.7539655572161714,-1.3035895368760406
1781555368357625344,2.443657159805298,-1.8680294752120972,-0.31357333064079285,-0.006731725297868252,-0.25734877586364746,0.7166536450386047,0.6482124328613281,0.03852248191833496,-0.21181654930114746,-0.19453805685043335,-0.3702425132479916,0.6101249797027467,0.6722006617867393,-0.1970135162442779,-0.7989922832489244,-2.763663894082747,-1.3129161642480567
1781555368367660288,2.4536921977996826,-1.9547721147537231,-0.29387152194976807,0.02382272109389305,-0.25517377257347107,0.7041184902191162,0.6626486778259277,-0.007445216178894043,-0.09602528810501099,-0.00040203332901000977,-0.363291848817884,0.6133662159961208,0.6746156085188502,-0.1915584312182187,-0.7811809874231155,-2.774012808028018,-1.322979841701056
1781555368377695232,2.4637272357940674,-1.9317549467086792,-0.14816878736019135,0.09953292459249496,-0.25330519676208496,0.6910063028335571,0.6770130395889282,-0.05209943652153015,-0.031231582164764404,-0.036815345287323,-0.3564084825491272,0.616910608570509,0.6767036457903587,-0.18565141369474028,-0.7628802931210895,-2.7835664193031224,-1.3335204482914946
1781555368387730432,2.473762273788452,-1.631688117980957,-0.207052081823349,0.10588563233613968,-0.25136053562164307,0.6790550947189331,0.6897112727165222,-0.008374512195587158,0.06671810150146484,-0.20573318004608154,-0.3501899340222707,0.6203122782454694,0.6782833661735597,-0.18030876470284118,-0.7464746950198197,-2.7921093017660863,-1.3435271898569447
1781555368397765120,2.483797073364258,-1.4892531633377075,-0.3296627998352051,0.10096783936023712,-0.24885152280330658,0.6684136986732483,0.7009249925613403,0.08254599571228027,0.06408441066741943,-0.3199588656425476,-0.34433188116420177,0.6231228904405534,0.6798384893553094,-0.1759914566584266,-0.7320739930721327,-2.8004411349215435,-1.351935785038507
1781555368407800320,2.4938321113586426,-1.3012499809265137,-0.42555472254753113,0.14321915805339813,-0.24532951414585114,0.6588194370269775,0.7111751437187195,0.05456416308879852,-0.01390683650970459,-0.2601863741874695,-0.3385460948016283,0.6256081875196676,0.6813236862373804,-0.17262356271016388,-0.7192484439731355,-2.8094116543563894,-1.3597001920610419
1781555368417835264,2.5038671493530273,-0.9134258031845093,-0.42219460010528564,0.17517922818660736,-0.24121339619159698,0.6511831283569336,0.719567060470581,-0.045377179980278015,0.0848550796508789,-0.24030375480651855,-0.33342827097673183,0.6276575618983866,0.6825170361401853,-0.17041741235700872,-0.7091423543876775,-2.8181448957423028,-1.366447056242248
1781555368427870208,2.513902187347412,-0.3808324635028839,-0.31366226077079773,0.21983537077903748,-0.2372209131717682,0.6468921899795532,0.72474604845047,-0.1624067723751068,0.2962840795516968,-0.2101128101348877,-0.3299069114375501,0.6291082225832328,0.6830782299654837,-0.16967155647796736,-0.7035019810263856,-2.825267516942586,-1.3716428665180953
1781555368437906176,2.5239381790161133,0.2249051034450531,-0.1619771420955658,0.28790709376335144,-0.23385202884674072,0.6469442844390869,0.7257936000823975,-0.22330127656459808,0.4085976481437683,-0.15381789207458496,-0.3286524479703925,0.6299413741288868,0.6826936901302213,-0.17056021377228225,-0.7035703278843753,-2.829893679173334,-1.375245623318522
1781555368447941376,2.533973217010498,0.7013803124427795,-0.11522162705659866,0.25628766417503357,-0.23111028969287872,0.6510651111602783,0.7229815721511841,-0.18617181479930878,0.3751800060272217,-0.23180115222930908,-0.3294748668159527,0.6299571633672916,0.6816485664499877,-0.17307673237146035,-0.7089868707380088,-2.83219565895304,-1.3767043578683686
1781555368457976320,2.544008255004883,0.9385108351707458,-0.06333126127719879,0.30861717462539673,-0.22862936556339264,0.657681941986084,0.7177624702453613,-0.11646337807178497,0.24437183141708374,-0.1250959038734436,-0.3315359108333674,0.6294679619239705,0.6801847626482305,-0.1766428086629121,-0.7177374159221858,-2.833223101841168,-1.3769175378118779
1781555368468011264,2.5540430545806885,1.2727646827697754,-0.033517442643642426,0.28678566217422485,-0.22623316943645477,0.6661949157714844,0.7106353640556335,-0.08030059933662415,0.15315616130828857,0.01226496696472168,-0.33452911519870304,0.6286403795192583,0.6783280556911163,-0.18103179677130257,-0.7290949117050545,-2.833384082586943,-1.3763829362781532
1781555368478046208,2.5640780925750732,1.8141342401504517,0.021424638107419014,0.24009165167808533,-0.2244325429201126,0.6777368783950806,0.7002163529396057,-0.10877366364002228,0.1943029761314392,0.028528153896331787,-0.33913865957132694,0.6268959624702456,0.6760988252563168,-0.1867534357254361,-0.7446804381856559,-2.8314191076418473,-1.3733395728530904
1781555368488081152,2.574113130569458,2.2343733310699463,0.11043253540992737,0.21013908088207245,-0.22331421077251434,0.692472517490387,0.6860120892524719,-0.12859922647476196,0.33114802837371826,0.057579219341278076,-0.3455566659620476,0.6242124422120208,0.6733237544939898,-0.1938673372118993,-0.7649106045505016,-2.826885817680743,-1.3676559789383578
1781555368498116352,2.5841481685638428,2.291940689086914,0.16516809165477753,0.12806791067123413,-0.22306279838085175,0.7084537744522095,0.6695792078971863,-0.11536192893981934,0.2979549169540405,0.13193446397781372,-0.35302520791274233,0.6209208715890695,0.6702588230759838,-0.20145379186103968,-0.7873049582310675,-2.8200172310208442,-1.3598904874501372
1781555368508151296,2.5941832065582275,1.8091013431549072,0.19731777906417847,0.08042527735233307,-0.2235468626022339,0.722467839717865,0.6542683839797974,-0.028741955757141113,0.16556316614151,0.30917155742645264,-0.3599794154986253,0.6177243147520339,0.6674959571923842,-0.2080400158621663,-0.8073649723940504,-2.8123538721215153,-1.3517046027458748
1781555368518187264,2.6042191982269287,1.2184447050094604,0.23258854448795319,0.0853356197476387,-0.22438043355941772,0.7324497699737549,0.6427836418151855,0.025848329067230225,-0.10371136665344238,0.43268632888793945,-0.36528819072858226,0.6154972446464487,0.665248036577593,-0.21253878111992394,-0.8219132690903037,-2.8057410934327613,-1.345667793840112
1781555368528222208,2.6142542362213135,1.0676770210266113,0.09366048127412796,-0.019956184551119804,-0.2252015620470047,0.7396925091743469,0.6341447234153748,0.04763498902320862,-0.3129498362541199,0.3435470461845398,-0.3692703958927807,0.6137652517477379,0.6635997178736618,-0.2157941420445252,-0.8326133541181165,-2.8003581622490277,-1.3407446693929412
1781555368538257408,2.6242892742156982,0.9942668080329895,0.05213288217782974,-0.12648475170135498,-0.2261687070131302,0.7460381388664246,0.6263185143470764,0.05702503025531769,-0.10094231367111206,0.18647146224975586,-0.372725107640716,0.6116412690912488,0.6626116645379629,-0.21889898476904823,-0.8420925035465431,-2.7950564366624593,-1.3343978735884139
1781555368548292096,2.634324073791504,1.0250781774520874,0.15058542788028717,-0.16703057289123535,-0.22795091569423676,0.7519790530204773,0.6185194849967957,-0.013534694910049438,0.06816571950912476,0.1362108588218689,-0.376317005844505,0.6093586444800646,0.661771692055874,-0.2216436647501117,-0.8510592144684974,-2.78849503940863,-1.3270123428046376
1781555368558327296,2.6443591117858887,1.194344401359558,0.15822070837020874,-0.1713598072528839,-0.23026743531227112,0.758340060710907,0.6098335981369019,-0.04211720824241638,0.06281155347824097,0.11294466257095337,-0.38039926950265474,0.6068889758025441,0.6607590952252649,-0.2244538429594377,-0.8607628933472804,-2.780552729949818,-1.318674172321275
1781555368568362240,2.6543941497802734,1.279880166053772,0.1103072389960289,-0.262355238199234,-0.23264479637145996,0.7654916644096375,0.5999159216880798,0.006738409399986267,0.07578641176223755,-0.03854501247406006,-0.38488589608710955,0.6039335301347897,0.6597137680024612,-0.22782660361175558,-0.8718051350161494,-2.7716513210997413,-1.3087031146144137
1781555368578397184,2.664429187774658,1.2616827487945557,0.11106384545564651,-0.2806956171989441,-0.2354692667722702,0.7724093794822693,0.5898624062538147,0.0417894572019577,0.029272019863128662,-0.03706711530685425,-0.3894019629050049,0.6006443812104166,0.6589063164500645,-0.23115971332412555,-0.8826260222258464,-2.7617817008180507,-1.2972408838204625
1781555368588432384,2.674464225769043,1.2496119737625122,0.1420087069272995,-0.285074383020401,-0.23835459351539612,0.7791944742202759,0.5796923041343689,0.0877503752708435,0.03451097011566162,0.10316908359527588,-0.3939517557383239,0.5973916555462244,0.6580040798876419,-0.2344267212060837,-0.893379591193475,-2.751490518011079,-1.2856132261723114
1781555368598468352,2.684500217437744,1.3751839399337769,0.1722973734140396,-0.2658090889453888,-0.24145373702049255,0.7860477566719055,0.5690596103668213,0.08985771238803864,0.09859567880630493,0.09895485639572144,-0.39870576682462944,0.5940659058549597,0.656974502414081,-0.23770536495983544,-0.9043892111334906,-2.7403124503738314,-1.273363633672836
1781555368608503296,2.694535255432129,1.4821258783340454,0.1370869278907776,-0.263853520154953,-0.24445772171020508,0.7934789657592773,0.5573434233665466,0.03948640823364258,0.05896860361099243,-0.029755592346191406,-0.40380078910842915,0.5905157016946158,0.6557155861862977,-0.24139850868987142,-0.9165042082664028,-2.728248943825236,-1.2601441942994795
1781555368618538240,2.7045700550079346,1.509652853012085,0.05775574594736099,-0.2871367335319519,-0.24719974398612976,0.8010973334312439,0.5451013445854187,0.03324097394943237,0.054341018199920654,-0.0581628680229187,-0.40888994180305643,0.5866780039445865,0.6544918539362563,-0.2454758188000985,-0.9291263164152836,-2.7158375847435527,-1.245824765314637
1781555368628573184,2.7146050930023193,1.4269622564315796,0.012595992535352707,-0.31098589301109314,-0.24970903992652893,0.8084420561790466,0.5329792499542236,0.02877703309059143,0.07853609323501587,0.05509448051452637,-0.41371737418843846,0.5826615757163811,0.6534486378134269,-0.2496964649466254,-0.9415003235877457,-2.7034483834708585,-1.230738843298105
1781555368638608128,2.724640130996704,0.6133460998535156,0.28447186946868896,-0.42380669713020325,-0.25329622626304626,0.813302218914032,0.5238134860992432,-0.03898590803146362,0.009482204914093018,0.20827269554138184,-0.41772515801228105,0.5793075263515222,0.6529238337563313,-0.2521883442694029,-0.9498052680820446,-2.6911818421607587,-1.2169597189966936
1781555368648643328,2.734675168991089,-0.04088342562317848,0.5730693340301514,-0.15715104341506958,-0.2583577334880829,0.8134535551071167,0.5210995674133301,-0.138019859790802,-0.09824347496032715,0.4310947060585022,-0.4202186301341315,0.578512137369082,0.6525898254533476,-0.2507320615927877,-0.9500653918493798,-2.6813159727522624,-1.2107576813616894
1781555368658678272,2.7447102069854736,0.36776718497276306,0.2637633681297302,-0.2993342876434326,-0.2619665861129761,0.8138206005096436,0.5187188982963562,-0.02170950174331665,-0.2253655195236206,0.07370352745056152,-0.4222500414905361,0.5780931027675738,0.652048928072356,-0.2496905674075371,-0.9506967704866565,-2.673932236527501,-1.2067227835179215
1781555368668713216,2.7547452449798584,0.7872744798660278,0.26035454869270325,-0.34741926193237305,-0.2662205398082733,0.8158714771270752,0.5133036375045776,0.19207802414894104,0.13368308544158936,-0.42762547731399536,-0.4252118734923664,0.5760060077670615,0.6518196767920946,-0.25008627740581063,-0.954234774317931,-2.663143344511481,-1.1966197924835413
1781555368678749440,2.7647812366485596,0.8368664979934692,0.27690914273262024,-0.31213611364364624,-0.27021631598472595,0.8193460702896118,0.5056236982345581,0.21842795610427856,0.23111474514007568,0.1005469560623169,-0.42892977038941743,0.5734630004598898,0.6511159891776233,-0.251410951749229,-0.9602694740422071,-2.6507883124466223,-1.1847465680536857
1781555368688784384,2.7748162746429443,0.630735456943512,0.3465909957885742,-0.2581423819065094,-0.27411505579948425,0.8222512602806091,0.49876219034194946,0.06174328923225403,-0.1394205093383789,0.2755450904369354,-0.43239857554498795,0.5713530799514588,0.650335873635665,-0.25229019471148756,-0.9653554157015154,-2.639063746523028,-1.1742599158104463
1781555368698819072,2.78485107421875,0.3652118742465973,0.4120412766933441,-0.25579559803009033,-0.2781126797199249,0.8240781426429749,0.49350666999816895,-0.10183119773864746,-0.1274380087852478,0.17046433687210083,-0.4354167686340865,0.5698939123727781,0.6495954580483477,-0.25230733105397757,-0.9685728814372935,-2.628410526876819,-1.1659469068206412
1781555368708854272,2.7948861122131348,-0.016085932031273842,0.46120455861091614,-0.22768540680408478,-0.28229543566703796,0.8242568373680115,0.49082615971565247,-0.16725900769233704,-0.09064465761184692,0.1040073037147522,-0.4376526309968458,0.5692670170691436,0.6491133495888142,-0.25109208125220855,-0.9688884750271681,-2.6196505703517117,-1.1606488480719417
1781555368718889216,2.8049211502075195,-0.47743117809295654,0.5051140785217285,-0.20179468393325806,-0.28644105792045593,0.8224952220916748,0.491379052400589,-0.08758240938186646,-0.14384520053863525,0.035934269428253174,-0.4388321631843886,0.5697081886187341,0.6489392154042672,-0.2484690733227147,-0.9657842075047904,-2.6138169459472937,-1.1595047935959657
1781555368728924160,2.8149561882019043,-1.0526013374328613,0.4539792537689209,-0.21850734949111938,-0.29054683446884155,0.8180595636367798,0.49634817242622375,0.03889888525009155,-0.15250158309936523,0.08313494920730591,-0.4384462543706442,0.57132496623128,0.6494319638685518,-0.2441125599887893,-0.9580290199878803,-2.6120007371081915,-1.1631838083390236
1781555368738959360,2.824991226196289,-1.4869128465652466,0.4955967366695404,-0.14508026838302612,-0.2943798005580902,0.8110352754592896,0.5055316686630249,0.07497367262840271,-0.17889416217803955,0.1573253870010376,-0.4364742134200201,0.574119453019016,0.6505018792611417,-0.23816888463583938,-0.9459196807630207,-2.614276664078011,-1.1716940096077912
1781555368748994304,2.835026264190674,-1.4265727996826172,0.5353883504867554,-0.1473141312599182,-0.29824215173721313,0.8029782772064209,0.5160208940505981,-0.0005706846714019775,-0.1012113094329834,0.036164164543151855,-0.4340601942959315,0.5775142904050505,0.6515271972380324,-0.23147641888823195,-0.9322755997810513,-2.6175327331229004,-1.1822537140027194
1781555368759030272,2.845062255859375,-1.1405370235443115,0.4638039171695709,-0.13567665219306946,-0.3019881248474121,0.7958678007125854,0.5247836709022522,-0.02113199234008789,0.0816805362701416,-0.1929507851600647,-0.4321444436193824,0.5804204077525064,0.6523066723739653,-0.22552038700735408,-0.9204395224656052,-2.6194182998229136,-1.190931507649453
1781555368769065216,2.8550970554351807,-0.975699245929718,0.386237233877182,-0.14963507652282715,-0.3054114878177643,0.7897728681564331,0.5319615602493286,0.021781086921691895,0.16670924425125122,-0.29256635904312134,-0.4305926214669327,0.5827182034027117,0.6530086427607019,-0.22047528444406334,-0.9104385958345241,-2.620417567044216,-1.1975672311869063
1781555368779100160,2.8651320934295654,-0.926386296749115,0.44406017661094666,-0.08809742331504822,-0.3085203468799591,0.7843077182769775,0.5382160544395447,0.004016011953353882,0.049630820751190186,-0.19355052709579468,-0.42926651057498133,0.5848206610079714,0.653523382371364,-0.2159217934799462,-0.9015794443835276,-2.621091306447391,-1.203580008815937
1781555368789135104,2.87516713142395,-0.7708065509796143,0.47221457958221436,-0.025908881798386574,-0.31151875853538513,0.7794862985610962,0.5434675216674805,-0.021931499242782593,-0.07372164726257324,-0.12462908029556274,-0.4283474410742237,0.5869598983975126,0.6536144401836007,-0.21162381167052696,-0.8938453395228845,-2.621107765635418,-1.2095755338128393
1781555368799170304,2.885202169418335,-0.6162002086639404,0.4671953320503235,0.018304917961359024,-0.31411033868789673,0.7757024765014648,0.5473755598068237,0.021431565284729004,-0.028052449226379395,-0.14077472686767578,-0.4278491889528873,0.5889076653804789,0.6533571269834298,-0.20798361839067356,-0.8878274612805821,-2.620624595883058,-1.2149557144491965
1781555368809205248,2.8952372074127197,-0.6105031967163086,0.4678288996219635,0.08367779850959778,-0.31629592180252075,0.7725656032562256,0.5505447387695312,0.04548287391662598,0.027315497398376465,-0.13233178853988647,-0.42757200191308314,0.59088315453476,0.6527859183386675,-0.2047190315591457,-0.8828719886621634,-2.620123333025194,-1.2205002208349487
1781555368819240448,2.9052722454071045,-0.6447242498397827,0.3816653788089752,0.0962258130311966,-0.31796589493751526,0.769393265247345,0.5540140867233276,0.06375449895858765,0.008988022804260254,-0.1329783797264099,-0.427018761792116,0.5929318991158825,0.652256708549499,-0.20161321566590665,-0.8778907207475867,-2.6205620955058366,-1.2265680313010634
1781555368829275392,2.9153072834014893,-0.7401280403137207,0.37453609704971313,0.10678285360336304,-0.3192260265350342,0.7659265398979187,0.5580783486366272,0.05056455731391907,0.0268438458442688,-0.09984159469604492,-0.4260980605564856,0.595114808099451,0.6518263022681653,-0.1984976861629166,-0.872481247229879,-2.622008829915226,-1.2333263116533963
1781555368839311360,2.9253432750701904,-0.8333498239517212,0.3579842746257782,0.15297698974609375,-0.3203517198562622,0.7618141174316406,0.5630399584770203,-0.02690783143043518,-0.048892974853515625,-0.02440476417541504,-0.424788047157178,0.5976121906571218,0.6514442891843379,-0.1950259660159532,-0.8661089955490113,-2.6243034361799165,-1.2412280322912972
1781555368849346048,2.935378074645996,-0.7910192012786865,0.26126837730407715,0.15171943604946136,-0.3209270238876343,0.7576792240142822,0.5682680010795593,-0.006221503019332886,-0.09178555011749268,-0.0623321533203125,-0.4232047772636499,0.6001848899373812,0.6510853274699419,-0.191739097574156,-0.859749726864326,-2.6274987543309862,-1.2496117455238138
1781555368859381248,2.945413112640381,-0.8113617300987244,0.10282775014638901,0.07757223397493362,-0.3210829496383667,0.7534728050231934,0.5737459063529968,0.057533204555511475,-0.01157534122467041,-0.13629168272018433,-0.4212716965075451,0.6024255853203861,0.6511193206350137,-0.1888310587448739,-0.8533282030480618,-2.6313893161531,-1.2571483038681017
1781555368869416192,2.9554481506347656,-0.7133544683456421,0.025172105059027672,0.011652874760329723,-0.3210788071155548,0.7491827607154846,0.5793387293815613,0.05617097020149231,0.01458054780960083,-0.07305222749710083,-0.41909510653820603,0.6042327143545135,0.6515920487165884,-0.18625214427079992,-0.8468274225813986,-2.635518353277696,-1.2633851748910103
1781555368879451392,2.9654831886291504,-0.4720982015132904,-0.0008910535834729671,-0.010133912786841393,-0.32116883993148804,0.7456310391426086,0.5838537216186523,0.02160823345184326,-0.025889158248901367,0.03426462411880493,-0.4172961469899381,0.6055155046704946,0.6521332886844977,-0.18422036809507045,-0.8414813416194027,-2.6386846150176284,-1.267802340496171
1781555368889486336,2.975518226623535,-0.13794925808906555,0.017382757738232613,-0.05935898423194885,-0.32145193219184875,0.7437615394592285,0.5860781073570251,0.023402005434036255,0.07034063339233398,0.06728804111480713,-0.41643151042159815,0.6060325875408795,0.6525055922567703,-0.18315505207799862,-0.8386801533215629,-2.6399174306674826,-1.269514451732468
1781555368899521280,2.98555326461792,-0.005324897356331348,0.050173595547676086,-0.07235760986804962,-0.32214295864105225,0.7432019710540771,0.5864084362983704,-0.03990235924720764,-0.0022351741790771484,-0.024579763412475586,-0.4164265426805171,0.6059810355134506,0.6526800239567214,-0.18271497287777727,-0.8378434922626238,-2.639249316466488,-1.2691037593236547
1781555368909556224,2.9955880641937256,0.01671062968671322,0.005772574804723263,-0.1250557005405426,-0.32310956716537476,0.7429161071777344,0.5862383246421814,-0.06017589569091797,-0.0813562273979187,-0.07070505619049072,-0.41665932377854187,0.6056690807058931,0.6529043732937555,-0.18241629768934858,-0.8374163350930416,-2.637861300528363,-1.267726902773622
1781555368919592192,3.0056240558624268,-0.033668387681245804,-0.06387387961149216,-0.12108466774225235,-0.3237670958042145,0.7425901889801025,0.5862886905670166,-0.021539241075515747,-0.07031852006912231,0.002471625804901123,-0.41667070641644965,0.60521907930796,0.6533408056671972,-0.1823214516087506,-0.8369295633706444,-2.6370377766129858,-1.2660822036993555
1781555368929627136,3.0156590938568115,-0.1191188395023346,-0.06048021465539932,-0.17421232163906097,-0.324487566947937,0.7415923476219177,0.5871531963348389,-0.04953587055206299,-0.14291363954544067,-0.03660076856613159,-0.41633159527302604,0.604874424203414,0.65399045507142,-0.18191065173397652,-0.8354408490941342,-2.636720590492697,-1.264828909344616
1781555368939662336,3.0256941318511963,-0.12732350826263428,-0.02134799212217331,-0.16004058718681335,-0.3255596160888672,0.7402855753898621,0.5882078409194946,-0.0312824547290802,-0.039357781410217285,0.060672223567962646,-0.415981742538286,0.6045139171622729,0.6547265375493256,-0.18126047631524492,-0.8334950643104557,-2.6360837432994724,-1.2634091418276727
1781555368949697280,3.035729169845581,-0.10951334983110428,-0.020179929211735725,-0.16840876638889313,-0.32661303877830505,0.739115297794342,0.589094340801239,0.07153189182281494,0.1271260380744934,0.19960176944732666,-0.41572746098809704,0.604221430463475,0.6553347591873872,-0.18061944926915746,-0.8317559618280083,-2.635352788680569,-1.2621910560545486
1781555368959732224,3.045764207839966,-0.07808831334114075,-0.03329559788107872,-0.2123434692621231,-0.3278737962245941,0.7378259301185608,0.5900099873542786,0.09330043196678162,0.07778686285018921,-0.004377603530883789,-0.41546667482902916,0.6037725160305177,0.6560973537916543,-0.17995136464232048,-0.8298438014345046,-2.634376978656078,-1.2604219251188
1781555368969767424,3.0557992458343506,0.041486550122499466,0.02680608630180359,-0.19049222767353058,-0.32935938239097595,0.7371019124984741,0.5900877714157104,0.024885505437850952,0.07077473402023315,-0.029540836811065674,-0.415613419657115,0.6031240182247978,0.6567231529295394,-0.17950414731892725,-0.8287717973832107,-2.632511329277421,-1.2578639431048682
1781555368979802368,3.0658342838287354,0.05564497783780098,0.1364046186208725,-0.152016744017601,-0.3310448229312897,0.7369182705879211,0.5893731117248535,-0.04659491777420044,0.11804687976837158,-0.006548464298248291,-0.41620100999538184,0.6025025304074325,0.6570215044777655,-0.17913718319646807,-0.8285000871431096,-2.629818935352826,-1.2552192781297162
1781555368989838336,3.0758702754974365,-0.06972306221723557,0.16666239500045776,-0.078513503074646,-0.3328338861465454,0.7364981770515442,0.5888906121253967,-0.07800903916358948,0.07301115989685059,0.15328162908554077,-0.41681291640516016,0.6022942850380604,0.6570288356924184,-0.1783864818406858,-0.8278788507528013,-2.6271636203525963,-1.253824787211459
1781555368999873280,3.085905075073242,-0.07996398210525513,0.10850974172353745,-0.18260234594345093,-0.3345806300640106,0.7355369329452515,0.5891019701957703,-0.02282598614692688,-0.00619739294052124,-0.021993935108184814,-0.4171047311211921,0.6021922495208081,0.657202778592009,-0.17740526283710176,-0.8264588838153513,-2.62507258410419,-1.252864166495947
1781555369009908224,3.095940113067627,0.016877343878149986,0.1366439014673233,-0.1519344449043274,-0.33652862906455994,0.7347568273544312,0.5889657139778137,-0.0703468918800354,0.002028942108154297,-0.231711745262146,-0.41752342785073343,0.6017595472927604,0.6575471879429587,-0.17661046883785078,-0.8253081609816345,-2.6224762301903013,-1.250783452452633
1781555369019943168,3.1059751510620117,-0.09746015071868896,0.2392825335264206,-0.060460202395915985,-0.3384215533733368,0.7342431545257568,0.5885219573974609,-0.1670258641242981,0.053079843521118164,-0.07144731283187866,-0.4181630600609659,0.6016472136850752,0.657481250576889,-0.1757235677600617,-0.8245512149701753,-2.6197309905191424,-1.24966536899757
1781555369029978368,3.1160101890563965,-0.22399306297302246,0.21409063041210175,-0.10471741110086441,-0.34037506580352783,0.7329431772232056,0.5890156626701355,-0.10736361145973206,0.013242185115814209,0.04901546239852905,-0.41847591310910576,0.6019733229769533,0.6573704802192044,-0.17427047133360757,-0.8226383170847569,-2.617603410059695,-1.2499919448378
1781555369040013312,3.1260452270507812,-0.16766028106212616,0.08817863464355469,-0.15065453946590424,-0.3421955704689026,0.7313159108161926,0.5899826288223267,0.0780964195728302,0.09354376792907715,0.13276523351669312,-0.4184740565816861,0.6021138091837974,0.6576095233741661,-0.17288216288975272,-0.8202493663159625,-2.61600170915374,-1.2498774869090812
1781555369050048256,3.136080265045166,-0.1339273601770401,0.08869022876024246,-0.1711222529411316,-0.3438856601715088,0.7298973798751831,0.5907557010650635,0.10804587602615356,0.09941774606704712,0.09260910749435425,-0.4184445098303185,0.601916740981576,0.658083656165679,-0.17183216438231355,-0.8181718255920554,-2.614430351096052,-1.2487677474444658
1781555369060083200,3.1461150646209717,-0.18060031533241272,0.18433420360088348,-0.1622438132762909,-0.3458992838859558,0.728324830532074,0.5915206670761108,-0.0388205349445343,-0.047569215297698975,-0.00494229793548584,-0.4185310500682723,0.6018651732339995,0.6584213382206445,-0.17050352624533152,-0.8158741111985399,-2.6124523437327474,-1.2479929016643088
1781555369070119168,3.156151056289673,-0.1024027094244957,0.23327937722206116,-0.18728817999362946,-0.3484330177307129,0.7268521785736084,0.591844916343689,-0.06071615219116211,-0.0068356990814208984,-0.07365643978118896,-0.41893711090225044,0.6017605266000708,0.6586400508995582,-0.16902446337760885,-0.8137274317770801,-2.609505933955833,-1.2468245734953443
1781555369080154112,3.1661860942840576,0.014142543077468872,0.21651822328567505,-0.21057885885238647,-0.3512069284915924,0.7259247303009033,0.5913434624671936,0.001612842082977295,0.06989741325378418,-0.04005861282348633,-0.41972525107236136,0.6013707474429927,0.658805697212132,-0.1678064992968027,-0.8123779697992551,-2.605660442627294,-1.244605382529599
1781555369090189312,3.1762211322784424,-0.04037715867161751,0.20750848948955536,-0.2164047807455063,-0.3540184199810028,0.7251616716384888,0.5906027555465698,0.014662951231002808,0.045254647731781006,-0.009548008441925049,-0.4206003149735085,0.600841440568033,0.6590075346707991,-0.16671546901876463,-0.8112691950369639,-2.6016005591324314,-1.2419291369018057
1781555369100224256,3.186256170272827,-0.06679491698741913,0.20790930092334747,-0.24026724696159363,-0.3569033145904541,0.7240034937858582,0.5902873873710632,0.0021517276763916016,-0.011845290660858154,0.002974390983581543,-0.421300527583326,0.6003858536233414,0.6593030538976723,-0.1654154041406961,-0.8095886906984766,-2.597778358023874,-1.2395311639010367
1781555369110259200,3.196291208267212,-0.09120944142341614,0.21407239139080048,-0.23147082328796387,-0.35990840196609497,0.7227066159248352,0.5900521278381348,-0.014939099550247192,-0.06699049472808838,0.016255974769592285,-0.42198324585078234,0.5999200476822767,0.6596377856113893,-0.1640250036237577,-0.8077103950951695,-2.593881538093683,-1.2370936852602918
1781555369120294400,3.2063262462615967,-0.08305377513170242,0.1850830763578415,-0.25225892663002014,-0.36280694603919983,0.7213267087936401,0.5899652242660522,-0.015412688255310059,-0.03780925273895264,0.035660386085510254,-0.42257446781488933,0.5994887855466405,0.6599968165241992,-0.16262912116859574,-0.8057159822199572,-2.5902433303414525,-1.2348390318238658
1781555369130329344,3.2163612842559814,0.018300004303455353,0.1664699763059616,-0.2457413673400879,-0.3656754195690155,0.7201404571533203,0.5896435976028442,-0.017243951559066772,-0.003175675868988037,-0.08898741006851196,-0.42322708908170925,0.5988810679634777,0.6604265787260228,-0.1614222197830674,-0.8040046977207755,-2.586478862432192,-1.2320407443608985
1781555369140365312,3.2263972759246826,0.21860459446907043,0.1256377249956131,-0.2341848462820053,-0.36818549036979675,0.7200684547424316,0.5881677865982056,-0.01937258243560791,0.024179160594940186,-0.10045099258422852,-0.42427844012097293,0.5979397883094854,0.6607207536871439,-0.16094736037249707,-0.803900949911975,-2.582283805400908,-1.2281656288491851
1781555369150400256,3.2364320755004883,0.1853952407836914,0.12688754498958588,-0.20200267434120178,-0.3705516457557678,0.7204684019088745,0.586188554763794,-0.009285420179367065,0.048650920391082764,-0.10176771879196167,-0.42550660542157953,0.5968587334547187,0.6609492559461377,-0.16077916318355895,-0.8044775140349536,-2.5778773335324563,-1.223827974417314
1781555369160435200,3.246467113494873,0.05809588357806206,0.12498778104782104,-0.20179122686386108,-0.37277185916900635,0.720445990562439,0.5848066806793213,0.022582650184631348,0.050016045570373535,0.04594588279724121,-0.4264690728383275,0.5960206318610511,0.6611828397511278,-0.16037717072560506,-0.8044452070641999,-2.574106582151182,-1.2203761559332862
1781555369170470144,3.256502151489258,-0.08532226085662842,0.10783649235963821,-0.1987600177526474,-0.3748059570789337,0.7196511626243591,0.5844848155975342,0.07846501469612122,0.03687947988510132,0.13438719511032104,-0.42695178639705617,0.595502305730797,0.6615280774011293,-0.15959235169326352,-0.8032998225220513,-2.571387015266574,-1.2181451286691298
1781555369180505344,3.2665371894836426,-0.2045879364013672,0.1470523327589035,-0.21712517738342285,-0.3771316409111023,0.7180202007293701,0.5849942564964294,0.08814552426338196,0.07011133432388306,0.06177985668182373,-0.4271413452948559,0.5951805721625127,0.6620099861193132,-0.1582814107222094,-0.8009536940373331,-2.5689694126111675,-1.2165875056262734
1781555369190540288,3.2765722274780273,-0.3532663583755493,0.25882840156555176,-0.1833813190460205,-0.3797374963760376,0.7156286835670471,0.5862376093864441,0.03775760531425476,0.042717695236206055,0.10782349109649658,-0.4271318029414499,0.5952766562925712,0.66239301122159,-0.156331296206831,-0.7975237867368353,-2.5667982634997872,-1.2163653635744753
1781555369200575232,3.286607265472412,-0.3136603534221649,0.276375949382782,-0.15131713449954987,-0.3825240731239319,0.7129963040351868,0.5876322984695435,0.02633807063102722,0.05449026823043823,0.18354696035385132,-0.4271539551073439,0.5956850164276214,0.6625522703244876,-0.15402400676500327,-0.7937623233133285,-2.564544130375732,-1.2170847040444757
1781555369210610176,3.2966420650482178,-0.21306291222572327,0.25119951367378235,-0.16344915330410004,-0.38515397906303406,0.7108204960823059,0.5885499715805054,0.058402180671691895,0.07773864269256592,0.03619074821472168,-0.4273358411633142,0.5959627183951373,0.6626487949630631,-0.1520172192216661,-0.7906640630100003,-2.562122334460413,-1.2173841135839705
1781555369220646144,3.306678056716919,-0.14491236209869385,0.31585758924484253,-0.20550473034381866,-0.38816410303115845,0.709023118019104,0.5887399911880493,0.019420236349105835,0.09430629014968872,-0.2349345088005066,-0.42786956312635765,0.5959010914376244,0.66277589358025,-0.15019199502140576,-0.7881119993320185,-2.5586981226747447,-1.2164421430773529
1781555369230681088,3.3167130947113037,-0.23584705591201782,0.4214495122432709,-0.15111659467220306,-0.3915989398956299,0.7071893215179443,0.5886712074279785,-0.07002520561218262,0.09377509355545044,-0.08526849746704102,-0.42865593410900854,0.5960314793985352,0.6626326781611707,-0.14804917187134645,-0.7855148689142241,-2.554588627641148,-1.2159456625759204
1781555369240716288,3.3267481327056885,-0.23967215418815613,0.4015088379383087,-0.26392462849617004,-0.3955419361591339,0.7049212455749512,0.588755190372467,-0.06454107165336609,-0.03631162643432617,-0.008203983306884766,-0.4294649372732011,0.5961685662193275,0.6625410506248683,-0.14554135874482169,-0.7823121001768251,-2.5500256743220193,-1.2154043593475203
1781555369250751232,3.3367831707000732,-0.1543079912662506,0.4216460585594177,-0.2941246032714844,-0.39992809295654297,0.7025973200798035,0.5885698199272156,-0.038243234157562256,-0.017386198043823242,-0.023002803325653076,-0.43041353953432687,0.595978098563295,0.6626424388381624,-0.14303584019454132,-0.7790409886522228,-2.544763876881433,-1.2137561792613525
1781555369260786176,3.346818208694458,-0.118351049721241,0.4583606719970703,-0.38460177183151245,-0.40488797426223755,0.700494110584259,0.587685227394104,-0.04120278358459473,0.06101107597351074,0.05643409490585327,-0.4317348795867935,0.5954405119941101,0.6627919751414998,-0.14057899695813125,-0.7760896625205823,-2.5383187725715533,-1.2108369300166233
1781555369270821376,3.3568532466888428,-0.11625301092863083,0.4841451346874237,-0.358853816986084,-0.4103252589702606,0.6982627511024475,0.5865682363510132,-0.04275393486022949,0.04052203893661499,0.20785009860992432,-0.43323052864922634,0.594799197896774,0.6629464827952468,-0.13793902975570224,-0.7729677246467036,-2.531178561684103,-1.2075090786535607
1781555369280856320,3.3668882846832275,-0.18048234283924103,0.3593320846557617,-0.4764842987060547,-0.41563889384269714,0.6957899928092957,0.5857652425765991,0.026326090097427368,0.06830918788909912,0.13373249769210815,-0.4345079661569277,0.5940312851266961,0.6633320909237194,-0.1353525217029791,-0.7695192094753897,-2.5244756184326795,-1.2039536553972605
1781555369290892288,3.3769242763519287,-0.1384027898311615,0.39297235012054443,-0.44843563437461853,-0.4210773706436157,0.6927824020385742,0.5854457020759583,-0.004536092281341553,0.024792790412902832,-0.09251052141189575,-0.43552249800512294,0.5930806946677617,0.6640618581064651,-0.13265512099184498,-0.7653402150123079,-2.518068738920624,-1.1999960075218814
1781555369300927488,3.3869593143463135,-0.010608077049255371,0.37147969007492065,-0.47664889693260193,-0.4265364706516266,0.6903119683265686,0.5844109058380127,-0.024971097707748413,0.054927289485931396,0.004822492599487305,-0.4368497040589645,0.591977810558206,0.66465609703635,-0.13021869596612323,-0.7619201431505971,-2.511108092588435,-1.195487052133556
1781555369310962432,3.3969943523406982,-0.025497542694211006,0.4357620179653168,-0.5002016425132751,-0.43229109048843384,0.6882109642028809,0.5826581120491028,0.012826919555664062,0.16519790887832642,0.03590279817581177,-0.43852402370209254,0.590621459657926,0.6652032334738489,-0.1279365280911476,-0.7590202855445339,-2.503276875822621,-1.190068524478866
