time,seconds_elapsed,rotationRateX,rotationRateY,rotationRateZ,gravityX,gravityY,gravityZ,accelerationX,accelerationY,accelerationZ,quaternionW,quaternionX,quaternionY,quaternionZ,pitch,roll,yaw
1781551789257781504,0.11002850532531738,-0.1712171733379364,-0.037250880151987076,-0.017651760950684547,-0.07881585508584976,-0.5366378426551819,-0.8401237726211548,0.014255911111831665,-0.08959811925888062,0.09044420719146729,0.5928432363697849,0.20518921915475927,0.19451350562509692,0.7540549395233156,0.566447528772014,-0.09354079613405511,1.836288212172589
1781551789267816448,0.12006354331970215,-0.37598949670791626,-0.027203306555747986,0.10621026158332825,-0.07933662086725235,-0.5343031287193298,-0.8415615558624268,-0.00371696799993515,-0.09803634881973267,0.09574246406555176,0.5929928019756919,0.2045495361356143,0.19333573891891143,0.7544138938992876,0.5636831320223591,-0.09399530316247251,1.8364970848392193
1781551789277851648,0.13009858131408691,-0.5548180937767029,-0.03230978548526764,0.23420710861682892,-0.08048133552074432,-0.5302428007125854,-0.8440173864364624,-0.02131003886461258,-0.09823620319366455,0.0810474157333374,0.5928425650499584,0.20343717652575533,0.19132336689458115,0.755345237763273,0.5588869399193359,-0.09506762657889826,1.838006006837108
1781551789287886592,0.14013361930847168,-0.7016543745994568,-0.03593035414814949,0.34337860345840454,-0.08229496330022812,-0.5246627330780029,-0.8473231792449951,-0.015651211142539978,-0.0937911868095398,0.06117510795593262,0.5924231544350356,0.20196817261281122,0.18853986200019326,0.7567670628431015,0.5523189212231993,-0.09681979572802184,1.8406791720712183
1781551789297921536,0.15016865730285645,-0.7432138323783875,-0.003049633465707302,0.40738099813461304,-0.08445630222558975,-0.5181179046630859,-0.8511292338371277,0.0026539266109466553,-0.06270790100097656,0.04551100730895996,0.591737505392799,0.20023173688907414,0.18531762668821458,0.7585587737674208,0.5446489665545687,-0.09890475829917841,1.8442801995150235
1781551789307956480,0.1602034568786621,-0.6378791332244873,0.06317199766635895,0.4089253842830658,-0.08631882071495056,-0.5118235349655151,-0.8547430634498596,0.014831386506557465,-0.019670605659484863,0.026206135749816895,0.5908327848392487,0.1984336802559269,0.18235276756818922,0.760452578094317,0.5373060590240922,-0.10064680417988399,1.8482701745719068
1781551789317991424,0.17023849487304688,-0.4740907847881317,0.11206643283367157,0.3562121093273163,-0.08752422779798508,-0.5067099928855896,-0.8576622605323792,0.017120175063610077,0.0220603346824646,0.00408560037612915,0.5898366711962792,0.19679876640455282,0.18010864398674412,0.7621836318534544,0.5313642783085447,-0.10169770886950655,1.8520716609332377
1781551789328026624,0.18027353286743164,-0.30587220191955566,0.17893999814987183,0.2640893757343292,-0.08783196657896042,-0.503086507320404,-0.8597613573074341,0.017153248190879822,0.05629390478134155,-0.000498652458190918,0.5888953415648922,0.19536571950307052,0.1787499966469591,0.7635987733488567,0.5271664182344086,-0.10180536406330086,1.855211882139142
1781551789338061568,0.1903085708618164,-0.11798778176307678,0.1802927702665329,0.21834425628185272,-0.08749426901340485,-0.5010953545570374,-0.8609577417373657,0.025131605565547943,0.061352312564849854,-0.0015758275985717773,0.5880162846083556,0.19428502943369916,0.17825393726812552,0.7646670029159384,0.5248640165011237,-0.10127665706778244,1.8577393590177282
1781551789348096512,0.20034360885620117,-0.06823433935642242,0.15136711299419403,0.16001065075397491,-0.08699533343315125,-0.5002611875534058,-0.8614932298660278,0.03168223053216934,0.04008662700653076,-0.009112238883972168,0.5872088285017081,0.19358085679677983,0.17826904060728935,0.765462171668349,0.5239003983403735,-0.10064086999884292,1.859847991338813
1781551789358131712,0.21037864685058594,-0.07760067284107208,0.10970567911863327,0.09528198093175888,-0.08646093308925629,-0.49953699111938477,-0.8619670867919922,0.033146731555461884,0.004938602447509766,-0.0027790069580078125,0.5866884633798471,0.19296959022252586,0.17826716555981584,0.7660158094689926,0.5230642305422933,-0.09997214415890222,1.861177830435371
1781551789368165376,0.2204124927520752,-0.06151597574353218,0.10341129451990128,0.07909395545721054,-0.08594916015863419,-0.49884235858917236,-0.8624204397201538,0.028896555304527283,-0.01968178153038025,0.003594815731048584,0.5863350549442982,0.19241794652649424,0.1782276709940907,0.7664342929407217,0.5222625775103403,-0.09933239762699085,1.8620724607327106
1781551789378200576,0.23044753074645996,-0.14130347967147827,0.08062009513378143,0.02095954678952694,-0.08539964258670807,-0.49799972772598267,-0.8629618287086487,0.017269156873226166,-0.032731473445892334,0.003663182258605957,0.5861344791068306,0.19183227609807574,0.17809955197117713,0.766764139750999,0.5212905894085231,-0.09863992130462833,1.8625808827843389
1781551789388235520,0.24048256874084473,-0.22149711847305298,0.03919302672147751,-0.01264848094433546,-0.08486560732126236,-0.49638164043426514,-0.8639461994171143,0.010234877467155457,-0.037080854177474976,0.016457855701446533,0.5862629528178903,0.19104682172652188,0.17756125967070854,0.7669868164642114,0.5194256664240041,-0.09791607019853993,1.8623582318012142
1781551789398270720,0.2505176067352295,-0.2657359540462494,0.023879319429397583,-0.00545208714902401,-0.08453290909528732,-0.4942799210548401,-0.8651829957962036,0.018218204379081726,-0.04247850179672241,0.018564343452453613,0.5864961330225541,0.1901946684676381,0.17673285372390066,0.767211771344201,0.5170063020793972,-0.09739609633863251,1.8619930597722283
1781551789408305664,0.26055264472961426,-0.2820230722427368,0.024294773116707802,-0.005129578523337841,-0.08432209491729736,-0.4919058680534363,-0.8665554523468018,0.01288045197725296,-0.028739243745803833,0.011529266834259033,0.5867441871403822,0.18929923470448184,0.17574999348910916,0.7674692147495699,0.5142774266417834,-0.09700181897919717,1.8616624999304376
1781551789418340352,0.2705874443054199,-0.11954465508460999,0.1523400843143463,-0.1017429381608963,-0.08357095718383789,-0.4899449050426483,-0.8677383661270142,0.0034775659441947937,-0.007201701402664185,0.00575411319732666,0.5870396816244865,0.18833932634614817,0.1750974563921316,0.7676284897772107,0.5120265554759018,-0.09601281075394862,1.8610005755983783
1781551789428375552,0.2806224822998047,0.06375725567340851,0.2143171727657318,-0.2410755306482315,-0.0809667780995369,-0.4901657700538635,-0.8678604960441589,0.0036657527089118958,0.06174477934837341,-0.003507852554321289,0.5875811295698341,0.1874520456324534,0.1758734581822081,0.767253897505874,0.5122799175973926,-0.09302541566280063,1.8588685072756954
1781551789438410496,0.29065752029418945,-0.03677281364798546,0.06220313906669617,-0.05426570028066635,-0.07942415028810501,-0.49032673239707947,-0.8679121732711792,0.05299592763185501,0.04872211813926697,0.0371016263961792,0.5879863993076214,0.18695773403537475,0.17632564292519295,0.7669602780184718,0.5124646112355341,-0.09125756498078176,1.8573784199853072
1781551789448445440,0.3006925582885742,-0.15457214415073395,0.06184015050530434,-0.04596516117453575,-0.0786380022764206,-0.4896371364593506,-0.868372917175293,0.041360773146152496,-0.056856393814086914,0.05825328826904297,0.5882177626383751,0.18643136497618557,0.17622960996256667,0.7669331174149391,0.511673532735458,-0.09031153201098643,1.8566778394303212
1781551789458480640,0.310727596282959,-0.3541446626186371,0.22199027240276337,-0.12916603684425354,-0.07716556638479233,-0.48750537633895874,-0.8697034120559692,0.022920578718185425,-0.12031322717666626,0.07855045795440674,0.5885959910630285,0.1851286123964508,0.17571482111777248,0.7670765869316583,0.5092303203792946,-0.08849457118710786,1.8556459336871662
1781551789468515584,0.32076263427734375,-0.523207426071167,0.2771323621273041,-0.16368646919727325,-0.07376279681921005,-0.48379969596862793,-0.8720647692680359,0.042329683899879456,-0.17110753059387207,0.09697932004928589,0.5894652901814792,0.18256436415576885,0.17503677136900753,0.7671787486660522,0.5049911491266722,-0.08438322663371489,1.853086115931995
1781551789478550528,0.3307974338531494,-0.6323038339614868,0.06478361040353775,0.36708444356918335,-0.07316680252552032,-0.4787801206111908,-0.8748806715011597,0.12469573318958282,-0.2764994204044342,0.09613311290740967,0.5894451778693348,0.18049943418364692,0.17314623350683858,0.7681110614658574,0.4992646931553708,-0.08343644527169859,1.853792710534107
1781551789488585472,0.3408324718475342,-1.1707561016082764,0.06480465084314346,0.5948350429534912,-0.07486822456121445,-0.47074148058891296,-0.8790888786315918,0.13549140095710754,-0.4128339886665344,0.1307063102722168,0.5882660608629657,0.17806411153826307,0.1695545257493485,0.7703814386038295,0.4901309956378514,-0.08496069257159734,1.8585512762263523
1781551789498620416,0.35086750984191895,-1.9335538148880005,0.08386608958244324,0.7553565502166748,-0.07732202857732773,-0.4565616548061371,-0.8863254189491272,0.15363124012947083,-0.4869655668735504,0.1766849160194397,0.5869756950205323,0.17378506442956337,0.16320551357977917,0.7737067779077123,0.4741266870786561,-0.08701855732899114,1.8645960008785916
1781551789508655616,0.3609025478363037,-2.734529495239258,0.03861258924007416,1.0056449174880981,-0.08067108690738678,-0.4350443184375763,-0.8967879414558411,0.23487640917301178,-0.5342245101928711,0.17249900102615356,0.5855025154427608,0.16738665377923323,0.15358295957240217,0.7781908022878282,0.450087483525116,-0.08971412079028275,1.8720861874291859
1781551789518690560,0.3709375858306885,-3.9331703186035156,-0.0036637578159570694,1.267533302307129,-0.08522091060876846,-0.4043298661708832,-0.9106342792510986,0.31593379378318787,-0.5632299184799194,0.17934155464172363,0.5837198640885323,0.15849442282442128,0.139865601688325,0.7839568346793334,0.41624602472451316,-0.09331235029888707,1.8812635275925735
1781551789528725504,0.38097262382507324,-5.634674072265625,-0.23909732699394226,1.4594686031341553,-0.09134586155414581,-0.35904571413993835,-0.9288391470909119,0.3741522431373596,-0.6211941242218018,0.19454044103622437,0.5820360827406955,0.14580300222524883,0.11967423794486891,0.7909827134225813,0.3672452382934184,-0.09802889272329365,1.891059383989337
1781551789538760704,0.391007661819458,-7.230096340179443,-0.6751409769058228,1.6792603731155396,-0.10071167349815369,-0.2968316078186035,-0.9496042132377625,0.4687536656856537,-0.745450496673584,0.15671175718307495,0.5804851337429241,0.1296363174642704,0.0916095834333856,0.7986483930353876,0.30137299858818956,-0.10566149133156479,1.9006316687088998
1781551789548795392,0.40104246139526367,-8.770782470703125,-1.1891666650772095,1.9521987438201904,-0.11437582969665527,-0.21782949566841125,-0.9692618250846863,0.5970113277435303,-0.8323109149932861,0.15723484754562378,0.5783105651409114,0.11080250839664231,0.05560478124487823,0.8063422756606989,0.21959000757935662,-0.11745983789652457,1.9101998141384129
1781551789558830592,0.41107749938964844,-10.217414855957031,-1.8215006589889526,2.1144280433654785,-0.13251259922981262,-0.12206938117742538,-0.9836358428001404,0.7145743370056152,-0.8733072280883789,0.17885679006576538,0.5750434621062684,0.08970502463756094,0.011622580105277442,0.8131070143458478,0.12237458764815659,-0.133910904228875,1.9187018896697434
1781551789568865536,0.4211125373840332,-11.431371688842773,-2.5344836711883545,2.1101267337799072,-0.15564368665218353,-0.01172354631125927,-0.9877436757087708,0.8211863040924072,-0.8613843321800232,0.255489706993103,0.5704193829944737,0.06738488574808198,-0.03984257914284703,0.8176145297585574,0.011723815249663325,-0.1562898724156701,1.9241991060105037
1781551789578900480,0.43114757537841797,-12.5217924118042,-3.2624258995056152,1.939825177192688,-0.18327945470809937,0.11000489443540573,-0.9768866896629333,0.8938812613487244,-0.7772717475891113,0.36188119649887085,0.5644292065099098,0.04447164028321831,-0.09787204883001446,0.8184516602352842,-0.1102279763207097,-0.1854599010125655,1.9238664370508582
1781551789588934656,0.44118165969848633,-13.315511703491211,-3.9003164768218994,1.655680537223816,-0.21468313038349152,0.23871414363384247,-0.9470621347427368,0.9349437355995178,-0.6704310178756714,0.4900461435317993,0.5568742416432083,0.021533588630058376,-0.16126135471532224,0.8145074233164475,-0.2410414933255968,-0.22291600161995404,1.9150880218941562
1781551789598969344,0.451216459274292,-13.88036823272705,-4.564208030700684,1.3377089500427246,-0.2492881417274475,0.3681536018848419,-0.8957222104072571,0.9402366280555725,-0.6014605164527893,0.6494301557540894,0.5473518871196233,-0.00041945009900361334,-0.2283390221661644,0.8051502182957897,-0.37702236054861576,-0.2714405637326235,1.8954014336657585
1781551789609004544,0.46125149726867676,-14.120383262634277,-5.094262599945068,0.9643617272377014,-0.28616246581077576,0.49252578616142273,-0.8219059705734253,0.9088279008865356,-0.5758540630340576,0.8510197401046753,0.535548021150876,-0.020690086216907738,-0.2976893490089174,0.7900261253541744,-0.5149895970241158,-0.33504302959733684,1.8611262343837693
1781551789619039488,0.4712865352630615,-13.71657943725586,-5.347069263458252,0.44659578800201416,-0.3230307996273041,0.6034138202667236,-0.7290698289871216,0.861711859703064,-0.5743305683135986,1.044026494026184,0.5219593867393498,-0.03839813718659043,-0.3660473473551399,0.7694760193473765,-0.6477752821893705,-0.41707811064296274,1.807679322327408
1781551789629074688,0.4813215732574463,-13.145552635192871,-5.419820308685303,-0.12236592173576355,-0.35860738158226013,0.6952102780342102,-0.6229633688926697,0.8356887102127075,-0.4621780514717102,1.220665454864502,0.5074947840051311,-0.052938108249826935,-0.43094764646710687,0.7442651594472082,-0.7687123794209951,-0.5223208565433352,1.7293129241943468
1781551789639109632,0.49135661125183105,-12.52373218536377,-5.525516033172607,-0.5765177011489868,-0.3923754096031189,0.7668598890304565,-0.5079049468040466,0.8354601263999939,-0.24320876598358154,1.346085548400879,0.49234183881471544,-0.0642740050360744,-0.4918499460153051,0.7152286049027066,-0.8739341580854323,-0.6577694845709533,1.619686946574517
1781551789649144576,0.5013916492462158,-11.513004302978516,-5.63896369934082,-0.8422077298164368,-0.42321115732192993,0.8182276487350464,-0.38909631967544556,0.8239527344703674,-0.02148991823196411,1.3207521438598633,0.4761642672401059,-0.0720948861873078,-0.5479545282591347,0.6839706251236034,-0.9583212535107292,-0.8273709434136933,1.4767745082830475
1781551789659179520,0.5114264488220215,-10.253129959106445,-5.71852970123291,-0.9919247627258301,-0.4497634470462799,0.850437581539154,-0.27288973331451416,0.742533802986145,0.15725284814834595,1.2008377313613892,0.45884477480372843,-0.07596607657372238,-0.598150723339361,0.6526150340030287,-1.0168165238649283,-1.0254352665378093,1.3080383407997669
1781551789669214464,0.5214614868164062,-8.5853910446167,-5.493758678436279,-1.0843760967254639,-0.4712385833263397,0.8664067983627319,-0.16514645516872406,0.5724501609802246,0.2169061303138733,0.9770971536636353,0.44100538484326,-0.07597684479988195,-0.6416029075243898,0.6229666263537359,-1.0479608340062345,-1.2337189908822512,1.1316989488632805
1781551789679249408,0.531496524810791,-5.995518684387207,-4.797396659851074,-0.9118089079856873,-0.48629194498062134,0.870435893535614,-0.0765601396560669,0.4034672677516937,0.09109663963317871,0.6766425371170044,0.4243119487423109,-0.07270893515383263,-0.6755985061312314,0.5985310203214498,-1.056087028690104,-1.414641493808291,0.9830884316436979
1781551789689284608,0.5415315628051758,-4.135941028594971,-4.104626655578613,-0.5976696014404297,-0.49486279487609863,0.8688992857933044,-0.011174680665135384,0.2952931225299835,-0.012362420558929443,0.6217093467712402,0.409459009965264,-0.06735331472528583,-0.6999115590815786,0.5813180397996319,-1.0529742233871255,-1.5482187916948136,0.880830729083312
1781551789699319552,0.5515666007995605,-3.1153147220611572,-3.475095748901367,-0.27507850527763367,-0.4981105923652649,0.8662319183349609,0.03908873349428177,0.23398101329803467,-0.04309666156768799,0.6477856636047363,0.3960732897246573,-0.06217533726587507,-0.7181076482256571,0.5688422487137683,-1.0476107307084959,-1.6491098395804067,0.8083322595509617
1781551789709354752,0.5616016387939453,-2.174356460571289,-3.0047130584716797,0.0075774285942316055,-0.4973258972167969,0.8640314936637878,0.07820891588926315,0.21091845631599426,-0.12457531690597534,0.5011825561523438,0.3839069935358514,-0.057762264592118216,-0.7319617335524751,0.5599205406680263,-1.0432233988096034,-1.72677775917572,0.7559688399936313
1781551789719389440,0.571636438369751,-1.2657535076141357,-2.743786334991455,0.2717305123806,-0.4934538006782532,0.8631185293197632,0.10737783461809158,0.2205350697040558,-0.15749090909957886,0.35630619525909424,0.37244579394086413,-0.05353785070940413,-0.742174249440861,0.5546127514713413,-1.0414126919407818,-1.7850607064867199,0.7217588660542672
1781551789729424384,0.5816714763641357,-0.20623907446861267,-2.574822425842285,0.5748142004013062,-0.48666656017303467,0.864313542842865,0.12695683538913727,0.23939785361289978,-0.11004096269607544,0.21941770613193512,0.3611546367344868,-0.0491396325546949,-0.7490418621987809,0.5532531508657622,-1.0437839347350086,-1.8259793581696462,0.7051924118591779
1781551789739459584,0.5917065143585205,1.0614738464355469,-2.492990732192993,0.9718071222305298,-0.47661590576171875,0.8686038851737976,0.13551700115203857,0.24050137400627136,-0.05762964487075806,0.04131712019443512,0.3495702257661518,-0.04424776296290812,-0.7521972064856144,0.5568144029741572,-1.052377761921393,-1.8478172637250754,0.7093003505283709
1781551789749494528,0.6017415523529053,2.4126126766204834,-2.407393217086792,1.4056419134140015,-0.4629152715206146,0.8765390515327454,0.13186684250831604,0.21729454398155212,-0.06950169801712036,-0.10101354122161865,0.337340187755719,-0.03883931309969488,-0.7512821910428117,0.5659224600828526,-1.06862406394879,-1.84830759762337,0.7369171160454044
1781551789759529472,0.61177659034729,3.63044810295105,-2.2998206615448,1.9123910665512085,-0.4453369081020355,0.8878571391105652,0.1156914159655571,0.1961609423160553,-0.17838460206985474,-0.12281729280948639,0.3242862760814914,-0.03324300446142366,-0.7461505284131951,0.58051063867476,-1.092666851375996,-1.8249620751855347,0.7901470089776841
1781551789769564672,0.6218116283416748,4.481766700744629,-2.1063435077667236,2.4682047367095947,-0.42338433861732483,0.9016017317771912,0.08865690976381302,0.18427911400794983,-0.31062883138656616,-0.04796171188354492,0.3102117181576665,-0.028369539775376283,-0.7372405477806195,0.5995333737955314,-1.1234582443308205,-1.77721431655574,0.8682473632033751
1781551789779599616,0.6318466663360596,4.848882675170898,-1.8370156288146973,3.019150733947754,-0.3968872129917145,0.916281521320343,0.05393524095416069,0.1620238721370697,-0.3981386423110962,0.06995082646608353,0.29517185242704896,-0.025271886420493016,-0.7254853215485978,0.6212133919629352,-1.1586957583116528,-1.7058645511456527,0.9685217158487975
1781551789789634560,0.6418814659118652,4.736804485321045,-1.4784753322601318,3.4971797466278076,-0.36605212092399597,0.9304622411727905,0.015687042847275734,0.12867110967636108,-0.414806604385376,0.2144918441772461,0.27941615393885544,-0.024823618954679577,-0.7121989255472926,0.6434929649452457,-1.1956724353348747,-1.6136247921573657,1.08645021894907
1781551789799668480,0.6519155502319336,4.462799072265625,-1.0484532117843628,3.885899782180786,-0.33135437965393066,0.9432226419448853,-0.023139843717217445,0.09191346168518066,-0.35551512241363525,0.2959517240524292,0.263415524077656,-0.027483503120912137,-0.6983371214628484,0.6649678407551233,-1.2322023325838996,-1.5010753930606981,1.2200672733622333
1781551789809703680,0.6619505882263184,4.3609395027160645,-0.6537018418312073,4.226127624511719,-0.29306915402412415,0.9540561437606812,-0.062349241226911545,0.08727386593818665,-0.20500218868255615,0.30198854207992554,0.24739365970468863,-0.033054615520642316,-0.6839099146233832,0.6855443410031947,-1.2664937368347426,-1.3611757242593778,1.3764262798230908
1781551789819738624,0.6719856262207031,4.323357582092285,-0.3134284019470215,4.493936538696289,-0.25145822763442993,0.962384819984436,-0.10287991911172867,0.09731394052505493,0.031603217124938965,0.3505758047103882,0.23132994005108407,-0.04097425465403376,-0.6684916998279647,0.7056390352626621,-1.2956476712664509,-1.1824413534742284,1.567891083684333
1781551789829773568,0.6820206642150879,4.17277193069458,0.056692928075790405,4.645885944366455,-0.20729345083236694,0.9676656126976013,-0.14371004700660706,0.09939856827259064,0.3045053482055664,0.43043792247772217,0.21544768585383578,-0.05090486837388443,-0.652344749477266,0.7248705242407497,-1.3158055940051772,-0.9646023805590991,1.7949083667839478
1781551789839808512,0.6920554637908936,4.416916847229004,0.456949919462204,4.850246906280518,-0.16085775196552277,0.9693445563316345,-0.18573085963726044,0.11239583790302277,0.456421434879303,0.44116300344467163,0.20005166675761085,-0.06267490595111223,-0.6349853775907911,0.7435353402912045,-1.3225491010016668,-0.7137554967173443,2.0511827518480548
1781551789849843456,0.7020905017852783,4.463459014892578,0.8559921383857727,5.183294296264648,-0.11069350689649582,0.9668238759040833,-0.2302139401435852,0.13353592157363892,0.472598671913147,0.4421127438545227,0.18475127454261966,-0.076612317272337,-0.6156489126368423,0.7622164346288408,-1.312489540249453,-0.44819341644650096,2.3184787459899474
1781551789859878656,0.7121255397796631,4.131016731262207,1.1745468378067017,5.274852752685547,-0.05731852352619171,0.9603658318519592,-0.27278590202331543,0.10803874582052231,0.41484779119491577,0.41150349378585815,0.16933979919416636,-0.09266664379878756,-0.5958355050084524,0.7795620917535134,-1.2883117540379785,-0.2071097679243363,2.5580036768425
1781551789869913600,0.7221605777740479,3.5192275047302246,1.4662812948226929,5.076270580291748,-0.0036698305048048496,0.9507124423980713,-0.31005239486694336,0.08733376860618591,0.3464066982269287,0.29879140853881836,0.15470089891217192,-0.11004192363374923,-0.5769441721677845,0.7944142009949473,-1.2555255602017328,-0.011835609526234555,2.7483461791568975
1781551789879948544,0.7321956157684326,2.650735378265381,1.5511218309402466,4.758749008178711,0.04799340292811394,0.9395340085029602,-0.3390760123729706,0.14290930330753326,0.4090682864189148,0.13968944549560547,0.141139320907289,-0.12791455888576211,-0.5604461246666833,0.8059886802648436,-1.2212670324408426,0.14060770318552873,2.8933702912147266
1781551789889983744,0.7422306537628174,1.6986135244369507,1.4121499061584473,4.408019542694092,0.09630611538887024,0.9286057949066162,-0.3583521842956543,0.22081728279590607,0.566206157207489,0.0025477707386016846,0.12812247411537334,-0.1453070965591453,-0.5474575382458772,0.814101141425816,-1.1906377997226063,0.26254371744310284,3.00776668029027
1781551789900018432,0.752265453338623,0.9102571606636047,1.1021394729614258,3.977984666824341,0.13976837694644928,0.9189174771308899,-0.36885714530944824,0.2522146701812744,0.7682926058769226,-0.09882473945617676,0.1153435841107146,-0.16107781894719025,-0.5381685264760508,0.8192218824788423,-1.1653272033996493,0.36220537494089566,3.1020083606934383
1781551789910053376,0.7623004913330078,0.30182918906211853,0.8195652365684509,3.5923960208892822,0.17802460491657257,0.9106678366661072,-0.3728155195713043,0.24050872027873993,0.9811473488807678,-0.12854254245758057,0.10283435893112317,-0.17482339845567824,-0.532004722785769,0.8220905843287737,-1.1448977203277404,0.445497503866283,-3.100589130319862
1781551789920088576,0.7723355293273926,-0.1788010597229004,0.6344000697135925,3.288400411605835,0.2120039165019989,0.9037277102470398,-0.371927946805954,0.1649034023284912,1.124211072921753,-0.08737680315971375,0.09060095394563182,-0.186899575796298,-0.5283034829539418,0.823258984965962,-1.1283985088998525,0.5180786256854485,-3.0285220129368207
1781551789930123520,0.7823705673217773,-0.5564396977424622,0.5778103470802307,2.9990458488464355,0.24263571202754974,0.8979241251945496,-0.36723315715789795,0.037469878792762756,1.1576788425445557,-0.01139843463897705,0.07885002720241635,-0.19784546758589655,-0.5265364092814638,0.8230426825059765,-1.1150302857114558,0.5838694715143303,-2.9621655793551005
1781551789940158720,0.7924056053161621,-0.8786478042602539,0.60428386926651,2.7269439697265625,0.2704986333847046,0.8931940793991089,-0.359214186668396,-0.10019528865814209,1.0985509157180786,0.04984217882156372,0.0678574981684185,-0.20809642740887418,-0.5263922373288759,0.8215853436453909,-1.1043990005961501,0.6454367369650027,-2.9000099573295843
1781551789950193664,0.8024406433105469,-1.0509769916534424,0.614006519317627,2.4480440616607666,0.2958178222179413,0.889305591583252,-0.3487512171268463,-0.20312067866325378,0.978644847869873,0.005611538887023926,0.057779643871032155,-0.21776322537773674,-0.5274500653142693,0.8191685471071309,-1.0958244226155607,0.7034598786600107,-2.8417973629015973
1781551789960228352,0.8124754428863525,-1.0386813879013062,0.5746877193450928,2.201324701309204,0.31856971979141235,0.8857781887054443,-0.33750584721565247,-0.26444682478904724,0.8730871081352234,-0.09210535883903503,0.048649756381070636,-0.22665266338954818,-0.5290327503361443,0.816324703200384,-1.088168098348596,0.7565434446836682,-2.7887387196040785
1781551789970263552,0.8225104808807373,-0.877372682094574,0.5156108140945435,1.9775876998901367,0.33892759680747986,0.8821061849594116,-0.3271344304084778,-0.31895381212234497,0.8166549205780029,-0.1492449939250946,0.0404303548721694,-0.23465049959281406,-0.5304450349645038,0.8135924519110908,-1.0803148462575605,0.8031021317091691,-2.742249778592278
1781551789980298496,0.8325455188751221,-0.5879941582679749,0.4788059592247009,1.7365556955337524,0.3569486737251282,0.8780118227005005,-0.3188776969909668,-0.3897398114204407,0.7907198667526245,-0.1916966438293457,0.0332923012608487,-0.24175894820410282,-0.5311438219736395,0.8113756980051838,-1.0716923836548504,0.8416711574117766,-2.7040825511270996
1781551789990333440,0.8425805568695068,-0.18282641470432281,0.5058373212814331,1.5033661127090454,0.3727259337902069,0.8733339309692383,-0.3136291205883026,-0.4568934142589569,0.7715482711791992,-0.22715765237808228,0.02752131573154199,-0.24811679219160393,-0.5306821056906027,0.8099735371874507,-1.0620050183146295,0.871288720046553,-2.6758515884118723
1781551790000367616,0.8526146411895752,0.30244892835617065,0.5720962285995483,1.2861160039901733,0.3866105079650879,0.8678289651870728,-0.31209796667099,-0.5040879249572754,0.7420952916145325,-0.2825370728969574,0.023366938366203672,-0.25401343154001294,-0.5286096823578416,0.8096313674598938,-1.0508160757215337,0.891639875845957,-2.6587093928569985
1781551790010402560,0.8626494407653809,0.7788570523262024,0.6429831385612488,1.08073091506958,0.39880549907684326,0.861444890499115,-0.3144310414791107,-0.5264452695846558,0.7017722725868225,-0.3442755937576294,0.02086617168150238,-0.25956088666982874,-0.5247976923784133,0.8104197350956701,-1.038107964927767,0.903148884819692,-2.652473241392542
1781551790020437504,0.8726844787597656,1.1722381114959717,0.7039139866828918,0.8596909642219543,0.40930822491645813,0.8544050455093384,-0.3200918436050415,-0.5377871990203857,0.6450914144515991,-0.4256967306137085,0.019975156663771147,-0.26475543477430574,-0.5194791971122853,0.8121865153639268,-1.0244047806578713,0.9071083461716763,-2.6557715352824975
1781551790030472448,0.8827195167541504,1.5041135549545288,0.7147365808486938,0.6401271820068359,0.418033242225647,0.8468966484069824,-0.3286554515361786,-0.528262734413147,0.5724759101867676,-0.5169561505317688,0.02056765691436395,-0.26947060028573183,-0.512891673366843,0.814803547697148,-1.0101218918188941,0.9045302171702461,-2.6672101398102073
1781551790040507648,0.8927545547485352,1.6614634990692139,0.7110181450843811,0.4303070902824402,0.424959659576416,0.8392810225486755,-0.33914080262184143,-0.5156427025794983,0.4849528670310974,-0.5344096422195435,0.022378328817407925,-0.2735967828592422,-0.5055436687772173,0.8179666770025665,-0.9959594939029437,0.8972430335104686,-2.6843673192960487
1781551790050542592,0.9027895927429199,1.5649665594100952,0.7020989656448364,0.2034233659505844,0.4300605356693268,0.8323130011558533,-0.34971854090690613,-0.5155097246170044,0.36742454767227173,-0.44604259729385376,0.02509329603472213,-0.2771055979841248,-0.49835049361651607,0.8211148827778006,-0.9832674907987825,0.8880676355003233,-2.7038214889951524
1781551790060577536,0.9128246307373047,1.6729835271835327,0.6500970125198364,-0.05810198560357094,0.4330626130104065,0.8262938857078552,-0.3601321578025818,-0.512484610080719,0.22084051370620728,-0.4198971390724182,0.027180076913777555,-0.2789395298562591,-0.49206367422880976,0.8242131480635245,-0.9724955840848427,0.8770855581835438,-2.7215129214267573
1781551790070612736,0.9228596687316895,1.7092925310134888,0.6669800877571106,-0.3081669509410858,0.4339457154273987,0.8207743763923645,-0.37151098251342773,-0.48915204405784607,0.14142954349517822,-0.3690590560436249,0.03201196811775279,-0.28097333494342586,-0.4850757663520744,0.8274845146692463,-0.9627653001888589,0.8627581742722525,-2.746999697842357
1781551790080647424,0.9328944683074951,1.2257938385009766,0.5118076205253601,-0.5187258124351501,0.43284061551094055,0.8169399499893188,-0.38112732768058777,-0.43017035722732544,0.19505339860916138,-0.35541436076164246,0.03727577534701572,-0.2822196572110375,-0.4793624896586277,0.8301651191813185,-0.9560849730648029,0.8488452153566152,-2.771352443913171
1781551790090682624,0.9429295063018799,0.7299864292144775,0.18827132880687714,-0.786525547504425,0.42882031202316284,0.8160914182662964,-0.387437641620636,-0.33908340334892273,0.34166914224624634,-0.5422040224075317,0.04224236364422976,-0.28194240383406716,-0.47622438055277116,0.8318259329649078,-0.9546151831152733,0.8360528340535274,-2.791425674314829
1781551790100717568,0.9529645442962646,0.6090093851089478,-0.13465239107608795,-0.8030198216438293,0.42217713594436646,0.8170080780982971,-0.3927648961544037,-0.23812562227249146,0.4046105742454529,-0.7630273699760437,0.04659488540049639,-0.2798919138063791,-0.4746346760824717,0.833193456261871,-0.9562031089525088,0.8214737158630369,-2.809399360320205
1781551790110751232,0.9629981517791748,0.2892068922519684,-0.2939983904361725,-0.7034727334976196,0.41515645384788513,0.8182346224784851,-0.3976646959781647,-0.17185506224632263,0.2915523648262024,-0.7567085027694702,0.04990195897464429,-0.27708192217043354,-0.4737016649628604,0.834471145023643,-0.9583334005008907,0.8069146734324456,-2.8245498684912658
1781551790120786176,0.9730331897735596,-0.3869667947292328,-0.5056859850883484,-0.7322663068771362,0.4076896905899048,0.8213208913803101,-0.3990251123905182,-0.14772573113441467,0.10388046503067017,-0.6005475521087646,0.05187989848274253,-0.2737136706894722,-0.47494027767534,0.8347580560551315,-0.96372268408227,0.7961382975808434,-2.8327791666912683
1781551790130821120,0.9830682277679443,-1.019278645515442,-0.7480818629264832,-0.8274122476577759,0.398705393075943,0.8273345828056335,-0.39566588401794434,-0.1203393042087555,-0.06900328397750854,-0.45661377906799316,0.05267724071871487,-0.2693932353123114,-0.4791600405531664,0.8337014180118884,-0.9743458003610938,0.7892244492262893,-2.8335054735187595
1781551790140856320,0.9931032657623291,-1.5368448495864868,-0.9257797002792358,-1.0145877599716187,0.3877244293689728,0.8359397053718567,-0.3884259760379791,-0.10232403874397278,-0.10939246416091919,-0.28676021099090576,0.05275024096610572,-0.26396636041774363,-0.4859102578990993,0.8315230163764786,-0.9898427830292751,0.7844943161695984,-2.8289530028173138
1781551790150891008,1.0031380653381348,-2.0148870944976807,-1.0527431964874268,-1.3142147064208984,0.3740893304347992,0.847261905670166,-0.37709999084472656,-0.07353699207305908,0.09199279546737671,-0.15070149302482605,0.05280595443273894,-0.25744429555489085,-0.4951489099930995,0.8281071810713793,-1.0108091446470835,0.7813903202087628,-2.820802080871526
1781551790160926208,1.0131731033325195,-1.9980952739715576,-1.1666733026504517,-1.5948960781097412,0.3573906421661377,0.8601965308189392,-0.3637773394584656,-0.013304948806762695,0.4257226586341858,-0.12529736757278442,0.05348683112293628,-0.24968173893379644,-0.5057374455688632,0.82403148698944,-1.0356549257250856,0.7765423606813714,-2.813359714664588
1781551790170961152,1.0232081413269043,-1.665253758430481,-1.1860944032669067,-1.7976607084274292,0.33828845620155334,0.8727378845214844,-0.35197922587394714,0.04904061555862427,0.7437781691551208,-0.14409920573234558,0.055169453065085784,-0.24087471979461259,-0.5157419427122035,0.8203327924226099,-1.060782810392002,0.7655667562748788,-2.8121348383441416
1781551790180996096,1.033243179321289,-1.0931646823883057,-1.0125269889831543,-1.9910120964050293,0.3175700604915619,0.8838361501693726,-0.3434864282608032,0.08938184380531311,0.9379564523696899,-0.17735707759857178,0.05847628215080701,-0.23171083883217666,-0.5239912925742362,0.8175106893534525,-1.0840001768544896,0.7462137508847877,-2.821444491887515
1781551790191031296,1.0432782173156738,-0.4075956344604492,-0.8687689900398254,-2.1739749908447266,0.29554563760757446,0.8927851915359497,-0.3399815857410431,0.11703675985336304,0.9680851697921753,-0.20301765203475952,0.06375068650665516,-0.22246103479439483,-0.5296416658535533,0.8160433181713549,-1.1034904272047166,0.7155919580349724,-2.845132292409986
1781551790201064960,1.053312063217163,0.053921934217214584,-0.7991053462028503,-2.3380701541900635,0.2723441421985626,0.8997414112091064,-0.34101927280426025,0.14271017909049988,0.8525779247283936,-0.17988526821136475,0.07062904859345398,-0.21306540444521416,-0.5330042171694974,0.8157948331457178,-1.1191765777038891,0.6738977243478371,-2.8823136676807413
1781551790211100160,1.0633471012115479,0.15521687269210815,-0.8164640665054321,-2.483570098876953,0.24770790338516235,0.9056089520454407,-0.3442573845386505,0.16675131022930145,0.6398621797561646,-0.1333121955394745,0.0784864140823962,-0.20325329028576217,-0.535312438912856,0.8160689624709724,-1.1328134091061173,0.6237218293936737,-2.9289479424364386
1781551790221135104,1.0733821392059326,0.06305178999900818,-0.8857888579368591,-2.6548023223876953,0.22131825983524323,0.9112432599067688,-0.34735286235809326,0.17882822453975677,0.4310876727104187,-0.08857548236846924,0.08683569520153651,-0.1927944146165174,-0.5377303133868809,0.8161715421392896,-1.1462925703775517,0.567293620813791,-2.981644341679231
1781551790231170304,1.0834171772003174,-0.10374012589454651,-0.9328290820121765,-2.8127424716949463,0.19299080967903137,0.9169995188713074,-0.34909412264823914,0.1824517399072647,0.2891010642051697,-0.04461321234703064,0.09556827199879371,-0.1816509345510223,-0.5407919009280238,0.8157290821286025,-1.1604920524643387,0.5050157838298591,-3.039746602937067
1781551790241205248,1.0934522151947021,-0.30080339312553406,-0.9714068174362183,-2.911484479904175,0.16320186853408813,0.9227996468544006,-0.3490072786808014,0.18648381531238556,0.20307010412216187,-0.007605850696563721,0.10452352127128436,-0.17005024488376919,-0.5445909179650955,0.8146033169375124,-1.1752848860585698,0.43740754827106904,-3.1028443670220103
1781551790251240192,1.103487253189087,-0.49744322896003723,-1.0094836950302124,-3.02516508102417,0.13214746117591858,0.9286164045333862,-0.346711128950119,0.17202123999595642,0.15082085132598877,0.032837867736816406,0.11358643409902201,-0.15806821197978732,-0.5492348039480597,0.8126830220335505,-1.1906663310397245,0.36414776018005085,3.1119786583208264
1781551790261275392,1.1135222911834717,-0.6106398105621338,-1.0174436569213867,-3.1246111392974854,0.09985125809907913,0.9341042637825012,-0.3427518606185913,0.14871440827846527,0.1354299783706665,0.053857237100601196,0.12287678416938684,-0.1457232607459157,-0.5544265450993748,0.8101093646894448,-1.205741764364304,0.2834766847603637,3.0363520749561026
1781551790271310080,1.1235570907592773,-0.7291214466094971,-0.9650515913963318,-3.2209229469299316,0.06659895181655884,0.939058780670166,-0.3372434079647064,0.12820999324321747,0.1768164038658142,0.0820402204990387,0.13251076216342425,-0.13323906741782424,-0.5600228970846775,0.8068844918897694,-1.2198820078121742,0.19497166592725962,2.952521462849938
1781551790281345024,1.133592128753662,-0.722619354724884,-0.8601489067077637,-3.272792100906372,0.032815635204315186,0.9431354999542236,-0.33078479766845703,0.12134390324354172,0.19788622856140137,0.09386152029037476,0.1425997958962253,-0.12086624943000865,-0.5656845033364726,0.8031548349578732,-1.2319401314318252,0.09888185477050396,2.860177100183114
1781551790291380224,1.1436271667480469,-0.6622758507728577,-0.7263990640640259,-3.2889554500579834,-0.0009360573603771627,0.9459323287010193,-0.3243626356124878,0.12370827794075012,0.1542111039161682,0.11125838756561279,0.1531461365766537,-0.10882048303688154,-0.5709437643280924,0.7992043464226937,-1.2404570510523882,-0.0028858279483037616,2.7608750971727574
1781551790301415168,1.1536622047424316,-0.6375417113304138,-0.5973392128944397,-3.3047757148742676,-0.03439551591873169,0.9474422931671143,-0.3180721700191498,0.1284659504890442,0.07123440504074097,0.13800325989723206,0.16409063735226373,-0.09720268182222258,-0.5757738746825212,0.7950536136567727,-1.2451442135813764,-0.10771888646203978,2.657172490366909
1781551790311450368,1.1636972427368164,-0.6360178589820862,-0.4731895923614502,-3.3070223331451416,-0.06757555156946182,0.9477422833442688,-0.31179824471473694,0.13219651579856873,-0.0160558819770813,0.15017712116241455,0.17541739914776938,-0.08600549204758065,-0.5802619540066896,0.7906502666412641,-1.2460831003715112,-0.21342767233119098,2.551304186468945
1781551790321485312,1.1737322807312012,-0.7171121835708618,-0.39030134677886963,-3.2980399131774902,-0.10029161721467972,0.9470442533493042,-0.30503928661346436,0.13865220546722412,-0.07051825523376465,0.17137226462364197,0.1869379419659008,-0.07526473677293312,-0.5846499589775901,0.7858587545894805,-1.2439022988992696,-0.3176493325106264,2.44587671108516
1781551790331520000,1.1837670803070068,-0.7952437400817871,-0.27462801337242126,-3.327941656112671,-0.13277247548103333,0.9454543590545654,-0.2974680960178375,0.13823512196540833,-0.06895911693572998,0.19523420929908752,0.1987020492434266,-0.06491779687478022,-0.5891108858247119,0.7805455716778193,-1.2389866600368498,-0.4198077180767418,2.3414919010042308
1781551790341555200,1.1938021183013916,-0.7667772173881531,-0.11040645092725754,-3.3411943912506104,-0.16498833894729614,0.9427904486656189,-0.2896983325481415,0.14744073152542114,-0.027736127376556396,0.1869761347770691,0.21092064796112936,-0.05506406853555882,-0.5933959790041209,0.7748300986102536,-1.2309035806532225,-0.5177044568559838,2.2398757636563156
1781551790351590144,1.2038371562957764,-0.5780640244483948,0.040826212614774704,-3.3006882667541504,-0.19647233188152313,0.9387136101722717,-0.28322309255599976,0.17060868442058563,-0.01931053400039673,0.17267316579818726,0.22352899105148702,-0.045748899429387466,-0.5969049290244566,0.7691854921155632,-1.2188792737330871,-0.6064863889372396,2.1458648581486113
1781551790361625088,1.2138721942901611,-0.286949098110199,0.16287289559841156,-3.267059326171875,-0.22703558206558228,0.9329673647880554,-0.2793324291706085,0.17961126565933228,-0.0635979175567627,0.1771748960018158,0.23639133628723127,-0.03679807356332909,-0.5991491384051041,0.764058402338296,-1.2025702558857128,-0.6824846930121754,2.0635435318908453
1781551790371660288,1.223907232284546,-0.006778961978852749,0.30079078674316406,-3.1857964992523193,-0.2565172016620636,0.925571084022522,-0.2784189283847809,0.1849382221698761,-0.13096964359283447,0.1778634786605835,0.2494338100891935,-0.028174044377845625,-0.5999973014765817,0.7596000583846305,-1.1825413500777457,-0.7444783576310207,1.994283832699371
1781551790381693952,1.2339410781860352,0.3897542655467987,0.36085280776023865,-3.045586347579956,-0.2844157814979553,0.9165210127830505,-0.28124186396598816,0.18521839380264282,-0.22262758016586304,0.16226905584335327,0.26231973469607245,-0.019786889667032438,-0.5991556901694848,0.7561807774629778,-1.159294169804906,-0.7910091241454726,1.9401539018308338
1781551790391729152,1.24397611618042,0.4361156225204468,0.43783414363861084,-2.928253412246704,-0.3105809688568115,0.9063729047775269,-0.28640466928482056,0.17467093467712402,-0.27639853954315186,0.21119409799575806,0.2748406954227909,-0.01174238364093465,-0.5972100028191714,0.7534354023573822,-1.1346180796025258,-0.8258733560888064,1.8975563929839612
1781551790401764096,1.2540111541748047,0.33667826652526855,0.5716887712478638,-2.8708677291870117,-0.3353440761566162,0.8958588242530823,-0.2915157973766327,0.1563432514667511,-0.2864227890968323,0.2445034384727478,0.28730304135647705,-0.004425121893770646,-0.5951659616633961,0.7504764828834751,-1.1103602508395538,-0.855201771451318,1.8594093577466182
1781551790411799296,1.2640461921691895,0.3035258948802948,0.723501443862915,-2.737035036087036,-0.3585762679576874,0.8851410746574402,-0.29656070470809937,0.17359396815299988,-0.28394484519958496,0.21278998255729675,0.2998075813491784,0.0019877650059976016,-0.5930562346306167,0.7472587855451551,-1.0867970880074564,-0.8797773824917612,1.8245168735577202
1781551790421834240,1.2740812301635742,0.35103800892829895,0.7793002724647522,-2.5412046909332275,-0.37963399291038513,0.8743533492088318,-0.30229848623275757,0.21815022826194763,-0.3016452193260193,0.13300222158432007,0.3119690673449561,0.00748685141199495,-0.5905884389168033,0.7441939364352925,-1.0641016858129753,-0.8983221002332245,1.7947184653259898
1781551790431869184,1.284116268157959,0.3590717017650604,0.7472766041755676,-2.375734329223633,-0.3987351357936859,0.8636388182640076,-0.3084447979927063,0.2387162446975708,-0.33844661712646484,0.12454590201377869,0.3233696099466551,0.012489971010793402,-0.5878959162856183,0.7413868273622533,-1.0424439396713523,-0.9123877508795936,1.7697226286714178
1781551790441904128,1.2941510677337646,0.3751462996006012,0.7465559244155884,-2.1994235515594482,-0.4161531925201416,0.8531217575073242,-0.3146422207355499,0.2365267276763916,-0.3661375045776367,0.09078049659729004,0.33406578969492473,0.0170584783057269,-0.5851392102465128,0.7387294058272591,-1.0219400506205623,-0.9234197536076465,1.7481131094462041
1781551790451939072,1.3041861057281494,0.5492321252822876,0.6824741363525391,-1.9873526096343994,-0.43172943592071533,0.8427066802978516,-0.3216445744037628,0.23367035388946533,-0.38019752502441406,0.01862025260925293,0.343908335051748,0.021328899027122105,-0.581998958925971,0.7365795387428495,-1.0022911283883449,-0.9304937573660972,1.7312404450510783
1781551790461974016,1.3142211437225342,0.6023605465888977,0.604741632938385,-1.8182621002197266,-0.4456641376018524,0.832349956035614,-0.32951006293296814,0.2172553837299347,-0.33236533403396606,0.02814897894859314,0.3527397561759006,0.02556725482534402,-0.5784386661851544,0.7350711301430636,-0.9833341608826665,-0.9341341274947916,1.7192279501153018
1781551790472009216,1.324256181716919,0.5849160552024841,0.622512936592102,-1.7456414699554443,-0.45860129594802856,0.8221041560173035,-0.3373865485191345,0.18984824419021606,-0.19698208570480347,0.06707710027694702,0.36107080913122563,0.0296396596002663,-0.5748288531511627,0.7337037496380264,-0.9650969862760161,-0.936519284985257,1.70893820094707
1781551790482044160,1.3342912197113037,0.6788628101348877,0.7119323015213013,-1.5826125144958496,-0.47011709213256836,0.8120649456977844,-0.345746248960495,0.20479726791381836,-0.08826428651809692,0.05056494474411011,0.3691008707734177,0.03318085944972217,-0.5709867891894421,0.732555576796025,-0.9476819414944718,-0.9366743394184117,1.7004974716523478
1781551790492079360,1.3443262577056885,0.7379511594772339,0.7543564438819885,-1.360960841178894,-0.4794708788394928,0.802485466003418,-0.35514068603515625,0.2351166307926178,-0.08970165252685547,0.04666900634765625,0.376500832473899,0.036036210711123784,-0.5666842584571987,0.7319956332281876,-0.9314491978904725,-0.9332784162035107,1.6955303262198391
1781551790502114304,1.3543612957000732,0.5860462784767151,0.7661275863647461,-1.213226318359375,-0.48704347014427185,0.7937763333320618,-0.36429068446159363,0.23054322600364685,-0.18308913707733154,0.06451651453971863,0.38326742260228996,0.038185888951200224,-0.5624913309695444,0.7316087226340391,-0.916992982196176,-0.9285999225990211,1.6918046980969383
1781551790512148992,1.364396095275879,0.27478745579719543,0.7354874014854431,-1.067710041999817,-0.49333685636520386,0.7865039110183716,-0.371524453163147,0.22797125577926636,-0.2975207567214966,0.05725443363189697,0.38951045340298757,0.039496721878119416,-0.5591759796840098,0.7307830512398072,-0.9051274703067456,-0.9253238889654486,1.6863535373265046
1781551790522184192,1.3744311332702637,-0.08903202414512634,0.6181620955467224,-0.8866897225379944,-0.49850738048553467,0.7812632322311401,-0.37565720081329346,0.23504909873008728,-0.3667275905609131,0.04873758554458618,0.3950048663403958,0.03993130878661347,-0.5572942573056644,0.7292461179072207,-0.8966870065303876,-0.9250181841469312,1.6780002879432871
1781551790532219136,1.3844661712646484,-0.3615482449531555,0.5108731985092163,-0.7374666333198547,-0.5027016401290894,0.7780756950378418,-0.3766821324825287,0.22256547212600708,-0.35295045375823975,0.0297277569770813,0.39956833849390977,0.03967803391229239,-0.5568523875529465,0.727108183675306,-0.8915966128866646,-0.9277333989209927,1.6672913367235147
1781551790542254336,1.3945012092590332,-0.5161412358283997,0.4768313765525818,-0.6426069736480713,-0.5062209367752075,0.7762781977653503,-0.37567636370658875,0.19660478830337524,-0.2438836693763733,0.0011951327323913574,0.4035500824463958,0.03890431196989954,-0.5573583001724927,0.7245589583637086,-0.888740238688602,-0.9323579090123388,1.6549680775207458
1781551790552289280,1.404536247253418,-0.4555889964103699,0.4546163082122803,-0.5517569780349731,-0.5091195106506348,0.7750958204269409,-0.37419766187667847,0.17728662490844727,-0.11022460460662842,-0.006310760974884033,0.4071064212060091,0.03788811784569744,-0.558091084159122,0.7220549044978049,-0.8868667272948688,-0.936971156969846,1.6430250261594548
1781551790562324224,1.4145712852478027,-0.23255403339862823,0.4870026111602783,-0.5021766424179077,-0.5114566087722778,0.7737048268318176,-0.3738890588283539,0.15513336658477783,0.007621467113494873,0.022265493869781494,0.410378789602882,0.03696386119946256,-0.5582912730453603,0.7200929423787213,-0.8846682358463325,-0.9395483484152234,1.6336592440113458
1781551790572358144,1.424605131149292,0.03097773715853691,0.5782744884490967,-0.4308321475982666,-0.5130999684333801,0.7716822624206543,-0.375812292098999,0.1322559118270874,0.07891887426376343,0.04137018322944641,0.41357722167762334,0.036147846867772414,-0.5574828997364338,0.7189297937160204,-0.8814819841323043,-0.938632030980571,1.627954739242669
1781551790582393088,1.4346401691436768,0.40471404790878296,0.6342282891273499,-0.3324592411518097,-0.5137612819671631,0.7688736915588379,-0.3806343674659729,0.10807591676712036,0.059876859188079834,0.009784787893295288,0.4166282989966347,0.0354765465078293,-0.5553595561473501,0.7188449090453657,-0.8770778079609993,-0.9331590018141338,1.627118158466116
1781551790592428288,1.4446752071380615,0.6556655764579773,0.6406595706939697,-0.26183515787124634,-0.5135523080825806,0.7652568817138672,-0.38813135027885437,0.08658093214035034,-0.012083113193511963,-0.00195959210395813,0.4193778959134501,0.03511927243414253,-0.5519972544211916,0.7198526550481135,-0.8714402962651533,-0.9236077808367059,1.6311730790264336
1781551790602463232,1.4547102451324463,0.6362327933311462,0.6532861590385437,-0.22867558896541595,-0.512872576713562,0.761385440826416,-0.39655235409736633,0.07732576131820679,-0.07638800144195557,0.01251918077468872,0.4219304339322917,0.03485380467769849,-0.5481870474947118,0.7212841196074304,-0.8654475125477922,-0.9126127020790517,1.6370659924884219
1781551790612498176,1.464745283126831,0.4710155725479126,0.6490940451622009,-0.19250239431858063,-0.511878252029419,0.7580631375312805,-0.4041299521923065,0.08461689949035645,-0.14131814241409302,0.005570411682128906,0.42440464033019126,0.03424545037874327,-0.5447589109174968,0.7224581026210192,-0.8603381207746927,-0.9024881727203049,1.641751668374278
1781551790622533120,1.4747800827026367,0.36649635434150696,0.5399242043495178,-0.08229973167181015,-0.5104866027832031,0.7556254863739014,-0.4104065001010895,0.10680007934570312,-0.20553088188171387,0.0021118521690368652,0.4264713946132073,0.03335184155360138,-0.5419265663072649,0.7234122905225864,-0.8566084961554915,-0.8936505520667459,1.6454842008339379
1781551790632568064,1.4848151206970215,0.17314207553863525,0.4332272708415985,-0.005051014944911003,-0.5087864995002747,0.7542835474014282,-0.4149610102176666,0.10007983446121216,-0.187144935131073,0.031370311975479126,0.4278861989244095,0.03229095459625452,-0.5398859067470834,0.724150475734243,-0.8545622204344719,-0.8866215017585051,1.6483599144917025
1781551790642603264,1.4948501586914062,0.11752860248088837,0.36396512389183044,0.06235119327902794,-0.5069532990455627,0.7538683414459229,-0.41794848442077637,0.07638078927993774,-0.11881279945373535,0.009577512741088867,0.4288480566710664,0.03106589953022244,-0.5385728037922972,0.7246127739305435,-0.8539300530350126,-0.8813343807929909,1.650111569173341
1781551790652638208,1.504885196685791,0.3130203187465668,0.3466729521751404,0.19741953909397125,-0.5044921040534973,0.7536501288414001,-0.4213067889213562,0.05792832374572754,-0.0748627781867981,-0.019138216972351074,0.42929743508850066,0.029881907673005234,-0.537078841603913,0.7255048246083463,-0.8535979580489784,-0.8750099716997654,1.653810161168703
1781551790662673152,1.5149202346801758,0.5476642847061157,0.4008914530277252,0.295342355966568,-0.5010303258895874,0.753056526184082,-0.4264674186706543,0.025627553462982178,-0.05493646860122681,0.005202740430831909,0.4293256459928392,0.02879486428362821,-0.5347309134360688,0.7272641744614758,-0.8526952977945362,-0.8656171353846841,1.6613282155684368
1781551790672708352,1.5249552726745605,0.6634982228279114,0.42407798767089844,0.391200453042984,-0.4966224133968353,0.752112090587616,-0.43323612213134766,0.007166266441345215,-0.04798007011413574,0.030510932207107544,0.42909551352294667,0.027677699784591815,-0.531616295462528,0.72972260009953,-0.8512610770862993,-0.8534605517466164,1.6719073810946112
1781551790682743040,1.5349900722503662,0.5689640045166016,0.4119001626968384,0.4871083199977875,-0.491472065448761,0.7515398263931274,-0.4400489330291748,-0.0013105571269989014,-0.05952322483062744,0.046555280685424805,0.428506152689885,0.026328088872618033,-0.5284717320865415,0.7323980621332115,-0.8503931945027234,-0.8405456052860757,1.6835125928521204
1781551790692777984,1.545025110244751,0.4154992997646332,0.4012243449687958,0.5622616410255432,-0.4857078790664673,0.7519165873527527,-0.4457682967185974,-0.010675787925720215,-0.09996956586837769,0.03329271078109741,0.4275870373226816,0.024505205050619993,-0.525847263189504,0.7348833839679157,-0.8509645106939847,-0.8282496421877311,1.6944439573080263
1781551790702813184,1.5550601482391357,0.14925484359264374,0.3849894404411316,0.640791654586792,-0.4794168472290039,0.7534844875335693,-0.4499116539955139,-0.011733025312423706,-0.12160283327102661,0.04790356755256653,0.4263681407403781,0.022116817454566787,-0.5239799859544022,0.7369979041188276,-0.853345986545434,-0.8171364480285968,1.7039878209652006
1781551790712848128,1.5650951862335205,-0.22285905480384827,0.3597578704357147,0.7088358998298645,-0.47260311245918274,0.7568745017051697,-0.45142796635627747,-0.01471683382987976,-0.11254167556762695,0.05448588728904724,0.42485887811950185,0.018875921879826518,-0.5233829602891926,0.7383825580088268,-0.8585175002736511,-0.8083102064603753,1.7106887767803505
1781551790722883328,1.5751302242279053,-0.5897393226623535,0.33030542731285095,0.7580497860908508,-0.4654572308063507,0.762172281742096,-0.4499368369579315,-0.014416426420211792,-0.09438657760620117,0.03514188528060913,0.4230814728523527,0.01480379876379908,-0.5242255468956204,0.7388982510244926,-0.8666620025878431,-0.8023514093430142,1.713983899151073
1781551790732918272,1.58516526222229,-0.7426015734672546,0.28574806451797485,0.8114789724349976,-0.45807740092277527,0.7688677906990051,-0.4461023509502411,-0.012839317321777344,-0.0730060338973999,0.017940789461135864,0.4210304590874069,0.010163948324363925,-0.5261611103627188,0.7387722615170278,-0.8770685655929943,-0.7986414743017756,1.7148258796097293
1781551790742952960,1.5952000617980957,-0.7496397495269775,0.27610182762145996,0.897828996181488,-0.450216680765152,0.776090145111084,-0.4415755569934845,-0.022729456424713135,-0.04252392053604126,0.012422114610671997,0.4186352497717729,0.00529424619603739,-0.5283788357707346,0.7386015539747862,-0.8884419387108268,-0.7950874880449988,1.715797093124026
1781551790752988160,1.6052350997924805,-0.6186785697937012,0.31915411353111267,0.97247314453125,-0.441584050655365,0.7833148241043091,-0.43751731514930725,-0.04303508996963501,-0.007542729377746582,0.0006124377250671387,0.415952194498508,0.0002754583420405819,-0.530321849058305,0.7387438036105914,-0.8999805269203457,-0.7900241486468736,1.7185034646569857
1781551790763023104,1.6152701377868652,-0.44423168897628784,0.3618171513080597,0.9773557782173157,-0.4323823153972626,0.7899501919746399,-0.4347691535949707,-0.06996753811836243,0.031079471111297607,-0.011352062225341797,0.4132161957558223,-0.004696761325444992,-0.5315951075546698,0.7393489854084756,-0.9107277149048036,-0.782645664547708,1.7235791613167455
1781551790773057280,1.6253042221069336,-0.2683543860912323,0.44238176941871643,0.964402973651886,-0.4229181110858917,0.7956475019454956,-0.4336880147457123,-0.09310364723205566,0.0665808916091919,-0.003338932991027832,0.4106708374266153,-0.009500185458579282,-0.5320392243503288,0.740400872409693,-0.9200757522050048,-0.7728260413890139,1.7308947156444952
1781551790783092224,1.6353392601013184,-0.06769530475139618,0.5035400986671448,0.9792831540107727,-0.41308343410491943,0.8004592061042786,-0.4343121349811554,-0.10870605707168579,0.06808620691299438,-0.015806853771209717,0.40833038594087595,-0.014211250227252644,-0.5316408363378848,0.7419044765056233,-0.928060947845441,-0.760351715993536,1.7405300853834489
1781551790793127168,1.645374059677124,0.10772711038589478,0.5494639277458191,1.0436391830444336,-0.4026373624801636,0.8044745326042175,-0.4366966485977173,-0.11886227130889893,0.04095393419265747,-0.046869635581970215,0.4059756951905243,-0.018818141217587375,-0.5303749170863256,0.7439973856141648,-0.9347902707788348,-0.7448414627348672,1.7532458872866636
1781551790803162112,1.6554090976715088,0.20601053535938263,0.5835055112838745,1.111512541770935,-0.39141809940338135,0.8080641031265259,-0.4402547776699066,-0.12147551774978638,0.009455978870391846,-0.10625401139259338,0.40347096695173335,-0.02347972529962467,-0.528508574786824,0.7465511397467729,-0.9408584947692811,-0.7267444996159784,1.7686226967451872
1781551790813197056,1.6654441356658936,0.3187738358974457,0.5844131112098694,1.1791547536849976,-0.37951675057411194,0.8113223910331726,-0.4446604549884796,-0.10659772157669067,-0.04635357856750488,-0.17235919833183289,0.40076227755775606,-0.028177792033778844,-0.5261898779408805,0.7494796617558833,-0.9464106678109985,-0.7065212532852879,1.7863301032363665
1781551790823232256,1.6754791736602783,0.3214212656021118,0.5613285303115845,1.2123267650604248,-0.36718514561653137,0.8143281936645508,-0.4494938254356384,-0.08465811610221863,-0.06451129913330078,-0.16711384057998657,0.39780370518369135,-0.032822966481439564,-0.5236179350169334,0.7526613845502309,-0.9515707768408436,-0.6849527301203634,1.8058137580540259
1781551790833267200,1.685514211654663,0.39231806993484497,0.5738363265991211,1.2488408088684082,-0.354591965675354,0.8172011971473694,-0.454364150762558,-0.06958708167076111,-0.06826931238174438,-0.17016279697418213,0.3947099325272922,-0.037487876232988285,-0.5209727234330078,0.7559009013050995,-0.9565380688827971,-0.6626834024144875,1.8261562700582554
1781551790843302144,1.6955492496490479,0.5190576910972595,0.607162356376648,1.3473783731460571,-0.3412449061870575,0.8195796012878418,-0.4602622389793396,-0.0697658360004425,-0.0904383659362793,-0.1921578049659729,0.3913960266418826,-0.04217200674121442,-0.5177744647052013,0.7595659556753395,-0.9606769483248765,-0.6379834104461533,1.8491542016910614
1781551790853337344,1.7055842876434326,0.551149308681488,0.699430525302887,1.3943495750427246,-0.3268923759460449,0.8216922283172607,-0.4668653607368469,-0.10676240921020508,-0.08075594902038574,-0.17018908262252808,0.3879571495443237,-0.04717627970118377,-0.5141417311127275,0.7634932468957067,-0.9643738752547447,-0.6108504860115317,1.8742304603105269
1781551790863372032,1.7156190872192383,0.6659818887710571,0.7348790168762207,1.4554816484451294,-0.31175512075424194,0.8234022855758667,-0.47414925694465637,-0.10636621713638306,-0.0618056058883667,-0.17556995153427124,0.3845216455081912,-0.05244457554188854,-0.5100734654619361,0.7676052561789908,-0.9673808743064737,-0.5816324871649005,1.900899949157741
1781551790873407232,1.725654125213623,0.8168190717697144,0.7341216206550598,1.5478876829147339,-0.2958050072193146,0.8244153261184692,-0.48253387212753296,-0.07348820567131042,-0.06460380554199219,-0.21229040622711182,0.3807902853329999,-0.05768089036790252,-0.5053770673375512,0.772182502343961,-0.9691683598870984,-0.5499412193474685,1.930425690672142
1781551790883442176,1.7356891632080078,0.8769042491912842,0.735638439655304,1.5604192018508911,-0.27927741408348083,0.8246985077857971,-0.4918094575405121,-0.041477590799331665,-0.07149416208267212,-0.2394985556602478,0.37685320982457676,-0.0628521523283174,-0.5001448587919574,0.777101299505393,-0.9696689223893772,-0.5164495120973918,1.9620381930188997
1781551790893477120,1.7457242012023926,0.7551796436309814,0.6635549068450928,1.5482871532440186,-0.26297199726104736,0.824816107749939,-0.5005239248275757,0.016817212104797363,-0.07741010189056396,-0.3017526865005493,0.3728294033376987,-0.06792023176709337,-0.4951008836238766,0.781831345285531,-0.9698768647040766,-0.4837554130463721,1.993119146423791
1781551790903512320,1.7557592391967773,0.7437251210212708,0.5680726766586304,1.6226024627685547,-0.2467534989118576,0.8251217603683472,-0.5082191824913025,0.1093938946723938,-0.08220183849334717,-0.34697484970092773,0.3683888338761511,-0.07288246332534534,-0.49048806445938486,0.7863836369940386,-0.970417665354542,-0.45200128126336686,2.024113770071125
1781551790913547264,1.765794277191162,0.8947300910949707,0.507939338684082,1.6769440174102783,-0.23034244775772095,0.8249189853668213,-0.5161888599395752,0.17538028955459595,-0.050718605518341064,-0.30709904432296753,0.36345439651764033,-0.07754562664877328,-0.48568738327745875,0.7911986305978266,-0.9700588556267775,-0.41971998945216316,2.05678152831136
1781551790923581952,1.7758290767669678,1.193585753440857,0.5458858013153076,1.7147648334503174,-0.21362175047397614,0.8232445120811462,-0.5259602665901184,0.19061149656772614,0.01513439416885376,-0.18021643161773682,0.35840152828826766,-0.08184143441353706,-0.4799185692643455,0.7965729539335556,-0.9671028479037865,-0.3858016927020589,2.091569101520708
1781551790933617152,1.7858641147613525,1.3578764200210571,0.5973961353302002,1.7846366167068481,-0.19615177810192108,0.8198868632316589,-0.5378755331039429,0.17697149515151978,0.08921653032302856,-0.010708451271057129,0.3533008185291802,-0.08598968011000833,-0.47293551484127516,0.8025686183234405,-0.9612133649326128,-0.3496913253074385,2.1285373200861124
1781551790943652096,1.7958991527557373,1.254335641860962,0.6722366809844971,1.8617721796035767,-0.17773960530757904,0.8161202669143677,-0.5498694181442261,0.14607763290405273,0.11704623699188232,0.10765445232391357,0.34802510012906396,-0.09053173628505584,-0.46569228620961767,0.8085871846887276,-0.9546651154835798,-0.3126389221390681,2.1660271959673056
1781551790953687296,1.805934190750122,1.1450291872024536,0.7417246699333191,1.9656416177749634,-0.15812793374061584,0.8126804232597351,-0.5608441233634949,0.12274280190467834,0.08908349275588989,0.07379889488220215,0.34243775298388757,-0.09579539175888435,-0.45869507413001376,0.8143454430678051,-0.9487373666935129,-0.2748126066224326,2.2037093136035963
1781551790963721216,1.8159682750701904,1.032321572303772,0.7456795573234558,2.0430355072021484,-0.1375361829996109,0.8094483613967896,-0.5708565711975098,0.1111232340335846,0.09631335735321045,0.040567874908447266,0.33647426786502055,-0.10159710977696063,-0.45193996190330765,0.8198862505947537,-0.9432120297256565,-0.23642366272209614,2.241738104181378
1781551790973756160,1.826003074645996,0.9910531640052795,0.6349522471427917,2.1273128986358643,-0.11662715673446655,0.8062448501586914,-0.5799718499183655,0.09248775988817215,0.1073446273803711,0.009079515933990479,0.32994723804155013,-0.10744864329309575,-0.44549845425304835,0.8253003743324259,-0.937776731146859,-0.19844444782427986,2.2801696254239547
1781551790983791104,1.8360381126403809,0.9560392498970032,0.5704628825187683,2.1454389095306396,-0.0958598330616951,0.8028290271759033,-0.5884525775909424,0.019687965512275696,0.09838557243347168,-6.365776062011719e-05,0.32293338258876364,-0.11308904398682391,-0.4393001042347889,0.8306264540237339,-0.9320252019134248,-0.16148309539230596,2.318642595534167
1781551790993826048,1.8460731506347656,1.0406016111373901,0.5284621715545654,2.154773473739624,-0.0753607302904129,0.7987738847732544,-0.5968928337097168,-0.0622430294752121,0.1066673994064331,0.019286632537841797,0.31571686113670966,-0.11847414865222114,-0.43303285716541295,0.8359242220344185,-0.9252544616406887,-0.1255905318077246,2.356648764841728
1781551791003861248,1.8561081886291504,1.210756540298462,0.5892999768257141,2.1463191509246826,-0.05477285385131836,0.7933529615402222,-0.6062927842140198,-0.12727975845336914,0.13094812631607056,0.034729063510894775,0.30857746382480294,-0.1237171058272475,-0.42608413924279404,0.8413835447385383,-0.9162972791898856,-0.09009602655122748,2.394102804089585
1781551791013896192,1.8661432266235352,1.403072714805603,0.7352311015129089,2.1766765117645264,-0.03362302482128143,0.7863979339599609,-0.6168044805526733,-0.16860170662403107,0.12790870666503906,0.03066861629486084,0.3016275294473598,-0.1290943353299266,-0.4182492301067086,0.8470082643602257,-0.9049559089586076,-0.05445774680017315,2.430900834094884
1781551791023931392,1.87617826461792,1.6345850229263306,0.8291599750518799,2.168562889099121,-0.011653432622551918,0.7773212194442749,-0.6289960145950317,-0.13679932057857513,0.0887829065322876,-0.04129207134246826,0.2950073762758054,-0.13466948009734825,-0.4091040443005409,0.8529177834235138,-0.8903964379728723,-0.01852491752455443,2.466753610767777
1781551791033966080,1.8862130641937256,1.695473074913025,0.8445959687232971,2.206392288208008,0.010719731450080872,0.7666045427322388,-0.6420300602912903,-0.05027051270008087,0.06927192211151123,-0.07813894748687744,0.2885009354021195,-0.14029812523627827,-0.39912580014722926,0.858942572172645,-0.8735364717110261,0.016695068331425894,2.5013066408121314
1781551791044001024,1.8962481021881104,1.4996061325073242,0.743113100528717,2.211407423019409,0.03279132395982742,0.7556443214416504,-0.6541607975959778,0.029540829360485077,0.059937894344329834,-0.09542715549468994,0.2816837443190714,-0.14581891464894453,-0.3894309237036142,0.8647165029814629,-0.8566372968321149,0.05008538928149213,2.534639677692498
1781551791054036224,1.9062831401824951,1.2593432664871216,0.5953372120857239,2.2566819190979004,0.05398421734571457,0.7455273866653442,-0.6642850041389465,0.05862564221024513,0.04268062114715576,-0.1347109079360962,0.27428489741298806,-0.1510880040363663,-0.3808279141138422,0.8700058944085405,-0.8413257819407896,0.0810884510110782,2.567075914712728
1781551791064071168,1.9163181781768799,0.9256752133369446,0.5250563025474548,2.2864456176757812,0.07460992783308029,0.7367075085639954,-0.6720829010009766,0.013189136981964111,0.013033092021942139,-0.06548118591308594,0.26622366405955944,-0.1563278378692828,-0.3735239680670462,0.8747379012385722,-0.8281882926623823,0.11056029272764147,2.5993449264125195
1781551791074106112,1.9263532161712646,0.682134747505188,0.4832494258880615,2.2909092903137207,0.09487701207399368,0.7294079661369324,-0.6774676442146301,-0.03465057909488678,-0.000892341136932373,0.02507805824279785,0.2577273573925748,-0.16177209125734132,-0.3675540496395905,0.878811910365567,-0.8174560662607393,0.1391416109375393,2.6313983032480737
1781551791084141312,1.9363882541656494,0.6295591592788696,0.49849286675453186,2.32782244682312,0.11499879509210587,0.7224966287612915,-0.6817432045936584,-0.05962465703487396,-0.034294724464416504,0.04539072513580322,0.2489569739640071,-0.16730415113373953,-0.36212940871292143,0.8825485725659559,-0.8074066873925391,0.16711030449758765,2.663223464272962
1781551791094176256,1.9464232921600342,0.7093333601951599,0.6107269525527954,2.3794984817504883,0.13577450811862946,0.7150086760520935,-0.685804545879364,-0.08903686702251434,-0.04604816436767578,0.023527324199676514,0.24007839607144857,-0.17319620273617078,-0.35651200841392683,0.8861515648206417,-0.7966365241033936,0.19545099799651058,2.6949139856894457
1781551791104212224,1.9564592838287354,0.8068189024925232,0.7138240933418274,2.399268388748169,0.1573859304189682,0.7062016725540161,-0.6902962327003479,-0.0960913747549057,-0.03960621356964111,0.019275784492492676,0.23128701507306262,-0.1794770262562182,-0.35019976800668223,0.889749679305593,-0.7841189662319547,0.22416583086012873,2.725964982806123
1781551791114247168,1.966494083404541,0.8984931707382202,0.7735172510147095,2.414249897003174,0.17950654029846191,0.6962136626243591,-0.6950280070304871,-0.06375336647033691,-0.02970975637435913,-0.0045874714851379395,0.22260110092453111,-0.18603167714765428,-0.34333397715184283,0.8932875942057216,-0.7701092653021884,0.252749154791439,2.756048038435893
1781551791124282112,1.9765291213989258,0.9235185980796814,0.789208710193634,2.4045498371124268,0.20168833434581757,0.6851338744163513,-0.699938178062439,-0.03883126378059387,-0.04894918203353882,-0.027936577796936035,0.21397969494351018,-0.1926370647208139,-0.3360384974828103,0.8967618941735511,-0.7547874783643534,0.2805515998379961,2.784952541259057
1781551791134317056,1.9865641593933105,0.8347094058990479,0.7990877032279968,2.357759475708008,0.22352762520313263,0.6738507151603699,-0.7042447328567505,-0.035859763622283936,-0.06471985578536987,-0.01926600933074951,0.2054334141360813,-0.19926497663470505,-0.32889373743908734,0.899955306581397,-0.7394081048156997,0.3073431074007456,2.8126470334852063
1781551791144352256,1.9965991973876953,0.7843055725097656,0.7680431008338928,2.294538736343384,0.24466364085674286,0.6626163721084595,-0.7078694105148315,-0.05109067261219025,-0.08465927839279175,-0.02087503671646118,0.19700703610566955,-0.2057725439831394,-0.3220604608307855,0.9028415195485352,-0.7243067547524014,0.3327798696889865,2.8389956173535946
1781551791154387200,2.00663423538208,0.7199867963790894,0.7812654376029968,2.218660593032837,0.26505225896835327,0.6514739990234375,-0.7108649015426636,-0.09230753779411316,-0.09970098733901978,0.00607675313949585,0.18878259237486003,-0.21215688313941122,-0.3155265406506832,0.9054245560066262,-0.7095257027067599,0.3568921663341043,2.863907661651018
1781551791164421120,2.0166680812835693,0.7346965074539185,0.8152740001678467,2.1082992553710938,0.2847898304462433,0.640332043170929,-0.7133510112762451,-0.1324613392353058,-0.11510926485061646,0.03923296928405762,0.18096381159305402,-0.21850860523399532,-0.3091576935136076,0.9077045946124799,-0.6949304474155066,0.3798408274485316,2.8870408330730446
1781551791174456064,2.026703119277954,0.7393460869789124,0.8828405141830444,1.9892324209213257,0.30391010642051697,0.6289539933204651,-0.7155805826187134,-0.15408405661582947,-0.12462049722671509,0.04698622226715088,0.17375178307539885,-0.22485488248793511,-0.3027375172510585,0.9097255736887727,-0.680207036721839,0.4016201228145442,2.907958945461419
1781551791184491264,2.036738157272339,0.7508400678634644,0.9278885126113892,1.8813610076904297,0.3225288689136505,0.6174920201301575,-0.7174111604690552,-0.1415291130542755,-0.13291865587234497,0.052616238594055176,0.16713251618939798,-0.2312652088190815,-0.29632892654778814,0.9114671414804725,-0.6655502391921359,0.42249900834126686,2.9268578299287507
1781551791194526208,2.0467731952667236,0.7443352937698364,0.9734389781951904,1.7860422134399414,0.340630441904068,0.6060369610786438,-0.718811571598053,-0.1060265600681305,-0.1297338604927063,0.024674057960510254,0.1610290813484009,-0.23770359898390947,-0.28998483547321613,0.9129487632084929,-0.6510688802936795,0.4425341141714138,2.9439870994076816
1781551791204561152,2.0568082332611084,0.7214166522026062,0.9390420913696289,1.6830670833587646,0.35801276564598083,0.5945862531661987,-0.7199264168739319,-0.04307138919830322,-0.127713143825531,-0.08235019445419312,0.15535917208349106,-0.2440118727769401,-0.28371642386360446,0.914235554597685,-0.6367509558106624,0.4614778900509414,2.9594887448025644
1781551791214596352,2.066843271255493,0.6293551325798035,0.8491055369377136,1.6050844192504883,0.37420809268951416,0.5836798548698425,-0.7206150889396667,0.028669685125350952,-0.1502234935760498,-0.21375685930252075,0.1499291609745851,-0.2499306885346108,-0.27789766846082203,0.915329823097847,-0.6232532660892274,0.478960136543853,2.973859364151433
1781551791224631040,2.076878070831299,0.4884142577648163,0.6476975083351135,1.5750389099121094,0.3888612985610962,0.573434054851532,-0.7210827469825745,0.09084448218345642,-0.17040371894836426,-0.29030030965805054,0.14440077030179643,-0.2551508711723365,-0.2726842014975339,0.9163458845392138,-0.6106914348529618,0.49457113052015594,2.9878097935227883
1781551791234665984,2.0869131088256836,0.21913859248161316,0.41283756494522095,1.5213717222213745,0.40150824189186096,0.564791202545166,-0.720973014831543,0.10241329669952393,-0.11897516250610352,-0.19574451446533203,0.13843475359055418,-0.25942569098826507,-0.26872253825784254,0.9172362687926855,-0.6001801880928238,0.5081235360130544,3.0023611565289894
1781551791244701184,2.0969481468200684,0.1678258776664734,0.27894410490989685,1.4473999738693237,0.4123152792453766,0.5573509931564331,-0.7206636071205139,0.05782327055931091,-0.059624552726745605,-0.07436507940292358,0.13228092307973846,-0.26283865396527356,-0.2656765690286098,0.918059731161465,-0.591191867394426,0.519676831162838,3.016946078409214
1781551791254736128,2.106983184814453,0.3080548644065857,0.2617645859718323,1.3442089557647705,0.42200082540512085,0.5498965978622437,-0.7207836508750916,-0.01782602071762085,0.015349984169006348,0.06958431005477905,0.12650019900171924,-0.2657750762585961,-0.26262481259575576,0.9189067273851645,-0.5822404520163689,0.5296709187633898,3.030153021969085
1781551791264771328,2.117018222808838,0.44445905089378357,0.3136698603630066,1.2483198642730713,0.43115437030792236,0.5415698289871216,-0.7216702699661255,-0.08632102608680725,0.09263116121292114,0.16194742918014526,0.1214088355528886,-0.268542666528107,-0.25893955579617556,0.919834237142389,-0.5723033907765518,0.5385346968876997,3.041169626547648
1781551791274806272,2.1270532608032227,0.5616791844367981,0.4169831871986389,1.1532621383666992,0.44025591015815735,0.5326888561248779,-0.7227843999862671,-0.12973955273628235,0.08013463020324707,0.11919248104095459,0.11703433366096562,-0.2714722127916189,-0.25477564823271076,0.9207036254645147,-0.5617745591570266,0.5470918131003779,3.050271357840805
1781551791284840960,2.1370880603790283,0.5995445251464844,0.4392870366573334,1.1203949451446533,0.449440598487854,0.5232935547828674,-0.7239937782287598,-0.100502610206604,-0.03847604990005493,-0.005239009857177734,0.11314507415340613,-0.2745808108570428,-0.2502168819336428,0.9215177869780623,-0.5507113582915086,0.5555586802099635,3.0580351624951914
1781551791294876160,2.147123098373413,0.5464786291122437,0.36518189311027527,1.0847797393798828,0.4581114649772644,0.5140919089317322,-0.7251506447792053,-0.040722548961639404,-0.12859386205673218,-0.05846446752548218,0.10935210963808692,-0.277499412733153,-0.24580227161784224,0.9222892709973376,-0.5399485807207058,0.5634361168316642,3.0654015527429945
1781551791304911104,2.157158136367798,0.4771338999271393,0.230289489030838,1.0368283987045288,0.46570730209350586,0.5054351091384888,-0.7263965606689453,0.010870426893234253,-0.08726805448532104,-0.06587022542953491,0.10550073825742742,-0.2798932163395318,-0.24178811835438516,0.9230751717711438,-0.5298861411165208,0.570107268461721,3.072673849095746
1781551791314946048,2.1671931743621826,0.5264729857444763,0.13304975628852844,0.979041576385498,0.4720534086227417,0.4970630705356598,-0.7280754446983337,0.023658841848373413,-0.0037159323692321777,0.00673145055770874,0.10174175614825133,-0.2816581595365786,-0.23797262238254346,0.9239514339792941,-0.5202108229109758,0.575219942012378,3.079371880915393
1781551791324981248,2.1772282123565674,0.5392220616340637,0.13065104186534882,0.9178400039672852,0.47768330574035645,0.48857635259628296,-0.7301450371742249,-0.009299546480178833,0.03345730900764465,0.09818702936172485,0.09824014391185822,-0.28309899997506827,-0.23405651228897004,0.9248898647255155,-0.5104573723055502,0.5793436220209999,3.0851740515355446
1781551791335016192,2.187263250350952,0.494076132774353,0.17241500318050385,0.8462153673171997,0.4830782413482666,0.4804898798465729,-0.7319595813751221,-0.05950954556465149,0.0036409497261047363,0.20142680406570435,0.09507511689849552,-0.28457558339092676,-0.23029751215861663,0.9257107625595883,-0.5012132184967543,0.5833586442627265,3.0903158904528802
1781551791345051392,2.197298288345337,0.365788996219635,0.20127487182617188,0.7881744503974915,0.4883529245853424,0.47329819202423096,-0.7331441044807434,-0.08994594216346741,-0.048218876123428345,0.2024586796760559,0.09210301821051729,-0.28616697373017425,-0.22701631322953086,0.9263310556269082,-0.49303115095970884,0.5876155223894258,3.0953660527936
1781551791355086080,2.2073330879211426,0.2277885377407074,0.2096467912197113,0.7413022518157959,0.49348458647727966,0.46734610199928284,-0.7335261106491089,-0.09953317046165466,-0.09042349457740784,0.12074840068817139,0.08922194969902253,-0.28786273996733797,-0.2244370213492182,0.9267159721627724,-0.4862864853167113,0.5922069007307207,3.1006879705148127
1781551791365121024,2.2173681259155273,0.09929127991199493,0.19787055253982544,0.7013548612594604,0.4983474016189575,0.4625858664512634,-0.733255922794342,-0.08161458373069763,-0.09411662817001343,0.03029876947402954,0.08631472677845704,-0.2895448406225402,-0.2225664503575736,0.9269184557344866,-0.4809096829755489,0.5969279594284425,3.1064756003842398
1781551791375155200,2.2274022102355957,0.05088619887828827,0.16645723581314087,0.6635278463363647,0.5028774738311768,0.4586676061153412,-0.7326242327690125,-0.05046963691711426,-0.07242187857627869,-0.05027371644973755,0.08344932974539197,-0.2911469097879588,-0.22118175127546824,0.9270103974787648,-0.47649518800994267,0.6015439310431258,3.1124147600851426
1781551791385190144,2.2374372482299805,0.07397952675819397,0.10153497010469437,0.6285264492034912,0.506814181804657,0.45488500595092773,-0.732269823551178,-0.022927403450012207,-0.054357051849365234,-0.09077399969100952,0.08067843173541511,-0.2924470831335279,-0.21986311698848904,0.9271601739364296,-0.4722430713239313,0.605413674312546,3.1180016782930946
1781551791395225344,2.2474722862243652,0.1558179408311844,0.08168216794729233,0.5998393893241882,0.5102532505989075,0.4509071707725525,-0.7323417067527771,-0.012282729148864746,-0.04136130213737488,-0.1145058274269104,0.07809702984085774,-0.29348922355504087,-0.21838780227612645,0.9274004904520715,-0.4677814494934046,0.6085360485978245,3.122920204021116
1781551791405260032,2.257507085800171,0.3058827817440033,0.04930957779288292,0.5627029538154602,0.5133013725280762,0.4460601210594177,-0.7331794500350952,-0.015437602996826172,-0.021514832973480225,-0.056127190589904785,0.07581139290325023,-0.2942947340747304,-0.2163351181551709,0.927815937750908,-0.46235840880604095,0.6107952917266075,3.1266810186949154
1781551791415295232,2.2675421237945557,0.3073512613773346,0.07235445082187653,0.5110387206077576,0.5161283612251282,0.4410390555858612,-0.7342315912246704,-0.034225285053253174,0.024918586015701294,0.04081118106842041,0.07382340960293136,-0.2950356403537171,-0.21409850884337642,0.92825959601865,-0.45675609213822527,0.6127033266650338,3.1296465861105713
1781551791425330176,2.2775771617889404,0.30874010920524597,0.1089785024523735,0.4997205138206482,0.5190009474754333,0.4360229969024658,-0.7352020144462585,-0.05998605489730835,-0.01234745979309082,0.07690739631652832,0.07204804255901517,-0.2958676712830837,-0.21180487105375867,0.9286604523324897,-0.4511746987694759,0.6146945577182017,3.1321652776197495
1781551791435365120,2.287612199783325,0.13255256414413452,0.12730024755001068,0.4798014163970947,0.5220208764076233,0.43184566497802734,-0.7355294227600098,-0.08218628168106079,-0.06888484954833984,0.10505151748657227,0.07022085897416051,-0.2968683350169019,-0.2100106774258074,0.9288884271881999,-0.4465380984788016,0.6172205461120378,3.1352023861521072
1781551791445400320,2.29764723777771,-0.08754144608974457,0.12857656180858612,0.46989578008651733,0.5249985456466675,0.4291553199291229,-0.7349845170974731,-0.08493506908416748,-0.08514592051506042,0.09823524951934814,0.06817827038885141,-0.29794333752736185,-0.20913517455530878,0.9288939405624325,-0.44355738778150444,0.6202581792232843,3.139334202371517
1781551791455435264,2.3076822757720947,-0.32848191261291504,0.12755577266216278,0.4665023982524872,0.5279582738876343,0.42819181084632874,-0.733424723148346,-0.06419789791107178,-0.08949247002601624,0.012935221195220947,0.06581806355559883,-0.29910051740576665,-0.20934783600062146,0.9286443808352015,-0.4424909326954209,0.6239265036165863,-3.138285153682942
1781551791465469952,2.3177170753479004,-0.5327317118644714,0.07170689851045609,0.4341135621070862,0.5306234955787659,0.4290256202220917,-0.7310100793838501,-0.03543001413345337,-0.11936375498771667,-0.015770316123962402,0.0631659393768177,-0.30017911370184946,-0.2106833228027405,0.928178388796268,-0.4434137859024127,0.6278828998660557,-3.1313776807680394
1781551791475505152,2.327752113342285,-0.5891515612602234,0.027555415406823158,0.40276655554771423,0.5328107476234436,0.43092265725135803,-0.7282983064651489,-0.012608110904693604,-0.10768049955368042,-0.016422152519226074,0.06038920216608404,-0.3010334921466431,-0.21267271939073315,0.9276326677954866,-0.44551500139026523,0.6316097286457119,-3.123855216072761
1781551791485540096,2.33778715133667,-0.5605776906013489,-4.518777132034302e-05,0.3215284049510956,0.5344038009643555,0.43314841389656067,-0.725806474685669,-0.03406810760498047,-0.07034018635749817,0.014167070388793945,0.05785013794071319,-0.30160718469815473,-0.21477867790213317,0.9271227141593906,-0.4479829637454686,0.6346685981149253,-3.116860658358742
1781551791495575296,2.3478221893310547,-0.44696328043937683,0.03174150362610817,0.2561693787574768,0.5357590913772583,0.43524858355522156,-0.7235473394393921,-0.07178515195846558,-0.006903886795043945,0.011206090450286865,0.055760633027892796,-0.3021247910741817,-0.21667239690540588,0.9266414215803314,-0.4503143575710402,0.6373685954779871,-3.110949546884725
1781551791505610240,2.3578572273254395,-0.37639617919921875,0.11094497889280319,0.2211456447839737,0.5372793674468994,0.4369950294494629,-0.7213640809059143,-0.10569977760314941,-0.01612710952758789,-0.012766718864440918,0.05411676843006381,-0.30281215323109634,-0.21822637212024482,0.926149750204754,-0.4522551063984935,0.6401713970283565,-3.106094350856472
1781551791515645184,2.367892265319824,-0.3155122995376587,0.17934347689151764,0.19595825672149658,0.539247453212738,0.43838170170783997,-0.7190505266189575,-0.08235353231430054,-0.06773045659065247,-0.06418311595916748,0.052794733738327625,-0.30381449775163644,-0.21948004715651678,0.9256014014163222,-0.4537973353829941,0.6434651303282621,-3.1019414953910514
1781551791525680128,2.37792706489563,-0.24076855182647705,0.16296637058258057,0.17333337664604187,0.5413148403167725,0.439358651638031,-0.7168976664543152,-0.02179884910583496,-0.068905770778656,-0.09107053279876709,0.05170308333546705,-0.30489672762633746,-0.220429498093737,0.9250813996913544,-0.4548846083899036,0.6467441587793992,-3.0984346068628197
1781551791535715072,2.3879621028900146,-0.14608171582221985,0.11886867880821228,0.1550888568162918,0.5430461764335632,0.4398558437824249,-0.7152815461158752,0.03150820732116699,-0.012975990772247314,-0.10657209157943726,0.05080481618414365,-0.30577985426088117,-0.22103827219536562,0.9246943186636781,-0.45543815324015535,0.6493670886603541,-3.0956777280017125
1781551791545750016,2.3979971408843994,-0.033806584775447845,0.10879460722208023,0.14200714230537415,0.5445007085800171,0.4396853446960449,-0.7142798900604248,0.04609072208404541,0.02819487452507019,-0.0870048999786377,0.05009949853040335,-0.30648333406713385,-0.22119676323925486,0.9244620655268112,-0.4552483194661896,0.6513313132175337,-3.093747233990219
1781551791555785216,2.408032178878784,0.02988717332482338,0.10103388875722885,0.11411292850971222,0.5458085536956787,0.43893668055534363,-0.7137419581413269,0.04092240333557129,0.027799159288406372,-0.040530502796173096,0.049623095000221135,-0.3071029926746103,-0.22094517017844112,0.9243421971692676,-0.45441492669840233,0.6528518142357597,-3.092638737116117
1781551791565820160,2.418067216873169,0.06071166321635246,0.1048416793346405,0.09056632220745087,0.5470108389854431,0.43802985548973083,-0.7133786082267761,0.02029573917388916,0.001942068338394165,0.014922857284545898,0.049342155732921444,-0.30769204240926057,-0.2205363743715411,0.9242590211307384,-0.45340590691118543,0.6541597013055327,-3.092065554843999
1781551791575855360,2.4281022548675537,0.024674035608768463,0.09852146357297897,0.055950552225112915,0.5480610132217407,0.437333881855011,-0.7129994630813599,-0.005443215370178223,-0.016023457050323486,0.07225239276885986,0.049179168891384475,-0.3082350890587508,-0.22020760296732161,0.9241651625779905,-0.45263186639229946,0.6553429579453314,-3.0916974957003984
1781551791585889024,2.438136100769043,0.008017826825380325,0.11844124644994736,0.036269791424274445,0.5490260124206543,0.43698805570602417,-0.7124688625335693,-0.017486095428466797,-0.00638502836227417,0.054830312728881836,0.04910081964785306,-0.3087767747665193,-0.22005105594110097,0.9240257229157997,-0.45224735417806505,0.6565530589650235,-3.091372422437475
1781551791595924224,2.4481711387634277,-0.009298312477767467,0.11153646558523178,0.02331351488828659,0.5499868988990784,0.436818391084671,-0.7118315100669861,-0.002532064914703369,-0.01868179440498352,-0.0032715797424316406,0.04909786239472521,-0.3093494468226542,-0.21997081159244877,0.9238534549239904,-0.4520587224355293,0.6578316791835023,-3.0911268492314847
1781551791605959168,2.4582061767578125,-0.013083996251225471,0.03990675508975983,-0.010403968393802643,0.5505886673927307,0.4368717074394226,-0.7113334536552429,0.022882401943206787,-0.025021731853485107,-0.02038651704788208,0.04913509990933374,-0.3097313626232946,-0.21999945829651063,0.9237166620566398,-0.4521179882177829,0.6586995729847576,-3.0909802348839013
1781551791615994112,2.4682412147521973,-0.0009445087052881718,-0.034238576889038086,-0.02326570451259613,0.5504886507987976,0.43702027201652527,-0.711319625377655,0.022982418537139893,-0.009148597717285156,-0.02104121446609497,0.049208561665978034,-0.3097004221787483,-0.220058710772817,0.9237090774593587,-0.4522831807258198,0.6586210460712149,-3.091100732432181
1781551791626029312,2.478276252746582,0.01778843253850937,-0.04468642920255661,-0.03277692198753357,0.550061821937561,0.43710508942604065,-0.7115976214408875,-0.008298516273498535,-0.01617613434791565,-0.02288419008255005,0.04930611260463985,-0.30946965143932154,-0.2200675555295936,0.9237790848977928,-0.4523774836900815,0.6580565992800148,-3.0914136977119004
1781551791636064256,2.488311290740967,0.007727809250354767,-0.0826130360364914,-0.042917970567941666,0.5494690537452698,0.43717238306999207,-0.7120140790939331,-0.01654064655303955,-0.028709888458251953,-0.01303774118423462,0.04943861683438407,-0.3091441969785712,-0.220051854814017,0.9238846438657894,-0.45245229066070236,0.6572519062748924,-3.0918662918619875
1781551791646099200,2.4983460903167725,-0.014203055761754513,-0.10290325433015823,-0.03813520073890686,0.5486364364624023,0.437802791595459,-0.7122687697410583,0.0022668838500976562,0.0016350746154785156,0.00743478536605835,0.04947794361488629,-0.30869861438810714,-0.22038778046022955,0.9239515247541523,-0.4531533557257274,0.6563457015045184,-3.091925043339164
1781551791656134144,2.5083811283111572,0.04156486690044403,-0.09543096274137497,-0.06339234858751297,0.5477034449577332,0.43774598836898804,-0.7130213379859924,-0.011707961559295654,-0.016801774501800537,0.05123245716094971,0.04964763838301782,-0.3081636746103746,-0.22028270478217366,0.9241460541220281,-0.45309016406098107,0.6550128340439094,-3.092631968060032
1781551791666169088,2.518416166305542,-0.02379016950726509,-0.06049521267414093,-0.06868138909339905,0.5468260645866394,0.43817755579948425,-0.7134295701980591,-0.038876235485076904,0.001504451036453247,0.04521667957305908,0.04988291358932788,-0.3077209047308452,-0.2204383360010187,0.9242437652472314,-0.45357021615171966,0.6539620991913725,-3.0932262878511603
1781551791676204288,2.5284512042999268,-0.07758548855781555,-0.02609117142856121,-0.06029509752988815,0.5462709665298462,0.4388120770454407,-0.7134647369384766,-0.04059475660324097,-0.03039535880088806,0.018228590488433838,0.05006077432181133,-0.30747919902120746,-0.22073552096967805,0.9242436004583975,-0.45427624614575157,0.6534480228215025,-3.0934909944975644
1781551791686239232,2.5384862422943115,-0.12158596515655518,-0.017485029995441437,-0.06806886196136475,0.5458136200904846,0.4399460256099701,-0.7131163477897644,-0.029212117195129395,-0.04059302806854248,-0.02667546272277832,0.050178511957465935,-0.307326306070605,-0.221342206060553,0.9241429184477191,-0.45553856056508213,0.6532794955162751,-3.0933521415874656
1781551791696274176,2.5485212802886963,-0.0961325466632843,-0.041130974888801575,-0.07041377574205399,0.5453231930732727,0.4410880506038666,-0.712786078453064,-0.008396923542022705,-0.04730448126792908,-0.10142290592193604,0.0503016271713054,-0.3071555016321444,-0.22195149478772616,0.9240469858548983,-0.4568106875646857,0.6530692307298644,-3.0932319057541955
1781551791706309120,2.558556079864502,-0.04501716047525406,-0.06841719150543213,-0.08001819998025894,0.5445817112922668,0.4420440196990967,-0.7127607464790344,-0.010524153709411621,-0.04168394207954407,-0.09430712461471558,0.05046509892425276,-0.3068252743772256,-0.22243625770142017,0.9240311962168446,-0.4578761412894963,0.652429874740118,-3.093373525724625
1781551791716344064,2.5685911178588867,0.045322321355342865,-0.06290551275014877,-0.0894700214266777,0.5437133312225342,0.44246965646743774,-0.713159441947937,-0.036648571491241455,-0.021449178457260132,-0.06581693887710571,0.050790874746285256,-0.3064107563395246,-0.22255951709416436,0.9241211610137573,-0.45835071663273624,0.6513905227159693,-3.0941660819787744
1781551791726379264,2.5786261558532715,-0.060828082263469696,0.01886538602411747,-0.09361176937818527,0.5429744720458984,0.4432803988456726,-0.7132188677787781,-0.06201750040054321,0.017412930727005005,-0.07903271913528442,0.05119571703817507,-0.3061283929072409,-0.2228810975219188,0.9241148754245246,-0.4592549729888757,0.6506948399153979,-3.094900296308738
1781551791736414208,2.5886611938476562,0.2161358743906021,0.037128545343875885,-0.07412941753864288,0.5428317189216614,0.442704439163208,-0.7136852145195007,-0.06236296892166138,-0.0685437023639679,-0.03854262828826904,0.051765802940912695,-0.30612802506326725,-0.2223579014448355,0.9242094027347525,-0.4586125506610805,0.6502531236010829,-3.096460195459525
1781551791746449152,2.598696231842041,0.011594719253480434,0.07128425687551498,-0.11050526797771454,0.5428628921508789,0.44274190068244934,-0.713638186454773,-0.0729379653930664,-0.07503560185432434,0.02445971965789795,0.052410373506724596,-0.30630539105336985,-0.2221664132519992,0.9241602535423904,-0.4586543111467274,0.6503125200106016,-3.0978264740926775
1781551791756484352,2.608731269836426,-0.07191269099712372,0.10050924867391586,-0.11349040269851685,0.5429711937904358,0.44342732429504395,-0.7131300568580627,-0.06881958246231079,-0.07735371589660645,0.013239920139312744,0.05298840446788076,-0.3065712251469029,-0.22237143010730473,0.9239898316777571,-0.45941888300727113,0.6507519007962885,-3.0987105718412082
1781551791766519040,2.6187660694122314,-0.10682407021522522,0.11239373683929443,-0.12541283667087555,0.5431599020957947,0.44473493099212646,-0.7121714949607849,-0.07946056127548218,-0.056368231773376465,-0.023225784301757812,0.05352318801546161,-0.30693196862647604,-0.22295068731886608,0.92369970972263,-0.4608782851591093,0.6515678448384595,-3.099172574964561
1781551791776553984,2.628801107406616,-0.08987544476985931,0.17076915502548218,-0.13179165124893188,0.5436071753501892,0.4461659789085388,-0.7109339833259583,-0.07694762945175171,-0.04670614004135132,-0.06106913089752197,0.054122761400685,-0.307479054401054,-0.22358359946677034,0.9233296785232095,-0.4624766784478542,0.6528037863318487,-3.099624653375062
1781551791786589184,2.638836145401001,-0.11579546332359314,0.17583543062210083,-0.1327913999557495,0.5442716479301453,0.44758614897727966,-0.7095314860343933,-0.055593669414520264,-0.05953988432884216,-0.052599191665649414,0.05476992297464409,-0.30817153561327804,-0.22419756587862869,0.9229116377331921,-0.4640641786845507,0.6543467157158807,-3.10010755521555
1781551791796624128,2.6488711833953857,-0.11449185013771057,0.1764543503522873,-0.15490256249904633,0.5448727011680603,0.44921302795410156,-0.7080405354499817,-0.04356050491333008,-0.06321147084236145,-0.03083580732345581,0.05544188475559801,-0.3088525276650659,-0.224921888716093,0.9224675563227496,-0.4658842889891287,0.6558962448951545,-3.1005606560865764
1781551791806658304,2.658905267715454,-0.07625257968902588,0.2248862087726593,-0.16118815541267395,0.5455619692802429,0.45076701045036316,-0.7065204977989197,-0.04025191068649292,-0.03241679072380066,-0.03401905298233032,0.0562480627773895,-0.3096163139170193,-0.2255603780817543,0.9220067538951982,-0.46762442230367496,0.6575467278684177,-3.101305622468982
1781551791816692992,2.6689400672912598,-0.04465044289827347,0.29317283630371094,-0.15138186514377594,0.5466459393501282,0.45204398036003113,-0.7048648595809937,-0.026199162006378174,0.03281930088996887,-0.029342293739318848,0.05717535452310959,-0.3106289289936089,-0.2260027454779569,0.9215006145217359,-0.46905547613568116,0.6596429490824052,-3.102309113866023
1781551791826728192,2.6789751052856445,0.002514404710382223,0.32695797085762024,-0.1447812169790268,0.5481889843940735,0.45296335220336914,-0.703074038028717,0.005781352519989014,0.04993581771850586,-0.015645503997802734,0.05818376948110174,-0.3119127983217769,-0.22621538726880594,0.9209515306162048,-0.4700864267306173,0.6622416962928878,-3.1035027141422926
1781551791836763136,2.6890101432800293,-0.03833156079053879,0.30973929166793823,-0.14607471227645874,0.5497599840164185,0.4538421332836151,-0.7012783288955688,0.027022242546081543,0.0028381645679473877,-0.006637930870056152,0.05919796857343925,-0.3132145929518016,-0.22640109835316913,0.9203992484676516,-0.47107239349622343,0.6648711271409399,-3.104715950429144
1781551791846798080,2.699045181274414,-0.07070495188236237,0.28089606761932373,-0.128851518034935,0.5512009859085083,0.45501479506492615,-0.6993847489356995,0.0163496732711792,-0.03500136733055115,-0.024492204189300537,0.06008031973745366,-0.31443573813229764,-0.22679902748759515,0.9198275713411745,-0.47238883046321206,0.6674566283001966,-3.105536612248184
1781551791856833280,2.709080219268799,-0.07963372766971588,0.2548932135105133,-0.1277705430984497,0.5524799823760986,0.4562382102012634,-0.6975761651992798,-0.006169617176055908,-0.03218120336532593,-0.04375678300857544,0.06085131103788817,-0.31553774394837236,-0.22726160606417625,0.919285119943243,-0.47376317297197895,0.6698434961755723,-3.106141554791058
1781551791866868224,2.7191152572631836,-0.07050201296806335,0.26118162274360657,-0.12382879853248596,0.5536802411079407,0.45749348402023315,-0.695800244808197,-0.020065128803253174,0.006419479846954346,-0.028214097023010254,0.061601911964039885,-0.3165923083468025,-0.22774810263130466,0.9187520807107268,-0.4751743285678912,0.6721416533729918,-3.106708872416941
1781551791876903168,2.7291502952575684,-0.04965905100107193,0.2564915418624878,-0.10870470106601715,0.5549545288085938,0.45851999521255493,-0.6941072940826416,-0.01891326904296875,0.008307397365570068,-0.015487432479858398,0.062341155086243785,-0.31766986274233466,-0.2281056926330555,0.9182414179794177,-0.47632909980016036,0.6744498036383375,-3.107337404293704
1781551791886938112,2.739185094833374,-0.0702090710401535,0.22990106046199799,-0.11713626980781555,0.5561403036117554,0.4595414400100708,-0.6924808025360107,-0.01575028896331787,-0.0333329439163208,0.009878873825073242,0.06304899585022002,-0.31868686771880905,-0.22846941591465744,0.9177501236721451,-0.47747882786502854,0.6766361861801046,-3.107927858619444
1781551791896973056,2.749220132827759,-0.0918499082326889,0.1929646134376526,-0.12065430730581284,0.557059109210968,0.4607933461666107,-0.6909085512161255,-0.010901272296905518,-0.04140552878379822,0.02350437641143799,0.06370448854110511,-0.3195511509821142,-0.22898204520515597,0.9172764186548686,-0.47888889476484203,0.6785526561436306,-3.108377020755398
1781551791907008256,2.7592551708221436,-0.11534617841243744,0.17917729914188385,-0.12228016555309296,0.5577479600906372,0.4621962904930115,-0.6894141435623169,-0.011559605598449707,-0.008811891078948975,0.015128254890441895,0.06432061863607506,-0.32028058976333784,-0.22959371283858432,0.916826079245808,-0.4804703228854851,0.6802151685818324,-3.1087406647615605
1781551791917043200,2.7692902088165283,-0.11222442984580994,0.15580831468105316,-0.11357269436120987,0.5583300590515137,0.4636048972606659,-0.6879957318305969,-0.008143901824951172,0.007479667663574219,0.014198124408721924,0.06488114900419993,-0.32093246372266904,-0.2302270322741173,0.9163997139062152,-0.48205943911200444,0.6817327562272077,-3.1090144913492925
1781551791927078144,2.779325246810913,-0.1186615526676178,0.11021008342504501,-0.11357589066028595,0.5587301254272461,0.4650537967681885,-0.6866918206214905,-0.004866600036621094,-0.010219812393188477,0.01676994562149048,0.06537284729734337,-0.3214598113159779,-0.2309062231133829,0.9160089130469224,-0.48369538544635654,0.6830117778567318,-3.109179333546161
1781551791937113344,2.789360284805298,-0.1372661292552948,0.09411952644586563,-0.10004543513059616,0.5589047074317932,0.4665771722793579,-0.6855153441429138,-0.002019941806793213,-0.01641237735748291,0.005553245544433594,0.06578042802438758,-0.3218348011051262,-0.2316563739997876,0.915658603091064,-0.4854169290088839,0.6840043530122998,-3.109200370626388
1781551791947148032,2.7993950843811035,-0.10999615490436554,0.060723353177309036,-0.07961206883192062,0.5590143799781799,0.46789413690567017,-0.6845276355743408,0.011069238185882568,-0.003401339054107666,-0.02830195426940918,0.06608665760539367,-0.3221227856769007,-0.23232112202702704,0.9153668472411588,-0.48690649839170985,0.6848067852164429,-3.109130199106256
1781551791957183232,2.8094301223754883,-0.0949879139661789,0.022570375353097916,-0.0740244910120964,0.5589290857315063,0.4690553545951843,-0.6838021874427795,0.020676016807556152,0.007140934467315674,-0.035634517669677734,0.06632406609175566,-0.3222554360667498,-0.23291704443434902,0.9151515129786288,-0.48822086275516724,0.6852515431441326,-3.109062643415256
1781551791967218176,2.819465160369873,-0.06402520835399628,-0.013734901323914528,-0.06595590710639954,0.558628261089325,0.469958633184433,-0.6834276914596558,0.02167874574661255,0.004864364862442017,-0.02172672748565674,0.06652007972631101,-0.3222152181411565,-0.23337417630664042,0.915034954126606,-0.4892438995318724,0.6852561375716132,-3.109121332762697
1781551791977253120,2.829500198364258,-0.0720604956150055,-0.037717729806900024,-0.07709404826164246,0.5581148266792297,0.4707934856414795,-0.6832724809646606,0.005087018013000488,-0.00494268536567688,0.00991743803024292,0.0667102214030409,-0.32203338096223255,-0.2337910487130089,0.9149786788376681,-0.4901899581961595,0.684916920288397,-3.1092828150115563
1781551791987288320,2.8395352363586426,-0.1004553884267807,-0.03636617586016655,-0.07965574413537979,0.5574727654457092,0.4718214273452759,-0.6830875873565674,-0.02338463068008423,-0.01680433750152588,0.023053407669067383,0.06688599674438277,-0.3217887413059635,-0.23432503195834561,0.9149153079399095,-0.4913554788086085,0.6844855995842138,-3.1093578995859543
1781551791997323264,2.8495702743530273,-0.12021923065185547,-0.018843643367290497,-0.07196506857872009,0.5569018125534058,0.47298866510391235,-0.6827460527420044,-0.03863704204559326,-0.034390032291412354,0.0035163164138793945,0.06703204846865958,-0.32159663185153625,-0.234952314522316,0.9148113574319585,-0.49267978014901564,0.6842286617023404,-3.1092667445911353
1781551792007357952,2.859605073928833,-0.12149062752723694,-0.03554578870534897,-0.07061004638671875,0.5563729405403137,0.4742012619972229,-0.6823360323905945,-0.02861720323562622,-0.0381355881690979,-0.010550379753112793,0.06712686410357233,-0.32142307657468144,-0.23562512726501358,0.9146923884805261,-0.4940565883313974,0.6840575104939849,-3.10902295335363
1781551792017393152,2.8696401119232178,-0.11626550555229187,-0.0538552887737751,-0.07231739908456802,0.5557188987731934,0.4754253327846527,-0.6820169687271118,-0.013558924198150635,-0.01261100172996521,-0.007863342761993408,0.06720899958540966,-0.32116970208236323,-0.2363081138670103,0.9145990050541293,-0.4954474212449176,0.6837105137196745,-3.108791940941045
1781551792027428096,2.8796751499176025,-0.08431050181388855,-0.04643279314041138,-0.05854992941021919,0.5550367832183838,0.47647830843925476,-0.6818376779556274,-0.007719278335571289,0.007683068513870239,-0.02143990993499756,0.06728886467372984,-0.320879550799121,-0.23689126148303355,0.9145442387660601,-0.49664472898240236,0.6832378775300257,-3.1086587181385807
1781551792037463296,2.8897101879119873,-0.07510742545127869,-0.03955278545618057,-0.04774921014904976,0.5544992685317993,0.4772913455963135,-0.6817063093185425,0.0002492666244506836,-0.0030634403228759766,-0.02617943286895752,0.0673598906213151,-0.3206514544025928,-0.23733834990252667,0.9145029856814578,-0.4975697193714938,0.6828578562785104,-3.1085803423942235
1781551792047497216,2.8997442722320557,-0.09237349033355713,-0.07929300516843796,-0.045197635889053345,0.5538883805274963,0.478081613779068,-0.6816492080688477,0.015615403652191162,-0.019127756357192993,-0.031256675720214844,0.06736650634985865,-0.3203583664543141,-0.2377938638435529,0.9144869310490418,-0.4984692402821827,0.6823593474134307,-3.10840152419115
1781551792057532160,2.9097790718078613,-0.10362747311592102,-0.10465269535779953,-0.04621123522520065,0.5530312061309814,0.4790220558643341,-0.6816849708557129,0.007454633712768555,-0.024691611528396606,-0.02128744125366211,0.0673104680511769,-0.3199116921714211,-0.23835693511128103,0.9145008415642092,-0.4995402814496391,0.6815757729265077,-3.1080989401113186
1781551792067567104,2.919814109802246,-0.10936471819877625,-0.10203786194324493,-0.052957288920879364,0.5520631074905396,0.4800141155719757,-0.6817718148231506,-0.02677929401397705,-0.021975785493850708,-0.00723874568939209,0.06723641972263036,-0.3193968897587555,-0.23895545407860358,0.914530099740937,-0.500670804675634,0.6806564152684325,-3.1077720991829936
1781551792077602048,2.929849147796631,-0.10132330656051636,-0.07833120226860046,-0.04796146601438522,0.5511859059333801,0.4810231029987335,-0.6817704439163208,-0.04204589128494263,-0.017476379871368408,-0.0037764310836791992,0.06719498075427675,-0.31894947844423965,-0.2395537441582113,0.9145327861786293,-0.5018213349248796,0.6798797757102354,-3.107473136954787
1781551792087637248,2.9398841857910156,-0.08952496945858002,-0.07462701201438904,-0.04097785800695419,0.5504419207572937,0.48192229866981506,-0.681736409664154,-0.0303918719291687,-0.018924862146377563,-0.011744976043701172,0.0671545789801542,-0.3185736812515157,-0.24008872628146422,0.914526367087059,-0.502847267414937,0.6792439437483782,-3.107184869165106
1781551792097672192,2.9499192237854004,-0.10001197457313538,-0.08239572495222092,-0.036777254194021225,0.5497098565101624,0.48277679085731506,-0.6817225217819214,-0.010403275489807129,-0.016788601875305176,-0.024057507514953613,0.06708740713535494,-0.31819343819841883,-0.24060690058668546,0.9145274537271003,-0.5038227175755516,0.6786035284782759,-3.106858001097608
1781551792107707392,2.9599545001983643,-0.08295895159244537,-0.09803633391857147,-0.023970909416675568,0.5489504337310791,0.4835723340511322,-0.6817706227302551,0.006240546703338623,-0.008795112371444702,-0.0365520715713501,0.06697029620797158,-0.31777650855975387,-0.24110739333884024,0.914549199644769,-0.5047313657430368,0.6778936069445138,-3.106464763474356
1781551792117742592,2.969989538192749,-0.0900173932313919,-0.09554547816514969,-0.013459679670631886,0.5481812953948975,0.484260231256485,-0.6819011569023132,0.013250589370727539,0.006569266319274902,-0.03335452079772949,0.06680404455114995,-0.3173287545503144,-0.24156132550410958,0.9145970039110094,-0.5055174306630152,0.6771153213669626,-3.1060264556756576
1781551792127777280,2.9800243377685547,-0.06363372504711151,-0.10483778268098831,-0.004141279496252537,0.5474477410316467,0.4848298132419586,-0.6820858716964722,0.014853894710540771,0.012011617422103882,-0.017941594123840332,0.06660335832262397,-0.3168809667777074,-0.24195769164346248,0.9146622633289394,-0.5061685705659227,0.6763293155034349,-3.1055637062676715
1781551792137812480,2.9900593757629395,-0.06965352594852448,-0.1208103597164154,-0.004724778234958649,0.5466521978378296,0.48527082800865173,-0.6824101805686951,0.00205385684967041,-0.01705491542816162,-0.010903418064117432,0.06637878888306901,-0.3163741807126137,-0.24228556613031826,0.9147671875996402,-0.506672899679877,0.6753875813708703,-3.105142646104977
1781551792147847424,3.000094413757324,-0.09836533665657043,-0.1280088871717453,-0.006124002858996391,0.5457691550254822,0.48587968945503235,-0.6826835870742798,-0.027657032012939453,-0.039285480976104736,3.594160079956055e-05,0.06611484280224099,-0.31582098337080694,-0.24272475214669403,0.9148609430586696,-0.5073693793149144,0.6744034683569186,-3.1045791447261943
1781551792157882368,3.010129451751709,-0.09794323146343231,-0.11201740056276321,-0.0011782462242990732,0.5449081659317017,0.4866124987602234,-0.6828494071960449,-0.04997408390045166,-0.04107111692428589,-0.0012936592102050781,0.06582426812652185,-0.31528802402229056,-0.24324629455232466,0.9149271852342544,-0.508207995785385,0.6735151627371218,-3.1038824849659363
1781551792167917568,3.0201644897460938,-0.11133439838886261,-0.08875348418951035,-0.0028041061013936996,0.5441964864730835,0.48729825019836426,-0.6829279661178589,-0.051841139793395996,-0.029824495315551758,-0.008752942085266113,0.06555051717313434,-0.3148472216487162,-0.24373598678460398,0.9149684015255377,-0.5089931180321454,0.6728220110035784,-3.1031904971497997
1781551792177952512,3.0301995277404785,-0.13290733098983765,-0.08265351504087448,0.001946440665051341,0.5435943603515625,0.48815104365348816,-0.682798445224762,-0.03619384765625,-0.01787516474723816,-0.02411067485809326,0.06526303436624506,-0.31448910435787863,-0.24433045573131384,0.9149535281180083,-0.5099699852412047,0.672374931619593,-3.102335493860852
1781551792187987200,3.040234327316284,-0.108913853764534,-0.08732656389474869,0.011718111112713814,0.5430470108985901,0.4889737665653229,-0.682645320892334,-0.009630262851715088,-0.026403576135635376,-0.045244693756103516,0.06493196947281803,-0.31414990651566377,-0.24492281389520654,0.9149352177821836,-0.51091288694077,0.6719933845129806,-3.1013801307965276
1781551792198022400,3.050269365310669,-0.10439792275428772,-0.10877300053834915,0.005610683932900429,0.5423901081085205,0.48961615562438965,-0.6827071309089661,-0.002839326858520508,-0.02559638023376465,-0.052064597606658936,0.0646113254697475,-0.31372542897253103,-0.24540330740900881,0.9149748512296548,-0.511649461932616,0.6713596541575566,-3.1005885322089095
1781551792208057344,3.0603044033050537,-0.0597713403403759,-0.09864073991775513,0.008784906007349491,0.5416794419288635,0.4901457130908966,-0.682891309261322,-0.010047972202301025,-0.0019102394580841064,-0.0429387092590332,0.06431420830364605,-0.31326145733737526,-0.24580804154027985,0.9150461101317933,-0.5122569123228811,0.6705898605075894,-3.0999310525595885
1781551792218092544,3.0703394412994385,-0.013790798373520374,-0.0724453553557396,0.016822591423988342,0.5411784052848816,0.4903222918510437,-0.6831617951393127,-0.013987243175506592,0.004092991352081299,-0.032826364040374756,0.06409082375712177,-0.31290918783507066,-0.24598160321419935,0.9151356614324899,-0.5124595071420022,0.6699465894325309,-3.0995441456360897
1781551792228127488,3.0803744792938232,-0.019945897161960602,-0.07348118722438812,0.014082466252148151,0.5407400727272034,0.4903145730495453,-0.6835143566131592,-0.01081758737564087,-0.015796780586242676,-0.02585148811340332,0.06391847900180758,-0.31258967035602814,-0.24602948134351318,0.9152441161051875,-0.5124506646713989,0.6693011427398797,-3.099344186360562
1781551792238162432,3.090409517288208,-0.04696925729513168,-0.0759321004152298,0.011258715763688087,0.5402780771255493,0.4904528558254242,-0.683780312538147,-0.019343078136444092,-0.03761780261993408,-0.006099998950958252,0.06372122867061297,-0.312264766017486,-0.2461718148651548,0.9153303609528637,-0.5126093307033865,0.6686960985286704,-3.0990198408352794
1781551792248197376,3.1004443168640137,-0.07763849198818207,-0.06960456073284149,0.010608904995024204,0.5398195385932922,0.4908401370048523,-0.6838645935058594,-0.033395588397979736,-0.039881885051727295,-0.000995635986328125,0.06347940667284524,-0.31195677880241607,-0.24647648795706,0.9153702019989504,-0.5130537701195124,0.6682231123422943,-3.0984622339381676
1781551792258232320,3.1104793548583984,-0.0937815010547638,-0.05720141902565956,0.01567210629582405,0.5394338369369507,0.4913737177848816,-0.6837857365608215,-0.036931395530700684,-0.027231872081756592,-0.01998007297515869,0.06320756679943618,-0.31170163416701785,-0.24687894211469802,0.9153675062232695,-0.5136663286634351,0.667931648746202,-3.097731199065705
1781551792268267520,3.120514392852783,-0.0872783362865448,-0.048135217279195786,0.02150549553334713,0.5391731262207031,0.49187302589416504,-0.6836323738098145,-0.0251961350440979,-0.016607552766799927,-0.03852027654647827,0.06290987241870732,-0.31151320163577806,-0.24727176685711824,0.9153461559857264,-0.5142397125300582,0.6678056573443499,-3.0969129305838226
1781551792278301440,3.1305484771728516,-0.08176079392433167,-0.04955281689763069,0.028319992125034332,0.5389478802680969,0.492294043302536,-0.683506965637207,-0.013831913471221924,-0.01301547884941101,-0.04606151580810547,0.06260091264570421,-0.31133512416228143,-0.24762259989740004,0.9153331015000103,-0.5147233348858284,0.6676916841318871,-3.096098415428585
1781551792288336640,3.1405835151672363,-0.06572191417217255,-0.05689515545964241,0.028208138421177864,0.5387144684791565,0.49264466762542725,-0.6834383606910706,-0.006671011447906494,-0.013656020164489746,-0.030398309230804443,0.06229666164135234,-0.3111455461816749,-0.24792996495684697,0.9153351397661726,-0.5151261997933594,0.6675298925778387,-3.0953355963863625
1781551792298371328,3.150618314743042,-0.06815683841705322,-0.050599705427885056,0.030254511162638664,0.5384700894355774,0.4929558038711548,-0.68340665102005,-0.007815182209014893,-0.002828240394592285,-0.008762538433074951,0.061984707451638386,-0.3109426841647099,-0.24821629502969517,0.9153476663463582,-0.5154837499303881,0.6673318647206059,-3.0945817772844966
1781551792308406272,3.1606533527374268,-0.06983382999897003,-0.03955438360571861,0.029284588992595673,0.5382968187332153,0.4932193458080292,-0.6833528876304626,-0.016598820686340332,-0.005853623151779175,-0.003323078155517578,0.061690094082236635,-0.31078346690201253,-0.2484696786324022,0.9153528032806557,-0.5157867005996295,0.6672136141478096,-3.0938634162041856
1781551792318441472,3.1706883907318115,-0.10192517936229706,-0.025432704016566277,0.029354896396398544,0.5382147431373596,0.4936380684375763,-0.6831151247024536,-0.02480226755142212,-0.027649909257888794,-0.008748888969421387,0.06137821588831793,-0.3106925700209438,-0.24882234765140007,0.9153087818991744,-0.5162681002611147,0.6673086725568187,-3.0929865749744643
1781551792328476416,3.1807234287261963,-0.11905276775360107,-0.025419387966394424,0.034343525767326355,0.5382019281387329,0.49423691630363464,-0.6826921105384827,-0.025445640087127686,-0.04198169708251953,-0.02972543239593506,0.061015360354035215,-0.3106497657575037,-0.24930034738561746,0.9152175225157085,-0.5169568156695997,0.667598236188642,-3.0918721953422312
1781551792338511360,3.190758466720581,-0.10837562382221222,-0.03142188489437103,0.03530333191156387,0.5381848216056824,0.4948130249977112,-0.6822882294654846,-0.015144050121307373,-0.02736002206802368,-0.05011838674545288,0.060637116936138505,-0.3105974107030702,-0.24977017447783284,0.915132387088669,-0.5176196457188592,0.6678705323161025,-3.0907376143874576
1781551792348546560,3.200793504714966,-0.08829379081726074,-0.026997843757271767,0.040066126734018326,0.5381696820259094,0.4952751398086548,-0.6819647550582886,-0.015693485736846924,-0.009526848793029785,-0.046932339668273926,0.06028132506491711,-0.3105400612773352,-0.2501649489846378,0.9150674655541653,-0.5181515211096835,0.6680874473513438,-3.0897129897397546
1781551792358581504,3.2108285427093506,-0.09959997236728668,-0.024216437712311745,0.04285232722759247,0.5381906032562256,0.49569404125213623,-0.6816437840461731,-0.012891530990600586,-0.0043762922286987305,-0.01881086826324463,0.05990866145517368,-0.3104956554646116,-0.25054050620713897,0.9150043090318805,-0.5186337813595499,0.6683353156761903,-3.0886603347538344
1781551792368616448,3.2208633422851562,-0.11872866749763489,-0.03498133271932602,0.0406498908996582,0.538196325302124,0.4961744248867035,-0.6812896728515625,-0.007907688617706299,-0.012425065040588379,0.010177671909332275,0.05950442294615226,-0.3104394704390866,-0.2509631516396776,0.9149338665118285,-0.5191869766678985,0.668593233678399,-3.087510448128747
1781551792378651392,3.230898380279541,-0.15706300735473633,-0.03786953166127205,0.03938861936330795,0.5381209254264832,0.4969252049922943,-0.6808018684387207,-0.01402735710144043,-0.02227005362510681,0.01928764581680298,0.059064741208673,-0.31035156245324236,-0.25155712660439344,0.9148290244460794,-0.5200519160153183,0.6688735040511568,-3.0861662634622746
1781551792388686336,3.240933418273926,-0.19617152214050293,-0.03753810003399849,0.03642025962471962,0.5380492806434631,0.49790018796920776,-0.6801458597183228,-0.023263514041900635,-0.02448102831840515,0.014877915382385254,0.05856890913677243,-0.31027382911304763,-0.2523038272774807,0.9146817302656443,-0.5211758300414427,0.6692777496475479,-3.0845728731575917
1781551792398721536,3.2509684562683105,-0.22988128662109375,-0.025538165122270584,0.036034900695085526,0.5380048751831055,0.49917149543762207,-0.679248571395874,-0.03304576873779297,-0.02697300910949707,-0.0005609989166259766,0.058027548389471086,-0.3102313245961434,-0.253243451269103,0.9144709491691506,-0.5226423526911176,0.6698800234794354,-3.0827024236622727
1781551792408756480,3.2610034942626953,-0.23568591475486755,-0.028980698436498642,0.04243181273341179,0.5380038619041443,0.5005830526351929,-0.6782097816467285,-0.025308549404144287,-0.03576982021331787,-0.026608943939208984,0.05745155696780903,-0.3102203763094378,-0.2542801865002539,0.914223352236797,-0.5242721619301108,0.6706241016100206,-3.080656989093113
1781551792418791424,3.27103853225708,-0.18336571753025055,-0.02788853645324707,0.03852042928338051,0.538003146648407,0.5017648339271545,-0.6773364543914795,-0.015160739421844482,-0.02417999505996704,-0.05691647529602051,0.05688980368423991,-0.31018863357996646,-0.25517598825104876,0.9140195382604299,-0.5256378145076965,0.6712509255797579,-3.078767113107112
1781551792428826368,3.2810733318328857,-0.10414385795593262,-0.027178272604942322,0.04413677006959915,0.53802490234375,0.5025655627250671,-0.6767252683639526,-0.006317138671875,-0.005663096904754639,-0.07751667499542236,0.05643772812252044,-0.3101605827231349,-0.2558080986087634,0.9138804456971493,-0.5265637661919614,0.6717103823740949,-3.077319391916317
1781551792438861312,3.2911083698272705,-0.0378524586558342,-0.02415558323264122,0.031236153095960617,0.5380222201347351,0.5027801394462585,-0.6765680313110352,-0.006253421306610107,-0.003161609172821045,-0.07462215423583984,0.05612526498528309,-0.31009408569405333,-0.2560422868441196,0.9138566669313721,-0.5268119759221294,0.6718211336108971,-3.0765159997348244
1781551792448896512,3.3011434078216553,0.01418490894138813,-0.021378573030233383,0.029913360252976418,0.5380076766014099,0.5026900768280029,-0.6766465306282043,-0.015287339687347412,-0.0038039684295654297,-0.044193923473358154,0.055944415363105314,-0.31002483901369443,-0.256049473203984,0.9138892716848227,-0.5267077729632906,0.6717514331622889,-3.0761769505717167
1781551792458931456,3.31117844581604,-0.00874117948114872,-0.011525409296154976,0.025497306138277054,0.5380265712738037,0.5024864077568054,-0.6767826676368713,-0.02351546287536621,-0.01954573392868042,-0.012716174125671387,0.05580422820002825,-0.30997587803121623,-0.25597579793847475,0.9139350260719781,-0.5264722386669398,0.6716705213281956,-3.075976824929461
1781551792468966400,3.321213483810425,-0.04598468914628029,0.004610417410731316,0.02336491458117962,0.5380995273590088,0.5025409460067749,-0.6766842007637024,-0.03607010841369629,-0.0423053503036499,0.0011776089668273926,0.055651375730790174,-0.309984205973526,-0.25606188386418094,0.913917432358429,-0.5265352868175746,0.6718074923880597,-3.0755814793417797
1781551792479001600,3.3312485218048096,-0.08109873533248901,0.020322801545262337,0.0289093479514122,0.5383095741271973,0.5028377771377563,-0.676296591758728,-0.036966800689697266,-0.04090845584869385,-0.011279702186584473,0.05543883658357127,-0.31008658107400516,-0.256316254839167,0.9138243567805194,-0.5268786406785009,0.6722768009613606,-3.0748622001142776
1781551792489036288,3.3412833213806152,-0.06914912164211273,0.03161060810089111,0.028691502287983894,0.5386226177215576,0.503200352191925,-0.6757774353027344,-0.019289731979370117,-0.01578885316848755,-0.025989532470703125,0.05521846395251847,-0.31025781543449527,-0.2566152287000431,0.9136956082743356,-0.5272981631808298,0.6729343346847871,-3.074045281010195
1781551792499071232,3.351318359375,-0.04575006291270256,0.032940857112407684,0.030444394797086716,0.5389965772628784,0.5034030079841614,-0.6753281950950623,0.000661015510559082,0.000793159008026123,-0.04671764373779297,0.055034317699023935,-0.31046032044523686,-0.25680786984415077,0.9135838728667035,-0.5275326996534758,0.6735968391091814,-3.073372126574231
1781551792509106432,3.3613533973693848,-0.028465615585446358,0.025763772428035736,0.025545509532094002,0.5393199920654297,0.5034911632537842,-0.675004243850708,0.004854261875152588,-0.00631403923034668,-0.04899477958679199,0.05488067627960414,-0.3106278871945659,-0.2569205854349637,0.9135044554740915,-0.5276347053608857,0.6741232620564022,-3.0728511859530077
1781551792519141376,3.3713884353637695,0.019623083993792534,0.01634683459997177,0.02294014021754265,0.539577841758728,0.5033791065216064,-0.6748816967010498,0.0015445947647094727,-0.00966578722000122,-0.047194719314575195,0.054787882690204286,-0.310750705408365,-0.25689134885831066,0.9134764402891071,-0.5275050808510465,0.6744449719361553,-3.0726040097574723
1781551792529175552,3.381422519683838,0.03493652492761612,0.010639680549502373,0.013935726135969162,0.5397408604621887,0.5030637383460999,-0.6749864816665649,-0.01338893175125122,-0.014462053775787354,-0.02603280544281006,0.05476758586587696,-0.3108133769728791,-0.25671345891760816,0.9135063686893217,-0.5271401239270734,0.674516556308868,-3.072670404236401
1781551792539210240,3.3914573192596436,0.03976563736796379,0.02386973239481449,0.008809407241642475,0.5399072170257568,0.502731204032898,-0.6751011610031128,-0.028432607650756836,-0.02645862102508545,-0.001626133918762207,0.054795420151771385,-0.3108899061158394,-0.2565090477646348,0.9135360429656301,-0.5267553834550872,0.6745840423994349,-3.0728503999474843
1781551792549245440,3.4014923572540283,0.020108046010136604,0.02508985996246338,0.00838995911180973,0.540111243724823,0.5024852156639099,-0.6751210689544678,-0.028026282787322998,-0.027082383632659912,0.0017354488372802734,0.05482750701478559,-0.3110002077326795,-0.2563558882840282,0.9135395522526439,-0.5264708444138426,0.6747539709950551,-3.072975039787511
1781551792559280384,3.411527395248413,-0.009916964918375015,0.024163879454135895,0.004295615013688803,0.5403016209602356,0.5023748278617859,-0.6750508546829224,-0.02618730068206787,-0.020792245864868164,-0.0029581189155578613,0.05484348580327475,-0.31111174319369433,-0.2562890205667912,0.9135193302311398,-0.5263431982278862,0.6749766001040323,-3.0729933353248615
1781551792569315328,3.421562433242798,-0.049078214913606644,0.0277094766497612,0.013823340646922588,0.5405199527740479,0.5025179982185364,-0.674769401550293,-0.019676506519317627,-0.016464591026306152,0.0007734894752502441,0.05479055085949966,-0.31124809275573606,-0.2563979542559935,0.9134455032480048,-0.526508789803846,0.6753771761784768,-3.072705570519661
1781551792579350528,3.4315974712371826,-0.09338521957397461,0.023779183626174927,0.014242787845432758,0.5407681465148926,0.502920389175415,-0.6742705702781677,-0.007076740264892578,-0.02358078956604004,-0.0059967041015625,0.05464859504954532,-0.31140540900170816,-0.2566931541050283,0.9133174540511978,-0.5269742726397911,0.6759620952578614,-3.0720631099742226
1781551792589385472,3.4416325092315674,-0.11278848350048065,-0.0014614569954574108,0.005653827451169491,0.5408805012702942,0.5035827159881592,-0.6736859679222107,0.0030953288078308105,-0.02827143669128418,-0.02142810821533203,0.05445890226704045,-0.31149196087729397,-0.25715708838916174,0.9131688260151416,-0.5277406778949774,0.6764869124553807,-3.07122429436762
1781551792599420416,3.451667308807373,-0.08097915351390839,-0.024853331968188286,-0.008636695332825184,0.5407652854919434,0.5042220950126648,-0.6733000874519348,-0.004159450531005859,-0.016505420207977295,-0.027536094188690186,0.054287529677582234,-0.31143923834187576,-0.25759570646618407,0.9130733729297251,-0.5284809309314419,0.6766626093439612,-3.0705327961245263
1781551792609455360,3.461702346801758,-0.01934189163148403,0.0005194023251533508,-0.01851888746023178,0.5406061410903931,0.5046635270118713,-0.6730971932411194,-0.026674866676330566,-0.007288038730621338,-0.040907323360443115,0.05424424832879224,-0.3113742832101364,-0.25787102175430726,0.9130204189603707,-0.5289921963649772,0.6766660529142203,-3.070252847161001
